"AccX","AccY","AccZ","GyroX","GyroY","GyroZ","MagX","MagY","MagZ"
"-10.631","-3.4488","0.27454","1.3235","0.63587","1.4856","0.57401","-0.37029","0.052248"
"-22.05","7.5465","-3.5757","-0.042021","-1.4449","2.699","0.54602","-0.46265","0.008431"
"-25.523","-7.6901","-2.1658","-2.0044","0.93183","3.542","0.46536","-0.57267","-0.037156"
"-18.564","-12.936","-1.9753","-0.080044","-0.198","3.7659","0.34357","-0.66041","-0.062377"
"-11.219","-11.426","-0.86152","0.81475","0.013764","3.524","0.20037","-0.71985","-0.023073"
"-6.6216","-9.7058","1.1569","1.2508","0.24848","1.4258","0.1341","-0.72924","0.043236"
"0.41335","-1.5536","6.0761","-1.2188","-0.50587","-0.161","0.12573","-0.71866","0.060716"
"0.32114","7.5775","-0.37303","-2.5769","0.74764","0.12451","0.11802","-0.71629","0.013975"
"-2.1933","2.2191","1.6981","1.5015","-0.40958","-0.094183","0.11551","-0.71849","-0.001291"
"-13.099","26.726","-4.6099","-1.2709","-0.32301","0.13277","0.13683","-0.71957","-0.031121"
"-4.0519","-27.332","0.34236","3.4079","-0.35334","0.26914","0.10746","-0.73319","0.004638"
"-12.39","-10.289","-1.1792","1.4812","0.55781","-3.3935","0.15134","-0.72083","0.054996"
"-22.709","-3.2731","-2.8572","0.004355","-0.27798","-2.4924","0.2787","-0.66519","0.047235"
"-18.427","1.2961","-4.6293","-1.2404","0.050934","-3.633","0.39068","-0.58337","0.049144"
"-13.465","1.8487","0.6692","-0.79377","-0.12488","-3.0905","0.50308","-0.47422","0.071779"
"-15.108","8.1214","2.0174","0.19903","0.14752","-3.358","0.55534","-0.37638","0.10365"
"-5.2304","23.266","1.8542","0.097722","-0.74706","-2.3088","0.57562","-0.30095","0.10376"
"-0.49198","13.304","3.2882","0.36026","-0.52645","0.21869","0.58173","-0.29505","0.094237"
"-3.897","7.425","3.4288","0.90747","-0.24507","1.2335","0.57466","-0.33827","0.05939"
"-22.652","-3.2188","2.1707","0.5408","0.32839","2.5153","0.55014","-0.41466","0.056073"
"-16.614","2.6829","-2.7337","-0.46407","-0.29274","3.0464","0.47838","-0.52486","0.026328"
"-29.462","-12.784","-5.3309","-1.2983","-0.15157","3.7927","0.36593","-0.63183","-0.020352"
"-14.262","-13.379","-3.1789","0.60362","-0.008295","3.6805","0.23085","-0.69539","-0.000668"
"-8.1017","-12.801","-2.7256","2.0125","0.25912","2.5106","0.1328","-0.71403","0.08364"
"-2.2959","-5.8038","1.0298","0.54462","0.37534","0.74969","0.082907","-0.70752","0.16256"
"1.8771","4.3512","6.7146","-2.9317","0.48226","-0.32941","0.10068","-0.70389","0.1349"
"0.91531","9.6063","-9.8765","-0.73474","1.4225","0.44176","0.095709","-0.70408","0.066855"
"-2.0901","-0.63617","4.7496","1.6566","-1.3708","0.36469","0.10621","-0.7126","0.061878"
"-48.661","19.072","7.4839","-0.04971","3.7291","0.58764","0.10039","-0.72927","-0.019889"
"5.337","-44.981","-10.028","1.3758","1.2085","-0.46741","0.053433","-0.74973","-0.010277"
"-21.916","-1.7683","-5.2209","-0.050751","-1.3837","-4.7922","0.17985","-0.72255","0.015173"
"-12.945","-5.1174","-2.8613","-0.28473","-0.69994","-2.8701","0.29655","-0.66438","0.029118"
"-23.663","0.29625","-0.17894","-2.1328","0.53785","-3.7723","0.4186","-0.57161","0.015663"
"-14.04","3.9975","2.6438","-1.1512","0.62559","-3.4861","0.51062","-0.4631","0.019058"
"-14.336","9.7385","3.4266","0.29845","0.055639","-3.2347","0.59931","-0.34737","0.020852"
"1.81","28.256","-1.2359","0.28834","-0.4844","-1.4186","0.6366","-0.27405","0.026603"
"-0.91635","8.8388","3.5322","0.86103","-0.24228","0.81543","0.62517","-0.28256","0.042679"
"-8.8336","-2.1549","4.7956","2.4423","0.79412","1.5241","0.62108","-0.33449","0.027588"
"-27.577","6.176","-0.15172","0.80861","-1.342","2.398","0.59206","-0.41727","0.022377"
"-22.982","-3.5303","1.0165","-1.4643","0.8791","3.4225","0.52915","-0.54731","-0.047013"
"-23.684","-14.462","-0.62098","-0.31851","-0.31031","4.0527","0.41383","-0.6484","-0.08303"
"-14.228","-13.029","-0.59761","0.89776","-0.19951","3.7923","0.28724","-0.69962","-0.043882"
"-6.5375","-13.172","-2.2436","2.3429","-0.60335","1.788","0.20618","-0.71957","0.035474"
"3.0505","-4.576","3.0415","0.38298","-0.21383","-0.33607","0.20626","-0.70348","0.11763"
"1.49","7.1574","0.64158","-2.9839","1.3016","-0.62518","0.21308","-0.69092","0.094136"
"-4.1366","13.954","2.0667","-1.1355","0.67973","0.6429","0.18967","-0.70394","0.040545"
"-0.085146","-5.4084","1.824","0.38803","-2.1137","-0.29915","0.1972","-0.7107","0.03059"
"-35.49","2.5639","16.732","2.0983","0.086258","1.6435","0.18609","-0.72622","-0.025425"
"3.9731","-37.659","-8.3606","1.3236","1.9745","-1.5511","0.168","-0.73547","0.036208"
"-26.687","-2.9886","-10.282","-0.35308","-2.2207","-4.449","0.28436","-0.69527","0.045477"
"-15.548","-2.3082","-4.5822","0.09821","-0.29806","-3.2867","0.39728","-0.61833","0.061423"
"-25.683","7.8598","2.3907","-1.096","-0.14003","-3.7682","0.51213","-0.5186","0.062509"
"-13.695","6.4674","2.378","-0.6716","0.46633","-3.5899","0.58584","-0.40652","0.079673"
"-11.173","15.887","3.0411","0.271","-0.90322","-2.6587","0.63136","-0.30855","0.10091"
"0.37754","16.622","-0.49398","0.19194","-0.4761","-0.24542","0.63592","-0.26387","0.08782"
"-1.6397","7.3695","4.3523","0.51215","-0.2511","1.0826","0.63112","-0.29775","0.058668"
"-11.314","-4.8841","2.1081","1.2519","0.20331","1.5424","0.62651","-0.3603","0.043575"
"-21.497","6.6877","-2.1156","0.55435","-1.3747","2.4965","0.58123","-0.45634","0.018686"
"-26.993","-9.0562","-1.4886","-1.3867","0.73095","3.3357","0.50184","-0.56616","-0.019132"
"-19.985","-12.491","-1.9893","0.019027","-0.059336","3.5905","0.37186","-0.67565","-0.034362"
"-12.463","-12.107","-0.59315","0.67506","0.17361","3.0971","0.25597","-0.72572","-0.005431"
"-4.7964","-12.41","-3.4249","1.511","-0.068088","1.6293","0.18889","-0.73323","0.054297"
"1.0069","-3.5063","3.5395","-0.068112","-0.34935","-0.022603","0.18544","-0.71714","0.10375"
"2.3304","11.26","5.0806","-3.2256","0.91212","-0.16452","0.19584","-0.71132","0.064501"
"-2.58","6.8576","0.32004","-0.058893","0.53376","0.36772","0.16524","-0.71588","0.036555"
"-8.573","20.184","0.12512","-0.4471","-1.9178","0.060547","0.1525","-0.73125","0.014698"
"-8.5744","-27.953","1.0478","4.3474","-0.83964","1.0089","0.095885","-0.7586","0.040729"
"-11.467","-9.97","-1.3858","1.4522","-0.087939","-3.4261","0.15739","-0.73843","0.088114"
"-29.457","-2.4324","1.2157","-0.55159","-1.0627","-2.6984","0.29486","-0.68474","0.064367"
"-22.6","3.101","-2.7416","-2.5549","0.8258","-3.5088","0.4039","-0.59662","0.090427"
"-12.377","-0.35526","1.3315","-1.1293","0.015646","-3.2487","0.49185","-0.49667","0.081761"
"-12.33","10.105","-0.07446","-0.38612","-0.16284","-2.9637","0.56214","-0.40135","0.072934"
"-5.3346","18.883","2.2023","-0.21025","-0.4985","-2.2231","0.60117","-0.32521","0.091827"
"1.2255","13.22","3.2556","0.3221","-0.29503","0.1118","0.6153","-0.31013","0.080432"
"-5.5165","3.4213","5.0665","1.4731","-0.15342","1.4595","0.58853","-0.34787","0.080053"
"-16.628","-0.082155","-1.6653","0.97527","0.1343","2.0714","0.56294","-0.42391","0.060481"
"-17.108","2.1242","-0.67195","-0.46652","-0.1728","3.0632","0.51873","-0.52678","0.005738"
"-30.722","-8.5131","-3.98","-1.4248","0.24331","3.3571","0.41395","-0.63211","-0.040205"
"-15.924","-15.144","-2.1224","0.1284","0.12869","3.6812","0.29144","-0.70327","-0.050211"
"-9.7958","-12.736","-1.9494","1.7414","0.36257","2.7514","0.17024","-0.74411","0.02392"
"-4.9407","-9.4804","-1.0976","1.8327","0.62827","0.64313","0.13608","-0.73296","0.12003"
"1.6946","3.1765","5.8719","-1.3384","-0.017403","-0.88807","0.16664","-0.70668","0.14152"
"-1.4331","15.551","-4.2505","-2.9472","0.868","0.6846","0.17662","-0.70717","0.069602"
"-3.0794","1.9113","2.5812","-0.28933","-0.79234","0.12461","0.16492","-0.71671","0.021516"
"-4.5287","18.441","-2.3877","-1.694","-1.0777","-1.5058","0.19483","-0.71609","-0.039543"
"-9.3483","-27.545","3.2376","4.5313","-0.72827","1.3576","0.1356","-0.74175","0.010534"
"-15.448","-7.3135","1.6375","1.765","-1.0846","-3.666","0.18761","-0.72194","0.074202"
"-23.106","0.080692","-1.9156","-0.42943","-0.59065","-2.5784","0.31507","-0.66068","0.070482"
"-24.525","2.4361","0.21407","-2.2108","0.5034","-3.4492","0.42255","-0.57742","0.052969"
"-11.914","2.2583","0.9028","-0.83391","0.1031","-3.2387","0.5359","-0.46569","0.089106"
"-13.732","8.752","1.2343","-0.15534","0.073498","-2.9286","0.58929","-0.36861","0.11437"
"-4.4107","20.234","1.0115","0.20655","-0.78826","-2.2832","0.61253","-0.29077","0.10378"
"1.6552","13.169","1.6287","0.88911","-0.21505","0.10876","0.62527","-0.27477","0.095579"
"-5.0037","5.2244","4.7973","1.869","0.22794","1.5843","0.61641","-0.32402","0.078818"
"-22.073","-3.2743","-2.1013","0.50094","0.34558","2.6909","0.58906","-0.40536","0.091712"
"-15.714","3.0263","0.15787","-0.66492","0.14551","3.1168","0.52577","-0.51503","0.068235"
"-29.473","-7.3754","-4.0612","-2.0002","0.4882","3.4172","0.42886","-0.62253","0.015871"
"-14.818","-15.185","-2.0626","-0.062648","0.095019","3.7973","0.30552","-0.69129","-0.003325"
"-10.395","-10.79","-1.6109","1.2493","0.42146","2.461","0.2086","-0.71943","0.044341"
"-4.6173","-8.2809","-0.66478","1.1027","0.51549","0.57725","0.16068","-0.71917","0.10861"
"0.31217","0.51519","6.1021","-1.5693","-0.50492","-0.74903","0.18427","-0.70103","0.12143"
"1.8209","14.769","-0.66553","-2.7787","0.50776","0.13846","0.20904","-0.69373","0.058021"
"-4.3974","2.6286","9.1939","-0.12917","-0.050406","0.20532","0.18837","-0.70463","0.028595"
"-5.6286","9.3694","-4.2531","-1.5109","-0.90812","-0.61533","0.1756","-0.71809","6.8e-05"
"-10.322","-17.612","5.0379","4.8489","-0.90457","1.8809","0.12139","-0.74365","0.015101"
"-7.5809","-14.607","-4.4688","1.435","0.58193","-2.887","0.15095","-0.73218","0.097598"
"-35.501","0.73235","4.4895","-0.92474","-0.23541","-3.0075","0.27526","-0.68376","0.10957"
"-17.187","2.6202","-4.5755","-3.109","0.84411","-3.382","0.3851","-0.60685","0.08343"
"-11.124","-0.27389","0.99645","-1.0033","-0.27909","-3.1802","0.47462","-0.51733","0.069114"
"-14.192","7.1032","2.3223","-0.31377","0.29935","-2.8126","0.59132","-0.40671","0.048832"
"-8.0201","12.631","2.5603","0.52777","-0.63762","-2.7458","0.63312","-0.32407","0.074242"
"1.4201","17.553","0.24622","0.85074","-0.28219","-0.5809","0.61741","-0.29241","0.10505"
"-3.2112","7.7698","3.9827","1.4328","-0.27435","1.1788","0.61476","-0.32122","0.086574"
"-20.915","-2.1112","0.65168","0.30441","0.24309","2.3455","0.58747","-0.40098","0.074641"
"-15.205","2.7729","0.26591","-0.6924","-0.15589","2.8834","0.54627","-0.50765","0.011293"
"-28.314","-10.268","-3.4646","-1.3369","0.13192","3.2395","0.44932","-0.61675","-0.035973"
"-16.321","-13.413","-2.1698","0.47032","-0.20513","3.688","0.32665","-0.69344","-0.028203"
"-10.968","-11.539","-2.3044","1.1312","0.43085","2.8059","0.218","-0.73109","0.021289"
"-4.8591","-11.394","-2.4219","1.378","0.31379","0.96693","0.16907","-0.72963","0.094912"
"0.49668","0.87652","5.9554","-1.1684","-0.26339","-0.65019","0.17618","-0.70624","0.11636"
"-2.2463","17.078","2.8966","-4.0101","0.77757","0.53987","0.18395","-0.70694","0.037279"
"-4.5269","1.9623","3.3774","0.28713","-0.19714","0.39274","0.16165","-0.71607","-0.00451"
"-1.8181","2.6419","-5.9624","-1.3419","-0.79973","-1.075","0.15331","-0.72647","-0.024344"
"-13.239","-13.146","6.8801","3.9209","-0.43743","1.264","0.12487","-0.74197","-0.003556"
"-9.0395","-18.23","-3.8039","1.1713","1.4208","-3.0804","0.14585","-0.73413","0.045752"
