"AccX","AccY","AccZ","GyroX","GyroY","GyroZ","MagX","MagY","MagZ"
"-0.7403","-4.811","-3.283","0.2537","0.23661","0.14886","0.4078","0.72206","0.045857"
"-1.1373","-4.8317","-3.2599","-0.1059","0.07129","0.53955","0.41815","0.71285","0.046358"
"-1.6916","-4.9719","-3.0007","-0.28119","0.049402","0.80963","0.43469","0.70026","0.051083"
"-2.3587","-5.2679","-2.9231","-0.25244","-0.26925","1.0773","0.45628","0.68487","0.052057"
"-3.505","-5.3668","-3.0025","-0.32314","-0.41321","1.3972","0.48458","0.6574","0.046597"
"-4.5248","-5.6734","-3.678","-0.2616","-0.66475","1.603","0.51625","0.62033","0.032964"
"-6.0398","-6.4709","-4.2959","-0.34583","-0.63476","1.7036","0.55048","0.57571","0.016778"
"-7.0744","-6.8461","-4.5758","-0.51744","-0.63938","1.7126","0.57623","0.53229","0.002678"
"-7.419","-6.6865","-4.9099","-0.77803","-0.57526","1.6469","0.59397","0.4939","-0.009657"
"-7.9059","-6.7291","-4.8884","-0.81939","-0.51709","1.5119","0.60798","0.454","-0.019044"
"-7.8097","-6.8154","-5.9627","-0.80233","-0.42423","1.3587","0.61663","0.42192","-0.029538"
"-7.7072","-7.1676","-7.9342","-1.3229","-0.096607","1.1233","0.62214","0.39235","-0.030137"
"-7.6625","-7.1519","-8.2023","-1.2695","-0.01436","0.6642","0.62693","0.37711","-0.019923"
"-7.4294","-6.5697","-8.391","-1.017","-0.13384","0.38678","0.62942","0.36581","-0.013292"
"-7.436","-6.2275","-7.9569","-0.34133","-0.39163","0.27938","0.63166","0.36218","-0.015796"
"-6.9251","-5.5515","-7.5729","0.51236","-0.26799","0.04269","0.63551","0.35705","-0.025621"
"-7.8921","-6.4692","-6.5907","1.0315","-0.41661","-0.23134","0.63446","0.35978","-0.039581"
"-8.02","-6.9477","-6.3103","1.469","-0.30092","-0.65939","0.63326","0.36598","-0.062067"
"-7.8096","-6.4549","-6.5295","1.2304","-0.052943","-0.97745","0.63339","0.37633","-0.078376"
"-8.0493","-6.747","-5.9815","1.0185","0.17486","-1.2828","0.62755","0.39927","-0.085198"
"-7.9301","-7.3391","-5.5777","0.85479","0.41985","-1.5413","0.61986","0.43208","-0.083143"
"-7.9012","-8.0117","-5.5342","0.70462","0.6142","-1.7386","0.60093","0.47822","-0.072972"
"-7.4065","-7.7068","-5.794","0.75383","0.69375","-1.8831","0.58194","0.52368","-0.060147"
"-5.8917","-6.8261","-5.4821","0.53287","0.90966","-1.9117","0.55976","0.5662","-0.044463"
"-4.8186","-5.9215","-4.9685","0.42084","0.96842","-1.7614","0.52861","0.60978","-0.024326"
"-3.4745","-4.5947","-3.8067","0.22273","1.0051","-1.4004","0.4997","0.64588","-0.002131"
"-2.0481","-3.5686","-2.226","-0.006607","0.81668","-0.99115","0.47224","0.6766","0.024308"
"-1.5384","-3.8428","-1.3889","0.25353","0.52759","-0.61586","0.45416","0.6927","0.037176"
"-1.7123","-4.6931","-1.5211","0.25928","0.14565","-0.18959","0.44641","0.69985","0.035607"
"-1.8104","-4.8852","-1.9865","-0.038823","-0.15811","0.17096","0.44702","0.69909","0.032998"
"-1.4198","-4.1544","-2.1572","-0.4469","-0.38307","0.46873","0.45496","0.69063","0.034993"
"-1.9898","-4.3446","-2.5558","-0.64094","-0.56435","0.83367","0.47219","0.67221","0.03192"
"-2.995","-4.9055","-3.1719","-0.57198","-0.70361","1.1831","0.49322","0.64887","0.025622"
"-4.5545","-5.3286","-3.9763","-0.55565","-0.82264","1.5592","0.51793","0.62018","0.021524"
"-5.9188","-5.3557","-5.0827","-0.55087","-0.8132","1.8231","0.54813","0.57642","0.006514"
"-7.0375","-6.6261","-5.5906","-0.62289","-0.69487","1.9087","0.57566","0.52858","-0.00943"
"-7.9152","-7.3088","-5.7119","-0.69426","-0.56789","1.8079","0.59825","0.47744","-0.028377"
"-7.8854","-7.1729","-6.1742","-0.96429","-0.34028","1.6799","0.61212","0.43623","-0.038008"
"-7.7964","-7.3804","-6.7708","-1.2355","-0.077143","1.4489","0.61958","0.40653","-0.035503"
"-8.0223","-7.7204","-7.5077","-1.5399","0.044369","1.0417","0.62465","0.38132","-0.024964"
"-7.7828","-7.4878","-8.1305","-1.0935","0.04931","0.54487","0.62698","0.3667","-0.013783"
"-7.6696","-6.8978","-8.2316","-0.61657","-0.040533","0.22826","0.62835","0.36234","-0.006787"
"-7.1735","-6.23","-7.6089","-0.082846","-0.088555","-0.017824","0.62919","0.35946","-0.006707"
"-7.4491","-5.7837","-6.686","0.38433","-0.1358","-0.22358","0.62885","0.3583","-0.009735"
"-7.7651","-6.5662","-6.8129","0.92155","-0.26594","-0.468","0.62925","0.36482","-0.021208"
"-8.1404","-7.1703","-6.5669","1.1332","-0.34879","-0.79449","0.62871","0.37504","-0.037536"
"-7.9154","-6.917","-6.682","1.0129","-0.061342","-1.1759","0.62604","0.39715","-0.052038"
"-8.3499","-7.095","-6.4806","0.96222","0.14653","-1.5251","0.61943","0.42768","-0.057307"
"-7.8104","-6.8955","-6.5606","0.78507","0.54221","-1.8135","0.6066","0.46502","-0.053914"
"-7.7961","-7.5919","-6.0841","0.71578","0.62423","-1.9521","0.58661","0.51085","-0.040335"
"-6.4174","-7.0891","-6.4778","0.76442","0.73293","-1.9738","0.55996","0.55993","-0.0302"
"-5.2616","-6.2083","-5.6939","0.58525","0.93809","-1.9689","0.52387","0.61106","-0.011155"
"-3.5946","-4.5027","-4.3314","0.29294","0.91933","-1.6652","0.48775","0.65435","0.006185"
"-2.4377","-3.1453","-3.1279","0.029294","0.90349","-1.1434","0.46021","0.68209","0.02739"
"-1.3518","-3.8713","-2.0357","0.26473","0.66048","-0.86835","0.43835","0.70244","0.045477"
"-1.3747","-4.1251","-2.0667","0.50157","0.16496","-0.33857","0.42285","0.71344","0.043722"
"-0.68312","-3.2433","-0.947","-0.010339","0.070569","0.23698","0.42137","0.71317","0.043283"
"-0.98519","-4.1571","-1.9556","-0.32318","-0.3113","0.54469","0.43192","0.70542","0.041385"
"-1.698","-4.5551","-2.5664","-0.50997","-0.40603","0.93106","0.44853","0.69158","0.03966"
"-3.0253","-5.0245","-3.2624","-0.5974","-0.62822","1.2804","0.47458","0.66602","0.038189"
"-4.3458","-5.882","-4.0789","-0.5548","-0.78831","1.5747","0.50715","0.63115","0.029963"
"-5.6651","-6.0449","-4.8636","-0.49385","-0.77601","1.7507","0.53975","0.58557","0.016782"
"-6.677","-6.1655","-5.3591","-0.51514","-0.68395","1.8152","0.56737","0.5397","0.00054"
"-7.4569","-6.5644","-5.5975","-0.70639","-0.58369","1.833","0.58856","0.49899","-0.014021"
"-7.7802","-6.9115","-6.3061","-0.80438","-0.43846","1.7149","0.60411","0.45545","-0.024612"
"-8.0208","-7.0347","-7.0725","-1.176","-0.17294","1.5703","0.61565","0.41784","-0.02923"
"-7.902","-7.4295","-7.5497","-1.3846","0.043977","1.1715","0.6209","0.38424","-0.017737"
"-7.9179","-7.6667","-8.0511","-1.1264","0.048009","0.70511","0.62654","0.36822","-0.006953"
"-7.4076","-6.9434","-8.3693","-0.68561","0.004491","0.34258","0.62824","0.35915","-0.001577"
"-7.3162","-6.4533","-7.6418","-0.1464","-0.093099","0.076441","0.62719","0.35532","-0.000351"
"-7.2699","-6.0378","-6.8928","0.39621","-0.11113","-0.15659","0.62875","0.35694","-0.004031"
"-7.5776","-6.5153","-6.6378","0.90035","-0.055259","-0.45668","0.62712","0.36329","-0.012526"
"-7.6761","-7.0219","-6.9173","1.1311","-0.16104","-0.72291","0.62682","0.37386","-0.023831"
"-7.4511","-6.8433","-7.0176","1.1156","0.083466","-1.1193","0.62397","0.38965","-0.034522"
"-7.6303","-6.7547","-6.4675","0.87551","0.24795","-1.3599","0.62114","0.41572","-0.03602"
"-7.3311","-6.9347","-6.6647","0.84525","0.34935","-1.5637","0.61095","0.45072","-0.031442"
"-6.9123","-7.31","-6.7109","0.86849","0.5518","-1.6983","0.59387","0.4973","-0.02492"
"-6.3726","-7.224","-6.4102","0.85135","0.70587","-1.7336","0.57224","0.53962","-0.016218"
"-5.5925","-6.8257","-5.9851","0.76819","0.81524","-1.7041","0.54996","0.57877","-0.006025"
"-4.6768","-5.9201","-5.5637","0.64206","0.91584","-1.5679","0.52104","0.61849","0.007647"
"-3.8191","-4.6005","-3.8275","0.46781","0.909","-1.3264","0.49092","0.65123","0.023523"
"-2.2574","-3.3211","-2.2288","0.22008","0.65981","-0.90584","0.46447","0.6806","0.03839"
"-1.4256","-3.4845","-1.4607","0.29014","0.43066","-0.54068","0.44787","0.69558","0.045776"
"-1.2549","-4.4714","-1.4381","0.41683","0.059374","-0.17991","0.44","0.70366","0.042865"
"-1.1358","-4.9126","-1.4746","0.14005","-0.19269","0.2116","0.44104","0.70297","0.031546"
"-1.5264","-5.1623","-2.1766","-0.20325","-0.43968","0.4588","0.44882","0.69367","0.024037"
"-2.0367","-5.3143","-2.8879","-0.63868","-0.46583","0.82895","0.46624","0.6779","0.018542"
"-2.6584","-5.1608","-3.2342","-0.77608","-0.60877","1.2175","0.48924","0.65345","0.022768"
"-3.8048","-5.1088","-3.739","-0.54417","-0.86027","1.5685","0.51611","0.62423","0.020994"
"-5.3572","-5.6208","-4.8124","-0.4478","-0.63822","1.7803","0.54477","0.58296","0.005229"
"-6.8958","-6.8801","-5.7682","-0.59952","-0.43802","1.8452","0.57254","0.53626","-0.005442"
"-7.6532","-7.3467","-5.9167","-0.84929","-0.33963","1.7826","0.59998","0.48127","-0.013064"
"-7.7195","-6.7717","-5.7594","-0.89603","-0.34831","1.6289","0.61588","0.43938","-0.016803"
"-7.9899","-6.9783","-6.1455","-0.9307","-0.2523","1.4163","0.62039","0.4064","-0.018956"
"-8.1559","-7.2888","-6.8588","-1.2635","-0.07317","1.1163","0.62554","0.38048","-0.016594"
"-7.8564","-7.094","-7.4136","-1.3056","-0.094803","0.76877","0.62784","0.3634","-0.009862"
"-7.8115","-7.0038","-7.6367","-0.96687","-0.24528","0.44672","0.62667","0.35552","-0.009225"
"-7.7961","-6.8253","-7.4417","-0.49097","-0.46193","0.23968","0.62971","0.35059","-0.011944"
"-7.4044","-5.7979","-6.9542","0.10374","-0.46315","0.034484","0.63424","0.34703","-0.01953"
"-7.3744","-5.8582","-6.8343","0.7693","-0.35654","-0.30744","0.63542","0.35005","-0.035406"
"-7.6895","-6.4864","-6.2138","1.2131","-0.2693","-0.68313","0.63478","0.357","-0.051941"
"-7.7947","-6.8155","-5.9625","1.1415","-0.17337","-0.97621","0.63026","0.37337","-0.072739"
"-7.9144","-6.4698","-6.3969","0.85723","0.037182","-1.193","0.62643","0.39396","-0.077999"
"-7.825","-6.9344","-6.1053","0.83964","0.31122","-1.5041","0.62155","0.42208","-0.076297"
"-7.3758","-7.2513","-5.8072","0.68735","0.55176","-1.6705","0.60703","0.45937","-0.068993"
"-7.062","-7.5956","-6.0269","0.67445","0.65566","-1.7549","0.59135","0.50148","-0.058643"
"-6.2676","-7.315","-6.1621","0.6445","0.78309","-1.7743","0.56916","0.54675","-0.042481"
"-5.0513","-6.114","-5.1672","0.44454","0.87603","-1.7303","0.54119","0.58973","-0.026197"
"-4.0605","-5.2243","-4.5728","0.22749","1.0286","-1.4018","0.51695","0.62576","-0.005304"
"-3.205","-4.8132","-3.6309","0.056273","0.95637","-1.1165","0.49258","0.65336","0.02129"
"-2.4851","-4.8801","-2.5507","0.19641","0.69988","-0.8746","0.47082","0.67357","0.040572"
"-2.2604","-5.0914","-2.2411","0.5142","0.26698","-0.44874","0.45531","0.68846","0.044824"
"-1.6002","-4.5721","-2.1016","0.24023","0.064494","-0.12321","0.45023","0.69369","0.039675"
"-1.3456","-4.588","-2.1571","-0.12104","-0.11286","0.12601","0.45029","0.69517","0.035421"
"-1.4655","-4.6099","-2.1368","-0.32523","-0.30853","0.49791","0.45712","0.68867","0.037081"
"-2.1561","-5.1724","-2.7102","-0.41108","-0.5103","0.80282","0.47193","0.67389","0.034127"
"-3.1456","-5.3829","-3.1459","-0.51357","-0.65123","1.1463","0.49543","0.64665","0.028245"
"-4.1651","-5.3903","-3.955","-0.48118","-0.80069","1.3971","0.52276","0.61462","0.017816"
"-5.4095","-5.636","-4.664","-0.55418","-0.75143","1.6089","0.54499","0.58231","0.004455"
"-6.7146","-6.4503","-5.0318","-0.65066","-0.64749","1.6946","0.56973","0.53992","-0.008771"
"-7.4498","-6.9236","-5.4041","-0.60395","-0.62147","1.7203","0.58964","0.49672","-0.023062"
"-7.7646","-6.6808","-6.0737","-0.72108","-0.46525","1.6177","0.60651","0.45139","-0.039525"
"-7.7058","-6.9927","-6.6786","-1.1206","-0.1982","1.4694","0.61519","0.41821","-0.042731"
"-7.8492","-7.4238","-7.1155","-1.4026","-0.055496","1.1329","0.62132","0.39463","-0.037341"
"-7.4526","-7.409","-7.5869","-1.3343","0.083501","0.73368","0.62471","0.37727","-0.026737"
