"AccX","AccY","AccZ","GyroX","GyroY","GyroZ","MagX","MagY","MagZ"
"0.001619897623541426","0.02972472029910022","0.03214642030171887","-0.014972988701323672","-0.11749980062507251","0.21747079713551118","0.9486748336793716","-0.38752531005673657","0.07572087939157657"
"0.0007735794297229968","-0.020727861664709253","0.02199467327575442","0.07186317416885116","-0.1463988625649986","0.28470032671835727","0.9334611850305858","-0.4247813949788678","0.05480126744220506"
"-0.018316239488181188","-0.04693574059761045","0.0013983264665715777","0.06617139853702189","0.04269314445873809","0.4666680593052392","0.8835292099781605","-0.4992671794938651","0.06096764993321902"
"-0.020752172400991864","-0.016138808154124756","0.017958757491370384","0.10533605224182822","0.06782994342809989","0.3518036583538239","0.8148448804557124","-0.5708637704543489","0.09557489860727698"
"-0.003527334531354217","-0.01868262708744785","0.04085971919349875","0.01730415436916151","0.07003177671876093","0.3746891707343826","0.7339283315984346","-0.6437400498841833","0.12028128718842143"
"0.0065254621258222355","-0.02263183067441984","0.013261134912739779","-0.08965443787869663","0.046476947102797976","0.4549947491726318","0.6406959719302351","-0.721405266575609","0.11529653590361026"
"0.005593453011355536","-0.02348981125380934","0.01182842817957895","-0.12719685850846368","0.10875292977267928","0.4569119872193594","0.542253076918953","-0.7935559494506571","0.10766414623145673"
"0.004775056578197786","-0.019812751627854355","0.002334711799004144","-0.1057853074171438","0.09726271061130579","0.3656126260574696","0.4307420478119194","-0.8638332739478924","0.08446625779322398"
"0.014280971854158251","-0.00940168704284113","-0.003475049071454728","-0.08421297714271911","0.09094440638593063","0.3227781304565298","0.32583474531617185","-0.9174218776850371","0.0620250709434724"
"0.015517231877892996","0.006997479530213875","0.015908375140159418","-0.09805442813372209","0.14717492069471438","0.2174853584371319","0.22964882015938015","-0.9709445180990195","0.024404090672958113"
"0.014128846399524218","0.02177126110250776","0.062140077520329726","-0.09140086565206237","0.05997514249337215","0.20069375078484283","0.1634443710943343","-1.000693976845268","-0.0006095547086927617"
"0.01269135713516597","0.03054530705178509","0.034792008327405054","-0.05379971729673013","0.012231259541853681","0.1652709577088475","0.11557431911885112","-1.0169209543432216","-0.014132122620341189"
"0.01049805469430322","0.05789058154695202","-0.010600169046956173","-0.01940067410910156","0.13434206188544862","0.19644185071159376","0.05129247400392708","-1.0397442641574168","-0.01849418858072186"
"0.007243725348334796","0.05376271856572459","0.02025325264869853","-0.03328256058328057","0.09311991340898594","0.15096447886649397","-0.0077231081171869765","-1.0609712615510816","-0.011057920270593706"
"0.00987318494710396","0.04443399752032862","0.0169785888130014","0.004647366760256977","0.0626317022244958","0.1596988329553202","-0.0637572609243445","-1.0826995802007806","-0.020618836669329902"
"0.01767683564209632","0.03783606454177889","0.022596487757163438","0.036003639838887505","0.04680722209639714","0.0858924488071173","-0.10588736487482808","-1.0962748321076052","0.002453207228269913"
"0.022742228153676176","0.028303754884324395","0.010131472431674523","0.0012170899374884176","0.06868435047675857","-0.03222397617292461","-0.1174787162262837","-1.0971587406379817","0.0294297005748579"
"0.013270974373708277","0.01526161910367728","-0.029598423729459877","-0.03199343886964401","0.08292446795440331","-0.14977251038975858","-0.08560250000978059","-1.0855623884260293","0.030665265155617655"
"-0.05665570533328855","0.14334897889333462","0.10623321128176622","-0.1637909707827923","0.01593871600985695","0.02307984738255505","-0.04667673597616576","-1.075773431268727","-0.008308952512871606"
"-0.00463457676444997","0.01984028544017716","0.05296829264751758","-0.13389759572049545","-0.15726682449205487","-0.11928357167958255","-0.04795847194291332","-1.0779897989269842","-0.11081014803074139"
"0.019618842237012983","-0.045492962117256924","-0.015251116926616827","0.07188724290883691","-0.09448585614355456","-0.1977641336480353","0.018218113296768264","-1.0524619928631302","-0.1428531098963178"
"0.022608396266371553","-0.027935521762026096","-0.0991292684295199","0.06277096695183565","0.10493083437573834","-0.2657168745447104","0.067369901238999","-1.0349949048897231","-0.10992923624631083"
"-0.011518734996306285","0.021144914505205257","0.0111494765297395","0.08903285052508313","0.07327469422837582","-0.32898573008672166","0.1795217983294065","-0.9904300837611966","-0.061858256069212046"
"-0.0026222843582150556","0.016609874299860772","0.03787956031678901","0.10001204695698113","0.02847935324869908","-0.33874180217260147","0.28562724531580946","-0.9394800129505482","-0.006261118624390154"
"0.010759941552913703","0.029113954462924647","-0.02942700779961448","0.014593051497167048","-0.0008959748051852139","-0.2738469346162768","0.39354384095087747","-0.8876988042680536","0.05437960651385053"
"0.010945765684207163","0.004049402168691506","-0.03618244763725657","-0.02956923537827964","0.03401265604001247","-0.2326190359608227","0.46774520789541274","-0.8512606645531363","0.0462634508153678"
"-0.003142206798103506","-0.0032574658283075343","0.0025775854538212365","0.05524130233469479","0.04508165491969431","-0.2552327373777947","0.5179558212014785","-0.8154689654052107","0.036883946676505054"
"0.0013965235382560092","0.005680074241061696","-0.016147436367013237","0.14710012986509513","0.005560901319678274","-0.23147597378359647","0.5757453950065728","-0.7742418884287022","0.08684096061841437"
"0.0024931747586873928","0.014661240441586324","-0.02541422283949874","0.10548046468174269","-0.016652006637508977","-0.23138860597387217","0.6267640592481969","-0.7271044976968416","0.12743971690234698"
"0.0005617591764351083","0.0019186707615396078","-0.006879410743227649","0.0690779395777006","-0.0009105739172211182","-0.21612836187536172","0.68550100311567","-0.6791623544223995","0.17218807433779948"
"0.002014653550123382","-0.0004968665718384488","-0.0034031782960496693","0.04108695772387712","-0.02527074799221389","-0.20775075967624307","0.7276868347168814","-0.6391885805859767","0.18444565946438438"
"0.001117305931649251","-0.007748048928569849","-0.0015671691197537902","0.029732288948201457","-0.034490685567151465","-0.20014247957941894","0.7636033056111757","-0.6010090091395719","0.175097207874509"
"0.004078938200347157","-0.011620387427315663","-0.005923818565643731","0.02838540225859909","-0.011761304105480904","-0.17901888469496682","0.7972070790002521","-0.5655207412781934","0.17964068609476314"
"-0.005934382864171105","-0.0194710136004704","0.0034216540143973077","0.046031639666548836","-0.015089901649667174","-0.22017883060952426","0.8308944438654203","-0.5252171508259588","0.1879268136403345"
"-0.0008699531719243748","-0.000486271654272137","-0.014373384755721723","0.04478776718408546","-0.0404404220460464","-0.23955506929949044","0.873080275466632","-0.4740559973811907","0.1943334447998295"
"-0.00216013107831423","0.02770753109186729","-0.016812447564726708","0.010958671759319364","-0.03333950968366456","-0.21410676783368562","0.9020586538452714","-0.4294120202648692","0.18998608794160074"
"-0.009342763303439828","0.0021413717739138306","0.015312549890034152","0.04118226993422067","-0.005305385299439444","-0.18102349055141873","0.923820301454615","-0.39083666887948976","0.19274813045679123"
"-0.01625580611528991","0.0015152329200930216","0.002621988375407696","0.10614476190534929","-0.04079702330725128","-0.13201257617969187","0.9482847401242744","-0.35296052871963185","0.20162262208843867"
"-0.01995303235449667","0.02253160224550184","0.0011779640603727366","0.0928443761892259","-0.08322060690535728","-0.06839910316599024","0.9576469854466039","-0.3238443178757425","0.19887692302008367"
"-0.01698754880846625","0.04087119680930444","0.027293077709710636","0.06638512894809531","-0.09359076304495975","0.09180433726512802","0.9575355301451475","-0.32460949242442655","0.19137528092261372"
"-0.005472229584270262","0.06586377637430527","0.0178201790709773","0.021008814827767577","-0.1394032552730397","0.26310106264762845","0.946668638253158","-0.35809247526166765","0.16993267867450787"
"0.006515833932490973","-0.005576298570957792","0.013843536023780767","0.06116221237118837","-0.15821457012586113","0.31081359429150807","0.9369998908518236","-0.40393698485954505","0.13835713938842523"
"-0.019606417394571026","-0.040030347266156","-0.02609369080237989","0.03188595980212603","0.09635325773038057","0.5295728823067326","0.8728573648637196","-0.48596897354432267","0.1414623942871601"
"-0.0239776171669665","-0.004295560006324316","0.009428109501223357","0.08129330649526656","0.17247446386382068","0.41810611840015105","0.7889593866924852","-0.5729218261370161","0.18694620683020774"
"-0.01900946940803243","-0.014841450110955891","0.034608200884558786","-0.0005065206703708447","0.09179881343458932","0.43718142352328915","0.6933307380429753","-0.6553627874254007","0.22169237480236695"
"-0.0005743676366544487","-0.0229299425706484","0.02922284933437978","-0.08001827713800326","0.03542948789661174","0.5450806685327952","0.5801200155887328","-0.748568963053891","0.2124746707871751"
"0.012019309240643506","-0.027527305820500593","0.018775771248561217","-0.10685395947251092","0.0825343605344275","0.5278012572762121","0.450358180868229","-0.8294795752449075","0.207784101545402"
"0.01537377179725712","-0.0222163437110351","0.01890877348810391","-0.10840398632759297","0.08203176815286356","0.44730152814968677","0.3119306964594976","-0.9106276553993086","0.179526281966915"
"0.027468708259995415","-0.02821493674490234","0.007049062920185926","-0.08221045797590501","0.109932825220827","0.29435932346009896","0.18824317566836235","-0.9705355454954127","0.15264131192260552"
"0.028654901678407573","-0.006934733197744212","0.0011670182238886324","-0.04952703457446044","0.2192634212903677","0.12112594496204328","0.10412228689421586","-1.0144671187215801","0.1326042461023481"
"0.021406797738629364","0.03879480070978918","0.01872703129742445","-0.012929071301734098","0.26264911030461036","0.09297894892919911","0.056698056124557736","-1.0266703335066265","0.1551091723947579"
"-0.007831136950430804","0.08803519945792365","0.06275345741387289","-0.07171745009171908","0.07030461258303848","0.1826887013308274","0.00849363824470531","-1.0383854197002713","0.1773852904314715"
"0.005631002965347478","0.08272008247882433","-0.012413460449417123","-0.02962892585344429","0.04443307141777132","0.10705487382922467","-0.04480985967677248","-1.0580820679965677","0.15435737384032738"
"0.004069310007015878","0.038567321597336036","-0.057312042555910284","-0.05321051454187906","0.036865466129651546","0.04208962664839989","-0.0645374480345385","-1.0665913366845192","0.14615296352893326"
"-0.039344213723669495","0.036326808147283805","0.14299883035535366","-0.20589201076585967","-0.3316065484683626","-0.09317515787363864","-0.04425258316949101","-1.075852587256522","0.05507256865967345"
"-0.002198643851639296","-0.03086158870166316","0.019874485401305205","-0.09341686331326848","0.01779806849193799","-0.14378538854004083","-0.015608570695220595","-1.067382896562468","-0.04790748985047492"
"-0.011056581716405441","-0.08376450503203418","-0.026715331704590308","0.10920630563153622","0.09973737976624437","-0.24814623725571294","0.06293955300611091","-1.0375674744930572","-0.022356145067937868"
"0.007160922885685901","-0.00280655860129424","-0.042991584031235784","0.10730968892065941","0.05857027712204821","-0.42904614105707567","0.17534222452479492","-0.9853245225484257","0.05506766562562283"
"-0.009063545696833052","0.04748471054898111","0.00933940692065878","0.022384584005352835","0.006237007737734515","-0.3747567548478392","0.2981381029042797","-0.9258256050559286","0.0740129891972724"
"0.004909851284835543","0.009572252242309133","-0.007947972214336185","0.037619133666730795","0.025645689535500532","-0.2797199929366323","0.39691536381993053","-0.8778174984583241","0.1194314279529782"
"0.0021369316054304856","0.01503933357826644","-0.02093882139401711","0.03947627764403098","-0.006153569775754955","-0.29898944874804656","0.4774696829474754","-0.8302183644643264","0.1385205738567797"
"0.0011529302469749435","0.01437351571944239","-0.0025430007685724666","0.0325849160113121","0.014723878424705275","-0.3345918312106974","0.5572438149648262","-0.7811680373607557","0.13572584444791838"
"-1.490133444030541e-06","-0.000422909892355963","-0.005659259763075114","0.06040067743803936","0.01719017103995114","-0.29974178266511686","0.6257052338843618","-0.7251783686604991","0.15677620397197345"
"0.0021147867607685705","-0.020210580395295247","0.0008266646667980116","0.04586508398584747","-0.03253536187316227","-0.34109587926795054","0.6978725415773198","-0.6664578183813186","0.17331577216944533"
"0.0023054249887276687","-0.0005787175036252422","-0.0009116580820076577","0.039250994237764396","-0.06243242868505102","-0.35619109528142623","0.7688417047796224","-0.5934100343112618","0.18397169950615644"
"-0.002362323138270839","0.0116524915962357","-0.01198388799872022","0.0034162025725060835","-0.04958521009345489","-0.2901070547594098","0.8287489293123869","-0.531404510538593","0.18101353562894062"
"-0.0010625170385497218","0.010783085125353123","-0.0032501431104889006","-0.004363295565686827","-0.025935366584405813","-0.22055742445166288","0.8692072037410254","-0.49100857143393095","0.16241469313020251"
"-0.012125311176176129","0.01010012842928945","0.0027814258426855833","0.028799384586353928","-0.01073912693326207","-0.22471710294798078","0.9023651559242765","-0.4472221175187209","0.16442493709096243"
"-0.004875281597731662","0.014626962767107083","0.012999260937988016","0.04813909853970078","-0.016354041154153218","-0.2178781449534511","0.9274704625773091","-0.4031454249815961","0.16913184977957102"
"-0.010084134189947427","0.00503887398481819","0.0062886370723657424","0.09777846788630389","-0.025687899668911954","-0.15545141802183784","0.941263056132527","-0.3615489533953781","0.18209220312008012"
"-0.0233806691804279","0.017076258416260152","-0.004225561708874215","0.08480156603558894","-0.044824942250927945","-0.0827152895427576","0.9577027130973321","-0.3318258799783946","0.18493596286944775"
"-0.019125007728007643","0.038196499482515155","0.03526288582143819","0.042192194264022584","-0.05578624276313178","0.07150345592224636","0.9688482432429627","-0.3209947023151263","0.18333430507957402"
"-0.0028148482248404197","0.048921256724883865","0.005577364226115686","0.006293379750402192","-0.11961786851880622","0.2312457884687086","0.9526593607064343","-0.35116632632961425","0.16215319798083536"
"-0.0016690932184195834","-0.004716136685010525","0.03269990788242449","0.04743244033371927","-0.18842276555490853","0.269071196312122","0.9382537629932072","-0.40028261675634735","0.12567462464411877"
"-0.017074202548447662","-0.04050296368700615","-0.018392365472337895","0.04833164845958675","0.034309424874840684","0.4816176623025077","0.8845601715166316","-0.48495313836762144","0.1213599546795609"
"-0.021801645474100025","-0.010031149792369017","0.00039358128741753394","0.07033143955615828","0.06122444355611678","0.38216397223301685","0.8102752130960038","-0.5634890709247911","0.14729700480741448"
"-0.009824172970003195","-0.01532549242329912","0.024005402785362596","0.0012257546838832863","0.050361268223170656","0.39318202379269207","0.7455196829498905","-0.6220645018930143","0.17426369208590123"
"0.0005607963571019838","-0.02304939507262151","0.014244401469358977","-0.08094636775185363","0.026942856539346492","0.47562325980197956","0.6504204469822975","-0.7047561238094159","0.16695817135045662"
"0.010331486949672305","-0.024072531719956443","0.002273580334866509","-0.12463594457398028","0.1002758716036343","0.48853428057234777","0.5289898960456526","-0.7922366829874088","0.14396294165298343"
"0.006718025992447582","-0.020811997774794665","-5.808936146425323e-05","-0.110887880294122","0.08718693000947646","0.4407004047482955","0.38953145009845014","-0.8795853155190767","0.12547850328209342"
"0.016967237793581898","-0.02732683336066745","0.0075240709185526895","-0.08297873215625005","0.05660298694278367","0.3785721844999069","0.2688532224466354","-0.943107995724481","0.09743805154651788"
"0.026576174738186905","-0.022296324951486663","0.005448492490906616","-0.057806681129557155","0.13763284533616485","0.22433645084967885","0.17545367982625132","-0.9889393126577259","0.07715746836841232"
"0.025911829398329447","-0.0025289094380123844","0.011574133680279387","-0.006696422944945128","0.16291084883177556","0.1087706805368657","0.11699537421241904","-1.0076465111065864","0.09397487516208676"
"0.01175453392403365","0.039943622163548","0.007928653818031163","-0.02426159683662287","0.21222952124552766","0.09391087223292495","0.08185909042831868","-1.0197573772392057","0.11598296067069902"
"0.0004000055284698142","0.07048606884196054","0.01682390142570718","-0.046279680175583565","0.17496588609814476","0.1128624062922869","0.035437957371767685","-1.033873528395962","0.1360200264909564"
"-0.0030266684781283084","0.10193427710055182","-0.018869438722871473","-0.028897236157877607","0.09194241125789329","0.11134075027292209","-0.012181320175439018","-1.050377551851198","0.13708235053526044"
"0.009687360815810502","0.049916348002190324","0.0022407428254141975","-0.034149997972366876","0.023082468389524474","0.05064439135057058","-0.04054669439606901","-1.0640055744165526","0.1261649280491822"
"-0.04905906079491847","0.01345456242817618","0.03635127371334812","-0.15373023746875036","0.02200548471474462","-0.05270687378606522","-0.04143833680771942","-1.0688077043427764","0.09428376630727668"
"0.007891702759529098","0.04714297252159715","0.058406101602733615","-0.2180804206946416","-0.22112716981239008","-0.02904475865240159","-0.031100857597647098","-1.0699950441596997","-0.06789225664085889"
"0.008877629756650907","-0.08123938301206339","-0.0016935625523626858","0.025982379258422183","0.1132810478008648","-0.20759301224201865","0.025128341987059315","-1.0477126335954365","-0.11039829317048815"
"0.0005444284284388329","-0.03328076154597083","-0.04662023208832449","0.09856792255783636","0.033694347531688644","-0.2619066672872896","0.1035650103869344","-1.0231742773790187","-0.055883091906172806"
"-0.0039028340712736484","0.00723067158841356","0.013676870173919038","0.03280249742078325","0.05416421724367108","-0.36689365197265256","0.2028716839845024","-0.9817097324391255","-0.017103361255025366"
"0.0003422363684822067","0.021276831616079912","0.009801197305157947","0.027959866935651098","0.009289179472060621","-0.31874428128015136","0.30393377858000753","-0.9330947632684267","-0.003708272228693409"
"0.005106266428793405","0.008838294521489981","-0.02900776160975164","0.012750348763858315","0.021924112614872367","-0.27078906127592645","0.38805466735415434","-0.8906407684810973","0.010502354794727322"
"0.006008428143933176","0.0023613721210260525","-0.02120936942786948","0.03543465482562447","0.031095226929886588","-0.2996447073209788","0.48298672036956275","-0.8360759075611488","0.04621115178549436"
"0.0002517313511682974","0.00828683944933758","0.0013045640181983135","0.06168787365247708","0.018867872275552647","-0.3135992880408317","0.5606989293099714","-0.7833448270251154","0.07001047906727156"
"0.0010614624103278925","0.0005388385561388728","-0.016459289444201854","0.04215657252884368","-0.017745264732263278","-0.30964346776720386","0.6279064760881238","-0.7381599506588621","0.07876076050296961"
"0.0034598453691466425","-0.0011989356682178193","6.892364679468532e-05","0.02287654905066149","-0.016447140409595298","-0.31905977614860026","0.6954205249452808","-0.684043640336418","0.07958120153410903"
"-0.0007341956459534938","0.018259357544498207","-0.002013057062568506","0.030790350757974864","-0.023964007800147666","-0.2598923538964239","0.7547983367961275","-0.6303890732761108","0.08684749799714853"
"-0.001534298511781827","0.01780336060218345","-0.009172873274472389","-0.006340205593156083","-0.012844031693192917","-0.18959767032241703","0.8070987370044994","-0.5810748928798904","0.09810322983272055"
"0.0002093673005107163","-0.012895932404906829","0.00026408997655842084","0.02758728284067175","0.020308637102702587","-0.18350376559414736","0.8356591580026776","-0.5472620934268373","0.10460792167322824"
"0.0030910855645590995","-0.014283658862611874","-0.0008482548404865307","0.06938216845112044","-0.005171839323766741","-0.23829308982569505","0.8631050259862927","-0.511998100864211","0.10689600423019077"
"0.003924887107046876","0.01583810726537361","-0.02675044099142611","0.08602714627566313","-0.008149340189974779","-0.17800687423232703","0.8941174636165096","-0.46532245339448713","0.12260205663905485"
"-0.018325867681512432","-0.011769962734134172","0.01975800517909701","0.04283338549724287","-0.016792493174641373","-0.18180252018812704","0.9186097661115332","-0.42924051562464693","0.13647764300234888"
"0.0003797863224741652","0.01263896151905193","0.006103383953002706","0.03866275423251275","-0.024134171220762883","-0.13015358333944713","0.9405943243237894","-0.39190527471472086","0.1419526976922235"
"-0.012520067102758119","-0.024958557669374413","0.00655815248013471","0.08542157677762176","-0.01675108913558872","-0.10220801864568951","0.9510153950099539","-0.36373893572437027","0.14881694536311102"
"-0.015437409682132178","-0.001144403004273572","0.009789342757720445","0.13083928913072496","-0.07331953698854782","-0.12154057343079355","0.9662569074841039","-0.33492615616702803","0.1495687439175416"
"-0.011643901509612744","0.030269008221134236","0.005702105456991131","0.06819413544542402","-0.07730437658523329","-0.010937294710320464","0.9704364812887152","-0.31699732493148397","0.14795074268083236"
"-0.006656497364016164","0.044201324820833165","0.020139663779523868","0.018114789531881448","-0.09349742445981216","0.20144123093470623","0.970380753637987","-0.33610030331931895","0.1326042461023481"
"0.006151888224569053","0.020032448160742605","0.05777000393535551","-0.014497390399205326","-0.140894279338346","0.278099203316966","0.949538612265658","-0.38384455662427386","0.11219128100487542"
"0.0009035600396951136","-0.03920352820902036","-0.007085522909475491","0.05089737614206731","-0.03231517854409616","0.40403019350012553","0.9144023284815573","-0.4460479703664299","0.09434096837120076"
"-0.018922815668051034","-0.03562203058464387","0.02737527474594975","0.0850971301626139","0.040522424029792926","0.4178876988758403","0.8517644490631134","-0.5235548750822658","0.10539240712132969"
"-0.01369470668917276","-0.014887153676928215","0.030034286910720222","0.07687909958188069","0.09583869886354131","0.3170992228244505","0.7900182120563206","-0.5790696078557531","0.15012442110994673"
"-0.0009854914918995727","-0.015732669647416167","0.013232427907621093","-0.05606795535298685","0.01863811575826628","0.4263575226518902","0.7194391424091149","-0.6491886203773987","0.15760971976058125"
"0.0062751290992092805","-0.02071435833839925","-0.010612560559957048","-0.13633335220705295","0.08244102194927991","0.475137883081289","0.6032191268155521","-0.7439911084264195","0.1528864636251372"
"-0.007070509677260662","-0.011813588865289569","-0.010742671446466205","-0.13321404350490024","0.12869627413254714","0.41257282378427895","0.4808690696418927","-0.828318620757249","0.1288125664365245"
"0.006992429502388718","-0.006602343627036416","-0.015724059672816777","-0.10348433587450645","0.11239313459343521","0.36748132643212816","0.3795283367927468","-0.8891368047129942","0.09483127177626414"
"0.012550785512529467","0.0023141104789410377","-0.022475369006125245","-0.08912011185101307","0.14384105789700696","0.30071775850114496","0.2790792463552516","-0.9427386011147716","0.07729965635588068"
"0.016191205411081728","0.016964076936146266","0.01854941961107862","-0.08118127865411452","0.16990406282667944","0.27465302860006324","0.18453728689494034","-0.9856279538349727","0.07447550874271554"
"0.012757791669151716","0.01699212230617474","0.03528766884743994","-0.06328472635031301","0.12479998652689911","0.24693801784863362","0.0799364864781975","-1.0216703136109155","0.07032100455714504"
"0.014594850956757577","0.017523945619307212","0.008254509304910762","-0.01666550249712135","0.13133129419017517","0.20501603048259207","0.004091153837181476","-1.0544672778872675","0.07234268893068978"
"0.0157367546858459","0.040045416469577266","-0.032644670675507595","-0.02052420289163619","0.22714215519564607","0.15502222825146686","-0.06264270790978127","-1.0771586610551378","0.08103576830246377"
"0.012283121737920238","0.045437398536902776","-0.010651800351126471","0.017726801443311214","0.20913020155921674","0.08920029115862331","-0.11352205302458492","-1.0883460406634833","0.11928433693145922"
"0.009392738099873716","0.05378660906611921","0.012909422468731694","-0.045054099935509365","0.0785303745613015","0.04677836577027046","-0.14470167360698635","-1.0982933097963752","0.12889428367070174"
"0.02114009678335325","0.03449347192134862","-0.04789242742308069","-0.08897666216069802","0.04912872023981149","-0.08762972883974927","-0.1397976403429091","-1.094955565644357","0.10921677368082416"
