"AccX","AccY","AccZ","GyroX","GyroY","GyroZ","MagX","MagY","MagZ"
"0.010242907571024643","-0.02817338804856387","0.0030711807216893083","0.01982463282046886","-0.019391374446737913","0.3080712158196066","0.312822338871148","-0.9208915484833802","0.1256909680909542"
"0.00756626982493226","-0.0260917983620063","-0.026013145967874223","-0.03452354481694565","0.045550741142487305","0.1903406653325137","0.24157453741520438","-0.9551397058693053","0.12305967315044736"
"0.003625450294444452","-0.011499896207934087","-0.01836551719416934","-0.06792036567156776","-0.041194310618392294","0.15706566424557403","0.19571068086593485","-0.9742822622510376","0.09034499561993409"
"-0.015167820268856682","-0.04177019892532962","-0.0010072792573310543","-0.08622031005753035","-0.07241965729584288","0.057116889920978874","0.15962702701945589","-0.9929894606998981","0.0464579378327096"
"-0.016515767335234147","-0.07184210661770894","-0.014482843120562755","-0.03788931741655241","-0.1903804825459528","-0.05149828575154578","0.15522454261193175","-1.0018021606743965","0.002299578828016721"
"-0.010681082176485994","-0.06065615884598316","0.09345549612570028","-0.1322031564254989","-0.21674264960750855","-0.17188142001721246","0.19813483367260962","-0.9855883758410753","-0.06086294015693336"
"-0.018691739028100604","0.004324267569318684","0.0031223989754262456","-0.006877131044758111","0.012614905059780813","-0.5295433910760511","0.31560872140755564","-0.9332134972501189","-0.10227886878263832"
"-0.06058400821244574","0.0655604708910344","-0.02259308837963353","-0.07025310795098627","0.09947411709018708","-0.5051046731892826","0.4880858004111887","-0.8357724762746017","-0.11285307888517221"
"-0.05458564376706603","0.004976135453347094","0.04424466749490364","-0.021607296190994774","-0.06826250031119263","-0.40688869375755266","0.5956401663165235","-0.7654819591127338","-0.12883206685618825"
"-0.007349727283867437","0.0587547944307923","0.03344133341031","0.005799585480854623","-0.02386229267530735","-0.44552468072451934","0.6915753170450385","-0.7013524163342353","-0.132081144087075"
"0.016580184421664937","0.04791162340385894","0.042580074248453156","-0.034441711100994116","0.10783629700058887","-0.4604500148857533","0.7893216164222188","-0.6169853260095084","-0.12211000717276911"
"0.024066104736725456","0.03715466592182791","0.049889001666800874","0.05264669216423134","0.11951558662931264","-0.36485506974575227","0.8612381496868994","-0.5407976877569208","-0.0868277741444072"
"0.02788464621190617","0.03871066459970377","0.03646279733035597","0.14261371673175205","0.06117418431796038","-0.23502165072824086","0.8948697869013399","-0.4878159465928702","-0.04668663437186706"
"0.03891374167287315","0.04609282922164221","-0.0018162385310713206","0.15676613584337085","-0.02690848116699579","-0.0971164168456458","0.9133156392923587","-0.4565229460846212","-0.015153588047556595"
"0.029055434520988303","0.027067681168254785","-0.05209934608687676","0.047880118897454145","-0.006299321566408496","0.09786669250655282","0.926300181912018","-0.4517208161583975","0.007009760205992406"
"0.029440562254239005","-0.12284313137318625","0.04799310017766745","0.06347569965861831","0.5902436112020913","0.13005930350635259","0.8903558471923594","-0.48734101066610075","0.08751594497271831"
"-0.049078317181581","-0.1426618595266386","-0.017277129302259414","0.21426154192132155","-0.06268372487583299","-0.2497479804339917","0.9042320322236697","-0.43586323327015325","0.165944877646659"
"-0.02814662487940535","-0.13410282808091284","-0.0016640294463772754","0.09433182432034502","-0.021783714182982226","-0.28586000845336756","0.9293094750513384","-0.39252532995244754","0.15725016393020141"
"0.018865917518507854","0.15187684881680652","-0.052107607095544003","-0.19892170366598755","0.14111509255128638","-0.22513695381137805","0.9460556340951483","-0.37139068121121027","0.11931702382513008"
"0.0031806277625398846","0.08931074443551483","-0.07892490648159799","-0.07074988674429207","-0.2147203135959775","0.37971281979352967","0.9462506808726966","-0.37168091983312485","0.16527479632640563"
"-0.04905906079491847","-0.0379061701658515","-0.027820241613834736","0.03067385805644385","0.13345654197507406","0.4589991071183287","0.8845601715166316","-0.46848869290628303","0.15644933503526456"
"0.025156016221824944","0.01008402830945829","-0.000811080301483914","-0.012184865861374822","0.012783871831868496","0.3069791181980529","0.8322319074828963","-0.5311802352398408","0.1524942209010865"
"-0.009304250530114744","0.016004302050727507","-0.003879012395283158","0.03827476614394252","0.023874649714751436","0.37517454745507317","0.7433741683968564","-0.6198481342347572","0.19081960373020854"
"0.006086416509916432","0.0012584619767212497","-0.04520346910189144","0.034577807682131895","0.08589933619385079","0.39344898098907183","0.6683368866913987","-0.681418300074554","0.20425391702894555"
"0.006825861757757784","0.0035179424066519955","-0.008605961554682493","-0.0731500214956707","0.07516300560482315","0.3799797769899095","0.5957794854433439","-0.7280411768857478","0.22054833352388573"
"0.014150991244186133","-0.020130599154843686","0.006340887952186087","-0.08374219258859791","-0.03602957557355913","0.35114839978089163","0.5055285550891003","-0.7976192901574617","0.18689717648970133"
"-0.0010047478785621144","-0.01939103236001884","-0.017958662517307374","0.00967975519143675","0.00449085820635811","0.27987082834748644","0.42430550415281765","-0.8471313605231693","0.17560385472640783"
"0.012714464799161012","-0.01679008396923034","0.00831208853532148","0.02027712513220089","-0.0006655002987823246","0.2589996293577934","0.3363394074784285","-0.8983188992972021","0.18521380146565034"
"0.007200398478344091","-0.03739096633125442","0.003528634076638169","-0.05114830489990031","-0.054594380829708744","0.23149090371265735","0.26748789500379566","-0.9360235348168378","0.17495011685298997"
"0.007504649387612138","-0.06941150788190818","-0.009897776785023406","-0.00680935347295825","-0.09732191315380817","0.09090639033185054","0.2336612110118068","-0.9514985304307401","0.15347482771121326"
"-0.0022564130116269035","-0.09705697170812058","0.033100566802786016","-0.04561827120077526","-0.1487442936789636","-0.08268859382311962","0.24625566007636956","-0.9502716126199192","0.12724359554032164"
"-0.037370434090759644","-0.010826807327250802","0.06961835561635603","-0.22639857723371548","-0.12345671699513264","-0.2775357976935249","0.31337961537842945","-0.9308915882748021","0.03360218255194739"
"-0.037524485184059944","0.013261360990202274","-0.03977598640750948","-0.12983479241090148","-0.08226089478627568","-0.49563982713581717","0.42603306132539026","-0.8742290936782888","-0.07934247549377273"
"-0.055221104526929694","0.031442758892696133","-0.004534316907812608","-0.03580496453378679","0.04409800983006203","-0.4460100574452099","0.5583026403286613","-0.7975929048281966","-0.09731863266808032"
"-0.04288738886957596","0.02246304689654336","0.037511945431096476","0.022683999130775515","-0.11972317358922914","-0.4120579558329069","0.6621511174605738","-0.7239514508496782","-0.11322897816238749"
"-0.012260105882813887","0.05692353563967403","0.029860392678274655","0.111844239533974","0.011070749799852009","-0.4441413570705513","0.7518726351328998","-0.652750639828169","-0.09828453037605521"
"0.007632704358918005","0.05563137118354748","0.0015746990016173245","0.1266513283732051","0.0953624327495831","-0.4555234411707444","0.8348232432417552","-0.5690431827350663","-0.047438432926297604"
"0.01518698484663052","0.04871766811282533","-0.015001221414432574","0.035979571098901764","0.07798230953569132","-0.3162203223325606","0.888349651766146","-0.4962064812991292","0.001224180026244332"
"0.026347986556235867","0.03693653526605092","-0.00926209216807867","0.04658907168461871","-0.025059898521662544","-0.12985507665622245","0.914569511433742","-0.45840949712706625","0.018486128573842926"
"0.040322346357237596","0.021314225442784537","0.010596381346945575","0.09455614497701217","0.06726273202604915","-0.013547650714194167","0.9376128950098329","-0.43869965616613704","0.026229653684477473"
"0.034264287113204055","0.011978856605974416","0.04272051139579638","0.15157691550244395","0.1990592075514976","0.07136512355684956","0.92473980769163","-0.43881839014782936","0.08852923867651598"
"0.008480948191402667","-0.01662077303165106","0.056132258967073585","0.13467103253645576","0.0699480113218336","0.027894784451805165","0.9106964397081351","-0.442934501513164","0.14670864072133846"
"-0.004210936257874227","-0.12404804356700204","-0.05318773397878669","0.06470513089709022","0.06073621095688325","-0.17235708920348922","0.8967923908514611","-0.4357049212945635","0.18742016678843565"
"0.00839814572875377","-0.12045408133372397","0.07408343080100359","0.006834541300241713","0.07369591451006749","-0.2600622357486656","0.9238481652799793","-0.38745934673357413","0.20194949102514761"
"0.021560848831929647","0.012948499306773562","0.01295671674335169","-0.08590741643771566","0.09369669799925692","-0.15822049221337736","0.9471701871097116","-0.3429209109343125","0.21459931887578315"
"-0.03941161107698838","0.03246589554003108","0.030288106402021422","-0.0770780398613445","-0.002451139231567323","0.15520667140532926","0.9419317879412649","-0.350229647140708","0.223048880889709"
"-0.030938800945472928","-0.10932941788909746","0.12485352481774332","-0.05431575108202452","-0.07627047225744461","-0.02230554557397385","0.9405664604984252","-0.3630397244988487","0.2031752495378061"
"0.010608778917612796","0.046623613817366225","-0.09045520932890945","0.09480068337526737","0.10638835228227374","-0.06566885911210597","0.9368605717250031","-0.3613774487551559","0.2026522592390718"
"-0.038198458717248675","0.09242585794349197","-0.05480276117323368","-0.004814632577899541","0.3000563432752973","0.23113900559015668","0.9043713513504901","-0.36803974439455966","0.2764919520416191"
"0.005416294254060216","0.03602869625105525","-0.051056393742636694","-0.09769821078193304","-0.06431356017033316","0.36469041028815763","0.8692350675663897","-0.4300980388257583","0.29002432602136874"
"-0.030977313718798014","-0.01096599545998469","-0.0020322639077198553","0.058092966648206006","0.042547153338379044","0.32714652094274466","0.8274114656949108","-0.4893990663487681","0.28744206142136824"
"0.012039528446639155","0.01964604528479479","-0.018357256185502095","0.06902595109933139","0.08371904257668533","0.31498783408944675","0.7734392359646951","-0.5396895039277922","0.314228970784665"
"0.0045170209969198185","0.004785665842157442","-0.01701277702490747","0.01603525039711297","0.025478158741645888","0.3308353840199927","0.6887053430325387","-0.6133177652416782","0.33972474784796153"
"-0.0009566069119057862","0.008377000120392069","-0.01410696722620297","-0.12538688926153557","0.06926831495819477","0.26795482985453384","0.6259838721380027","-0.6730409580329275","0.336554119161885"
"0.008189213933465273","0.0011965544191769226","-0.01597395518500103","-0.11019470058253251","0.021694356097585996","0.27666734199092896","0.5784481860668881","-0.7162469347043083","0.3081165216682081"
"0.011073820655513029","-0.04505670080570294","-0.016116457584511062","-0.02053479313722992","-0.023084231802705277","0.23849974355942866","0.5111570478126436","-0.7671706201856917","0.2901877604897232"
"-0.005847729124189711","0.02083537671748362","-0.025940862142035805","-0.02567683874778475","0.056595807051618485","0.17642248786671258","0.4603612941739327","-0.7976456754867267","0.2909885893846601"
"0.008415476476750063","0.0037328322641145854","-0.002994051841804212","-0.058056033275809486","0.010678009753115622","0.23872787061815323","0.40048193346653216","-0.8478173790840585","0.26604848951376875"
"0.011243276858143338","-0.025016725844248272","-0.03050300417852354","-0.06177320947920815","0.0025118408715237516","0.17546872261055568","0.3416056704722388","-0.8848491887074373","0.23746380099857284"
"-0.009082802083495593","0.022673906530461113","-0.0029093765029649197","-0.0389339007319338","-0.010878656151572436","0.1971577813746123","0.29334552494165844","-0.9054033602048455","0.23788873061629442"
"0.019966420016271736","-0.028485003271102424","-0.02434442221709012","-0.04130900399372724","-0.042994070003802176","0.18876804475747638","0.23611322764384582","-0.9384377924445821","0.2149261878124921"
"0.0003104633304890294","-0.008210278175335376","-0.02679794179126279","-0.05857591805950162","0.015307364246730449","0.08147552064883341","0.20014102909882295","-0.959612019179717","0.18913622870615754"
"0.0013194979916058773","-0.01860264584699629","0.01251702455703741","-0.08040530247697406","-0.0900462901064065","0.10153614051497326","0.17537008835015916","-0.9812479891769885","0.14007320130614714"
"-0.005510742357595345","-0.04621383199872945","-0.0164159191486988","-0.0600816584330099","-0.13058874221923036","0.03494245443623174","0.15856820165562116","-0.9961293148824291","0.0901554116366429"
"-0.014619013248974428","-0.041859528622457336","0.09248895811163226","-0.12810184313192774","-0.18366967760354677","-0.15146162137776165","0.18684998440015868","-0.9881081747858795","0.03782206052485969"
"-0.018114047428224544","0.005690357543405468","0.01873033570089135","-0.15142926592611303","-0.16490144209771648","-0.3522838126798674","0.2704693243177519","-0.9527782189000908","-0.07013948058073279"
"-0.02515225675338114","0.03569734539775592","-0.039670658547002066","-0.017062155332086448","-0.03489754606651275","-0.4808115683187213","0.3978905977076731","-0.8865510424450277","-0.11840004474112277"
"-0.04477451476250441","0.024417913059268576","-0.010055149000134484","-0.03993419756574142","-0.03117118255177445","-0.3548563092995273","0.5220518035299977","-0.8178304523744253","-0.13697764075897478"
"-0.01777706066163018","0.032737000783639614","0.03477548631007056","0.01808013054630197","-0.02408295466378446","-0.3379166617474275","0.6055318243207708","-0.7640835366616906","-0.15638058084201684"
"0.003842084644397963","0.03145937837123153","-0.006559090132155108","0.10600997696142911","0.028735436033591178","-0.4441413570705513","0.690739402284116","-0.7014447649866626","-0.118244781996186"
"-0.0024971178449085954","0.027165320604650198","0.026969452695171196","0.13029052185904993","0.1097198217829261","-0.43928758986364597","0.7850305873161504","-0.6207320427651335","-0.06356124322946557"
"0.010605890459613423","0.017587307381223386","0.009345416804464204","0.12573671625374677","0.08089495205170705","-0.32017614260618843","0.8497303898115361","-0.5519322967067362","-0.006841310987048506"
"0.022366728613756735","0.02655663220329155","-0.0069938257132690345","0.10373788790677467","0.0419105363217314","-0.20806382766108844","0.8854796777536459","-0.5001510880242416","0.038820645126505474"
"0.031669489010427446","0.026197235979963745","-0.005578921453786126","0.10049342175669607","0.04834371880574973","-0.08605953514831538","0.9015292411633539","-0.47256522627772013","0.07060374618739824"
"0.028082986994530282","0.025589586296013555","0.04133472719186552","0.06249850881519701","0.05554036305033422","0.023149741630334487","0.909804797296485","-0.4584622677855962","0.1033837975052533"
"0.019880729095623457","-0.00998752366121362","0.045473492534156786","0.04029461480354635","0.058151450137411596","0.06426163524954356","0.9009162370053445","-0.4647155908213929","0.12917212226690436"
"0.0022563212027381986","-0.06679290129517583","0.016148977017593016","-0.013010905017685634","0.13345654197507406","-0.03474550823691194","0.8917769022859273","-0.46859423422334284","0.15363826217956772"
"-0.009650865490040388","-0.11317267230040635","-0.0018071514215373455","-0.01453301213438423","0.0868997343628685","-0.11455600242005673","0.8894084771299807","-0.46422746222999106","0.17658446153653462"
"0.011612999482064004","-0.029272351066716513","0.00604576341754865","-0.05959739538449669","0.09166000220539547","-0.10490671321272889","0.8922784511424808","-0.4429740795070614","0.19294425181881655"
"-0.009005776536845462","0.02327844006218592","0.005734736441226761","-0.08841730464342927","0.1166867095102242","-0.027326525061157094","0.9043713513504901","-0.4288711210149374","0.20103425800236255"
"-0.03713935745080925","-0.2039773481481422","0.13970268789712167","0.19335062062170522","-0.1319505282435631","-0.15554121271516558","0.9132320478162662","-0.4127760701633085","0.21258907491502327"
"-0.006126946730796451","0.08842679592091379","-0.0789600157684338","0.06380881102002103","-0.029328343819373368","-0.07568218085995172","0.9266066839910226","-0.3897416777149937","0.19175118019982895"
"-0.012953335802665158","0.09711255089047188","-0.05725628074740635","0.011790487413226755","0.2838058562713968","0.21307328404605494","0.9127862266104408","-0.4007443600184843","0.22344112361375973"
"0.016467534559689113","0.007464279133576634","-0.07456309390529102","-0.10029763470039366","0.12154988912611901","0.33248566487034054","0.8592319542606863","-0.4719847490338909","0.23978457044920626"
"-0.04801921591514157","0.014745376551671734","0.028801331367133448","-0.0665744417315648","-0.02140317995122668","0.2499473535169149","0.8246250831585031","-0.516153790223443","0.2409776420681938"
"0.0022332135387431594","0.01976653650417637","-0.014854588510588919","-0.028697946990795625","0.0790784395869117","0.33915959477983537","0.7734670997900588","-0.5739904319722472","0.2388203070859149"
"-3.037471343783429e-05","0.0071693872613143115","-0.035984183429242624","-0.007968215165791962","0.031825182531681824","0.3885709449461319","0.6948353846126354","-0.6442545638048502","0.24419730109477678"
"0.006307864956535582","-0.0014224676545188115","-0.02130024052320921","-0.024881607578655696","0.04867160050229383","0.31957464409997227","0.6059219178758677","-0.7200860001123607","0.2436416239023716"
"0.007991835970174286","0.004710535412003396","0.01581461269178615","-0.06161820679369994","-0.02636927134048934","0.33969350917259505","0.5283211642369148","-0.7826060378056964","0.22095691969477188"
"0.007356375210310621","-0.023542785841640892","-0.018912809018374527","0.004386461618811487","0.00201499240289198","0.2793611827907614","0.45944178793691803","-0.8194003794656906","0.225353306893507"
"-0.0018809134717074718","0.016755294737045436","-0.011009088975984953","0.007664527729910187","0.03109283363283152","0.30265926538390714","0.38075434510876616","-0.8625008148200116","0.2364341638479397"
"0.016881546872933608","-0.023229093184285413","-0.004374466390101359","-0.08006352636917645","0.021447846500914164","0.2965920563752754","0.2888315852326782","-0.9112213253077702","0.22597435787325393"
"-0.004182051677880406","-0.019981023848025175","-0.02640760913173532","-0.14106045274025353","0.00831941550534774","0.13292787992563368","0.22872931392236548","-0.9574352295153572","0.15877010448589796"
"0.0026818873479802245","-0.05989374026817215","-0.025754989447022723","-0.06746017136304028","-0.08206703772481531","0.064649936626096","0.2025094542547695","-0.9768812171836366","0.10710846903905157"
"-0.004519038444474755","-0.05898486253576803","0.007307425966254109","-0.04463145286135966","-0.1299952045495739","-0.08016706175913228","0.20905745321532734","-0.9756674920374484","0.07865779678790631"
"-0.012202336722826279","-0.06265049627022994","0.08475252349475446","-0.11450781878797825","-0.259903368698575","-0.17270413355878295","0.250853191261442","-0.9610764049539225","0.006068377668270688"
"-0.025883999446557462","0.010761895290220501","0.024800111819151854","-0.1425238321313869","-0.07667493945975083","-0.4082720174115207","0.3454230145471175","-0.9190313827702","-0.09324094268263641"
"-0.03770742085735401","0.037195175900757924","-0.060942755865165794","-0.028106818736745698","0.017652077371578943","-0.5127493565401585","0.49973287941337224","-0.8334769526285496","-0.12297620985504777"
"-0.05530775826691109","0.013576403980188757","0.008632305883785683","-0.03562493035869341","-0.07704590050328611","-0.38007162993940063","0.609739261950746","-0.7608513338267323","-0.1328738012585942"
"-0.014869346275587383","0.044430881368103234","0.03864576887067627","0.05126707198824837","-0.058715638358532996","-0.3783485425809492","0.6905164916812038","-0.7027772241145434","-0.14717758592897692"
"0.012309117859914651","0.04222152944030486","0.025889945387578557","0.09278757396285955","0.0502368167763072","-0.44183581764727126","0.7753339760894521","-0.6318534590503165","-0.11930547169580649"
"0.015983236435126353","0.04112672129178606","0.020309840558069177","0.10764665128045986","0.10739114374834655","-0.3783485425809492","0.8497861174622644","-0.5572489405536267","-0.06946286188174532"
"0.02289916770497583","0.039088757736383886","0.0122198760752765","0.12076892832068872","0.05124439483649014","-0.2094374437806427","0.8879595582110492","-0.5042803920542086","-0.024412150679837034"
"0.036810944249324316","0.03326466922713824","0.01947981571222743","0.14888121662404036","-0.02813360992948425","-0.09044976758696127","0.9088574272341063","-0.4800322744597054","0.007951142743714112"
"0.029804507962160918","0.0331950751607713","-0.009156764307571258","0.07762619327103826","0.05266122669308941","0.03178265198453636","0.9171329833672368","-0.46490028812624773","0.037982226303847066"
"0.024620688672606476","-0.01977120293151588","0.036956392598224044","0.05438638069040108","0.23246963444022373","0.1531122708555496","0.8963465696456357","-0.48760486395875047","0.08070563067638774"
"-0.019125007728007643","-0.10151826297746429","0.06177246263463719","0.08370980798983549","0.09788496784562303","-0.105105717668212","0.8975725779616555","-0.48136473358758614","0.13052862835424642"
"-0.01101806894308036","-0.12044369415963938","0.03080586512024119","-0.028992548368221162","0.05525316740372626","-0.21979780988378217","0.8919998128888401","-0.4554015695908601","0.16426150262260794"
"0.014244384719499433","-0.009913774725212826","0.019664862306373786","-0.15735017596260661","0.15321081586759167","-0.1759270349841681","0.9055416320157809","-0.43013761681965573","0.1631174613441267"
"-0.04434124606259737","-0.1873994183090909","0.08816432007432791","0.18136438810880354","-0.2501387167139043","-0.026479542683552112","0.9323466320160226","-0.4015227272318007","0.1742963789795721"
"0.007495984013614","0.17182022305927425","-0.06891875973339379","-0.07006440902949802","0.21109270514437117","-0.15796566943501483","0.9505695738041285","-0.36569145008997767","0.17844761447577553"
"-0.025017462046743384","0.022617815790404176","-0.013514239854327923","-0.01621493568458818","0.03267001639212025","0.36255475271711923","0.9208110083152952","-0.39610054206785034","0.21046442682641522"
"7.457259387297687e-05","0.03436155481047397","-0.05820010098763944","-0.01750598289742361","0.07383951233337148","0.2846275202102537","0.8706561226599576","-0.47257841894235264","0.20958188069730113"
"-0.017257138221741745","0.0047226987928564845","-0.007003945448886416","-0.01679162269464666","-0.010184839335308704","0.31435684435254907","0.8255167255701539","-0.526892619234284","0.21332453002261836"
"0.0012078109489631604","0.012891162105826469","-0.02850384008104951","-0.07162213788137553","0.06917258307599211","0.35605070465986605","0.775529022867001","-0.5842411323916863","0.214958874706163"
"0.003353935242502707","0.001005222672538248","-0.02571368440368648","-0.06000271296585666","0.04372465548947168","0.38718762129216394","0.6990985498933389","-0.6574736137665979","0.2114286901897066"
"0.010627072484942213","-0.007737661754485229","-0.01593265014166479","-0.10208834895533317","0.02849849962513961","0.35609924233193513","0.6162872609113039","-0.7296111039770133","0.1909503513048921"
"0.009091375648605043","-0.025363657458674534","-0.0031256084048301366","-0.12861210041962556","-0.041211063697777765","0.29326722583854525","0.5295471725529342","-0.7951522618711874","0.1337646308276648"
"0.0021735187400893025","-0.01535457651073605","-0.028001983804514192","-0.043941161398568455","0.012124518493197718","0.23698051442366733","0.4687761694338835","-0.8422764599384158","0.10516359886563344"
"0.014697872625402139","-0.03703053139051815","-0.0026764160585485233","0.04145954181885647","-0.028241068967256727","0.2433025462106615","0.40677915799881353","-0.8755087821476396","0.10792564138082389"
"0.000990213779676525","0.004931989963487465","-0.0018684894108916652","-0.007472591672005474","0.02899869870964848","0.20679493616392286","0.34879453741617056","-0.9070920212778032","0.12037934786943409"
"0.0033077199145126277","-0.03433402099815116","-0.0033831453500315946","-0.05728775909546448","-0.0608696057080927","0.17665061492543715","0.29025264032624615","-0.9372768379569236","0.09606520201234037"
"-0.0032384887314161797","-0.07107345573544716","-0.004434358702938908","0.004458860388688612","-0.11478101517051714","0.02455126691132841","0.2659832484341356","-0.9490183094798333","0.07700057127879201"
"0.005044645991473282","-0.04975170349195055","0.067860826022399","-0.10431230053001611","-0.24073066599043846","-0.039827402502541846","0.2747882172491839","-0.9496779427114573","0.028073194487515836"
"-0.01942348172127694","-0.010891207806575438","0.05484354161498289","-0.18434567473061964","-0.11897646490804846","-0.3029938066937435","0.3236892307631378","-0.9301659917200155","-0.07366312771845505"
