"AccX","AccY","AccZ","GyroX","GyroY","GyroZ","MagX","MagY","MagZ"
"-9.5464","1.9711","-0.83575","0.012651","0.007146","-0.007381","0.68012","0.24043","0.25641"
"-9.5839","1.9637","-0.82146","0.020009","0.010565","-0.017308","0.68044","0.24229","0.25746"
"-9.5388","2.0534","-0.88023","0.003778","0.014099","-0.016365","0.67868","0.24281","0.25739"
"-9.5615","1.9189","-0.83614","-0.007095","0.011412","-0.014531","0.67825","0.24173","0.25875"
"-9.5615","1.9638","-0.87338","0.016283","0.011648","-0.007353","0.67844","0.24347","0.25791"
"-9.5763","2.0537","-0.91075","0.006221","-0.002576","-0.000185","0.67854","0.2444","0.25952"
"-9.5689","1.9936","-0.83607","0.000848","0.017116","-4e-05","0.67802","0.24441","0.25788"
"-9.5689","1.9788","-0.86599","0.021553","0.004683","0.001635","0.6775","0.24253","0.2579"
"-9.5615","1.9339","-0.86599","0.010691","0.010093","0.005314","0.67783","0.24346","0.25884"
"-9.5465","1.9338","-0.86574","0.008914","0.002838","0.001645","0.6793","0.24296","0.25674"
"-9.5463","2.0758","-0.86535","0.003356","-0.003273","0.010657","0.67814","0.24348","0.2575"
"-9.5464","2.0384","-0.86545","-0.008459","0.005813","0.018889","0.67894","0.24362","0.25739"
"-9.599","1.9191","-0.84425","-0.011889","0.007331","0.005369","0.67764","0.242","0.25778"
"-9.5313","2.0906","-0.85011","-0.004646","-0.002596","0.001629","0.67971","0.24348","0.25863"
"-9.5765","1.9341","-0.91107","0.005313","0.002836","0.001667","0.68065","0.24229","0.25841"
"-9.5389","2.0085","-0.85046","0.008834","0.002048","0.007061","0.67908","0.24295","0.25741"
"-9.5164","2.0534","-0.90973","-0.003819","0.00745","0.010733","0.67856","0.24253","0.25942"
"-9.569","1.9339","-0.8437","0.003451","-0.002518","0.003442","0.67952","0.24147","0.25947"
"-9.5463","2.0384","-0.85051","0.003564","0.006309","-0.002845","0.67937","0.24188","0.25744"
"-9.5312","2.1579","-0.87982","-0.010991","0.002834","0.005296","0.68008","0.24242","0.25799"
"-9.5689","1.9413","-0.82127","-0.034328","0.009742","-0.003619","0.67819","0.24227","0.25806"
"-9.5164","2.0085","-0.87997","-0.020032","0.004626","0.007139","0.67919","0.24","0.25841"
"-9.5314","2.0233","-0.83535","-0.025481","0.013644","0.010837","0.67904","0.24107","0.25838"
"-9.5464","1.9786","-0.85814","-0.009138","0.01177","0.003557","0.67813","0.24119","0.25876"
"-9.5464","1.9786","-0.83573","-0.012824","0.004659","0.007136","0.67854","0.24146","0.2589"
"-9.5464","2.0535","-0.8953","-0.009159","-0.00619","0.001624","0.67889","0.2408","0.25811"
"-9.5615","1.9487","-0.83606","-0.010863","0.008034","-0.003692","0.67887","0.24052","0.2596"
"-9.5689","2.0011","-0.83605","-0.020159","-0.000591","0.014364","0.67952","0.2408","0.25935"
"-9.5612","2.0833","-0.85064","0.005011","-0.011145","0.019652","0.67907","0.2404","0.25867"
"-9.5388","2.0609","-0.89515","0.014079","-0.00936","0.017823","0.68039","0.24015","0.25817"
"-9.5164","2.0307","-0.83508","0.003332","-0.009557","0.010604","0.68005","0.23974","0.25898"
"-9.5388","2.0607","-0.84285","0.00254","0.002884","0.005271","0.67961","0.24094","0.25867"
"-9.5088","2.0831","-0.87964","-0.009336","-0.007737","0.014259","0.67989","0.23989","0.25682"
"-9.5463","2.0382","-0.79073","-0.014479","-0.006401","-0.007407","0.67963","0.23935","0.25695"
"-9.5389","2.0234","-0.85042","0.006288","-0.009011","-0.007479","0.68127","0.24016","0.25726"
"-9.5463","2.0608","-0.85792","0.001719","0.004566","-0.00014","0.67988","0.24015","0.25681"
"-9.5013","2.0979","-0.83464","0.001834","0.011574","-0.00735","0.68144","0.24003","0.25781"
"-9.5462","2.098","-0.81299","-0.027119","-0.001031","-0.005534","0.68003","0.23949","0.25683"
"-9.5613","2.0683","-0.85068","-0.010784","-0.002886","-0.01191","0.68058","0.24002","0.2571"
"-9.5465","1.9487","-0.83581","-0.005508","0.011745","0.00174","0.68005","0.23962","0.2571"
"-9.5613","2.0382","-0.79099","-0.003681","-0.000905","-0.003772","0.68086","0.23963","0.25712"
"-9.5612","2.1057","-0.84311","-0.00095","0.007193","-0.002824","0.68066","0.23881","0.25794"
"-9.5614","1.9786","-0.83598","-0.012803","0.011834","0.007191","0.67909","0.24055","0.25705"
"-9.5162","2.1129","-0.83486","-0.012646","-0.001023","-0.007393","0.68016","0.23909","0.25671"
"-9.5615","1.9487","-0.83606","0.00719","-0.003606","-0.006527","0.68126","0.23923","0.25701"
"-9.5387","2.068","-0.79053","-0.009047","-0.001005","-0.007389","0.67999","0.24002","0.25641"
"-9.5312","2.083","-0.8053","0.001704","-0.004442","-0.002016","0.68047","0.23989","0.25737"
"-9.5313","2.0607","-0.83525","0.003515","0.007274","0.000772","0.68002","0.238","0.2582"
"-9.5464","2.001","-0.83567","-0.010879","0.002652","-0.003737","0.68045","0.23894","0.25874"
"-9.5313","2.0382","-0.82037","0.00544","0.011595","-0.007343","0.67921","0.23946","0.25855"
"-9.5613","2.0384","-0.83582","0.022485","0.001023","-0.002015","0.67965","0.23881","0.2571"
"-9.5314","2.0084","-0.83539","0.01354","0.002664","-0.007422","0.68053","0.23895","0.25807"
"-9.5687","2.0683","-0.82092","0.012541","0.005506","-0.00015","0.67922","0.23988","0.25693"
"-9.5689","2.0086","-0.85097","0.005491","0.002535","-0.012813","0.6802","0.24069","0.25749"
"-9.5764","1.9338","-0.82141","0.014812","0.005712","-0.034515","0.67932","0.2408","0.2584"
"-9.5462","2.0906","-0.83542","0.0074","0.022178","-0.016318","0.68132","0.24123","0.25819"
"-9.5313","2.0831","-0.83519","0.016281","0.014325","-0.007353","0.67894","0.24188","0.25715"
"-9.5164","2.0083","-0.83514","0.017127","0.002709","-0.005628","0.67938","0.2416","0.25933"
"-9.5688","2.0311","-0.86585","0.007264","0.015201","-0.007307","0.67883","0.24148","0.25743"
"-9.5313","2.0682","-0.85017","-0.00633","-0.002786","-0.007412","0.6785","0.24215","0.25673"
"-9.569","1.9115","-0.85123","0.012562","0.000991","-0.001983","0.67902","0.24095","0.25623"
"-9.5313","2.0682","-0.85017","0.016313","-0.001021","-0.012883","0.67969","0.24308","0.25837"
"-9.5688","2.0085","-0.83603","-0.012707","0.011688","-4.4e-05","0.67927","0.24255","0.25809"
"-9.5614","1.9936","-0.85088","0.009178","-0.004771","-0.020109","0.67805","0.24253","0.25792"
"-9.5464","2.0084","-0.83565","0.001768","-0.009923","-0.00747","0.67913","0.24361","0.2582"
"-9.5615","1.9414","-0.88091","0.003695","0.002529","-0.012809","0.67953","0.24322","0.25809"
"-9.5464","2.0384","-0.86545","0.01794","-0.004337","-0.000238","0.67897","0.24388","0.25792"
"-9.569","1.9639","-0.88098","0.012526","-0.013348","-0.002081","0.67778","0.24415","0.25653"
"-9.5689","1.9638","-0.85109","0.012736","0.018732","-0.010912","0.67844","0.24374","0.25804"
"-9.5613","2.0534","-0.86566","0.005346","-0.006245","-0.003832","0.67984","0.24428","0.25875"
"-9.5765","1.949","-0.87367","0.009943","0.004459","-0.007379","0.67765","0.24401","0.25653"
"-9.5614","1.9936","-0.84341","0.010784","0.002737","-0.003782","0.67993","0.24349","0.25796"
"-9.5465","1.9338","-0.86574","-0.003657","-8e-06","-0.00377","0.67834","0.24429","0.25682"
"-9.5613","2.0534","-0.86566","-0.009192","-0.006151","0.003441","0.67866","0.24443","0.25561"
"-9.5614","2.0011","-0.84339","0.003466","0.002857","0.003472","0.67932","0.24309","0.25701"
"-9.5689","2.0086","-0.85097","0.001736","-0.013464","-0.005675","0.67936","0.24242","0.25743"
"-9.5689","2.0086","-0.85844","-0.01276","-0.008028","-0.000176","0.67836","0.24293","0.2586"
"-9.5014","2.0606","-0.86463","-0.016592","-0.002315","0.017929","0.68087","0.2427","0.25787"
"-9.5616","1.8892","-0.896","0.006871","0.00231","0.019745","0.67932","0.24255","0.25688"
"-9.5463","2.0233","-0.82066","0.01072","-0.000781","-0.000195","0.67995","0.24122","0.25787"
"-9.5462","2.1279","-0.8129","0.001588","-0.002461","0.007048","0.67993","0.24137","0.25585"
"-9.569","1.9488","-0.85113","0.005091","-0.00946","0.014245","0.67953","0.24163","0.25596"
"-9.5764","1.9788","-0.86612","0.010053","0.009688","-0.014581","0.67898","0.24082","0.25569"
"-9.5463","2.0982","-0.87276","-0.005496","-0.002667","-0.001981","0.68035","0.24124","0.256"
"-9.5914","1.9639","-0.85147","0.005485","-0.007354","-0.014676","0.6799","0.24229","0.25744"
"-9.5315","1.9486","-0.84303","-0.015285","0.004277","-0.010956","0.67968","0.24096","0.25598"
"-9.5387","2.1204","-0.8128","-0.011012","0.001039","0.00529","0.67938","0.2427","0.25594"
"-9.5465","1.9188","-0.84336","-0.003878","0.001218","0.012521","0.67997","0.24245","0.25475"
"-9.5463","2.0607","-0.8355","0.003415","-0.009677","0.004284","0.67994","0.2419","0.25611"
"-9.5463","2.0683","-0.85043","-0.003796","0.004693","0.007111","0.68038","0.2403","0.25628"
"-9.5613","2.0309","-0.83584","-0.003703","0.004549","-0.000118","0.67962","0.24015","0.25694"
"-9.5688","2.0534","-0.84337","0.003376","-0.002408","0.008865","0.68115","0.24083","0.25765"
"-9.5313","2.0681","-0.83523","0.003207","-0.010265","0.01965","0.68157","0.23951","0.2558"
"-9.5464","2.0384","-0.86545","0.010601","0.00482","0.010695","0.68028","0.24017","0.25494"
"-9.5313","2.0831","-0.83519","0.001589","-0.000652","0.007959","0.6809","0.24084","0.25616"
"-9.5462","2.0831","-0.83544","0.003483","0.001023","0.001641","0.68077","0.23923","0.25591"
"-9.5764","2.0087","-0.88098","-0.007618","-0.003082","0.021555","0.68225","0.24032","0.25608"
"-9.5313","2.0681","-0.81281","-0.015501","-0.003516","0.002556","0.68107","0.23937","0.25633"
"-9.5462","2.0981","-0.8354","0.005175","-0.004201","0.008837","0.68044","0.23977","0.25522"
"-9.5463","2.0832","-0.85039","-0.000112","0.000992","0.000745","0.68093","0.23843","0.25607"
"-9.5613","2.0383","-0.8134","0.004161","0.00136","0.017931","0.68196","0.23898","0.25555"
"-9.5313","2.0682","-0.86512","0.017922","-0.002512","0.001575","0.68107","0.23963","0.25632"
"-9.5312","2.113","-0.83511","8.7e-05","0.003381","-0.013719","0.68051","0.24043","0.25629"
"-9.5162","2.1129","-0.83486","-0.004536","0.002629","-0.005579","0.681","0.24004","0.2555"
"-9.5163","2.113","-0.86474","-0.005407","0.002591","-0.007387","0.68375","0.23926","0.25601"
"-9.5313","2.0531","-0.80538","0.00962","-0.000495","0.014273","0.68052","0.23923","0.25617"
"-9.5463","2.0533","-0.85047","0.003544","-0.004464","-0.003822","0.68151","0.24072","0.25523"
"-9.5238","2.0681","-0.8351","-0.003561","0.002524","-0.011004","0.68106","0.23857","0.25607"
"-9.5313","2.0532","-0.83527","-0.007096","0.011403","-0.01455","0.68092","0.23857","0.25593"
"-9.5313","2.0682","-0.85017","-0.001011","-0.002619","-0.000188","0.6808","0.2387","0.25619"
"-9.5315","2.0086","-0.90264","-0.003876","-0.006868","0.011551","0.68019","0.2399","0.25548"
"-9.5614","1.9637","-0.85096","-0.00904","0.00442","-0.00553","0.68088","0.2391","0.25551"
"-9.5161","2.1577","-0.81979","0.003271","0.000429","0.016997","0.67996","0.24016","0.256"
"-9.5463","2.0533","-0.85047","0.003494","-0.000787","0.000725","0.68183","0.24005","0.2558"
"-9.5388","2.0907","-0.86518","0.005355","0.00454","-0.001962","0.68123","0.23897","0.25661"
"-9.5462","2.0831","-0.8205","-0.009173","-0.004402","0.001636","0.68154","0.2399","0.25727"
"-9.5388","2.0681","-0.82041","-0.009215","0.005565","0.007127","0.68108","0.2387","0.25634"
"-9.5237","2.1055","-0.835","0.003425","-0.002496","0.005224","0.68184","0.23844","0.25556"
"-9.5163","2.0606","-0.84994","-0.008382","-0.004222","0.010667","0.68252","0.23884","0.2576"
"-9.5463","2.0383","-0.83556","0.015993","-0.000539","0.010646","0.68301","0.23818","0.25682"
"-9.5087","2.1428","-0.84959","0.001505","0.006678","0.016136","0.68127","0.23804","0.25514"
"-9.5387","2.128","-0.85014","0.001643","0.004673","0.005282","0.68227","0.23764","0.25586"
"-9.5463","2.0383","-0.83556","-0.003677","-0.011699","-0.005661","0.68173","0.23751","0.25571"
"-9.5162","2.1278","-0.81987","0.007021","-0.006071","0.005187","0.68146","0.23817","0.25582"
"-9.5462","2.0981","-0.8354","0.001723","0.008149","-0.000117","0.68175","0.23764","0.25611"
