"AccX","AccY","AccZ","GyroX","GyroY","GyroZ","MagX","MagY","MagZ"
"-9.5238","2.0756","-0.85003","-0.012843","0.001086","0.008003","0.68174","0.24356","0.25155"
"-9.5616","1.8891","-0.87358","0.001625","-0.00428","0.005242","0.68253","0.24369","0.25319"
"-9.5463","2.0832","-0.85039","0.014282","-0.002485","0.0034","0.68276","0.24263","0.25241"
"-9.5462","2.143","-0.85022","0.003492","-0.000788","0.000722","0.68175","0.24222","0.25144"
"-9.5615","1.9638","-0.88085","-0.004347","-0.003026","-0.020064","0.68281","0.24224","0.2512"
"-9.5388","2.0907","-0.85771","0.00371","0.00969","-0.012778","0.68045","0.24221","0.25207"
"-9.5312","2.113","-0.83511","-0.003744","0.002802","0.002567","0.68328","0.2421","0.25203"
"-9.5613","2.0533","-0.83578","0.007106","-0.002582","-0.000193","0.68242","0.2433","0.25158"
"-9.569","1.9489","-0.87355","-0.010955","0.00279","0.002608","0.68108","0.24222","0.25155"
"-9.5313","2.0981","-0.85009","0.005433","0.007115","-0.007376","0.68227","0.24303","0.25131"
"-9.5463","2.0907","-0.86531","-0.014564","-0.008041","-0.000185","0.68215","0.24156","0.25133"
"-9.5688","2.0534","-0.85085","0.001602","-0.000659","0.007072","0.68153","0.24248","0.2521"
"-9.5614","2.0086","-0.86579","0.007113","0.001024","0.000737","0.68229","0.24276","0.25158"
"-9.5389","2.0384","-0.85785","0.003509","-0.008911","-0.002045","0.68315","0.24277","0.25228"
"-9.5388","2.0608","-0.85032","0.003485","0.000125","0.001632","0.68341","0.24157","0.25191"
"-9.5613","2.0534","-0.85072","0.003378","-0.00241","0.008862","0.68262","0.24316","0.25239"
"-9.5614","2.0086","-0.86579","-0.003645","0.01708","-0.000938","0.68262","0.24223","0.25228"
"-9.5312","2.098","-0.83515","-0.008174","-0.006342","-0.005623","0.68257","0.24263","0.25173"
"-9.5688","2.0684","-0.86575","0.001578","-0.006017","0.00794","0.68255","0.2421","0.25133"
"-9.5763","2.0684","-0.85093","-0.018206","-0.000803","0.003505","0.68153","0.24222","0.25211"
"-9.5162","2.1278","-0.83481","0.003739","0.016833","-0.013646","0.68248","0.24035","0.2519"
"-9.5614","2.0086","-0.86579","0.001818","0.004424","-0.007368","0.68312","0.24143","0.25163"
"-9.5313","2.0831","-0.85013","-0.003662","0.004486","-0.002848","0.68288","0.24236","0.25215"
"-9.5614","1.9936","-0.85088","-0.010805","-0.014556","-0.01289","0.68343","0.2433","0.25242"
"-9.5313","2.0981","-0.87251","0.001901","-0.00111","-0.014658","0.68114","0.24221","0.25236"
"-9.5388","2.0832","-0.87267","-0.008136","0.003521","-0.005554","0.68322","0.24303","0.25322"
"-9.5314","2.0234","-0.85777","0.019669","0.011086","0.008899","0.68288","0.24196","0.25216"
"-9.5388","2.0534","-0.87275","0.027076","0.007236","-0.005614","0.68071","0.24326","0.25395"
"-9.5614","2.0087","-0.88073","-0.018019","0.009729","-0.007284","0.68111","0.24353","0.25396"
"-9.5462","2.1581","-0.90995","-0.016262","0.008014","-0.003695","0.68178","0.24287","0.25372"
"-9.5915","1.9191","-0.87401","0.006496","0.010503","-0.018176","0.68101","0.24341","0.25261"
"-9.5314","2.0534","-0.8801","-0.022469","0.014111","-0.010877","0.68083","0.2438","0.25381"
"-9.5614","2.0311","-0.8732","0.012639","0.000879","-0.007419","0.68018","0.24407","0.25243"
"-9.5838","2.0236","-0.85118","0.019638","-0.001466","0.007935","0.68172","0.24542","0.2534"
"-9.5314","2.0534","-0.90251","6.6e-05","0.002544","-0.01101","0.68141","0.24555","0.25285"
"-9.5764","2.0087","-0.86604","-0.005505","0.007256","0.000816","0.68002","0.24419","0.25391"
"-9.5614","2.0387","-0.91053","0.023377","-0.000724","-0.000221","0.68009","0.24445","0.25498"
"-9.5689","1.9938","-0.8809","0.004416","-0.000794","-0.000169","0.68067","0.24474","0.25365"
"-9.5689","1.9788","-0.88094","-0.007331","0.002785","0.001693","0.68066","0.245","0.25364"
"-9.5464","2.0236","-0.91032","0.016022","0.003051","0.01067","0.68102","0.2442","0.25475"
"-9.5388","2.0684","-0.9026","0.005117","0.003118","0.016119","0.68175","0.24461","0.25369"
"-9.5164","2.0232","-0.8351","-0.007473","0.002969","0.011619","0.68119","0.24313","0.25491"
"-9.5915","1.964","-0.8963","-0.005426","0.002652","-0.005538","0.68112","0.2454","0.25446"
"-9.5238","2.1281","-0.90219","-0.008187","0.00811","-0.000105","0.68104","0.24461","0.25326"
"-9.5616","1.9191","-0.90339","-0.000852","-0.002827","-0.011025","0.6817","0.2446","0.25476"
"-9.5389","2.0534","-0.89517","0.009852","0.004596","-0.000163","0.68164","0.24434","0.25396"
"-9.5688","2.0685","-0.88069","-0.010946","0.009979","0.003555","0.6817","0.24489","0.253"
"-9.5616","1.9191","-0.89592","0.002636","-0.006234","-0.002915","0.68161","0.24555","0.2538"
"-9.5613","2.0834","-0.89547","0.006447","-0.007431","-0.018316","0.68052","0.24567","0.25363"
"-9.5313","2.0834","-0.92485","-0.026206","0.000804","-0.003723","0.68011","0.24528","0.25173"
"-9.6066","1.8594","-0.85201","-0.001851","0.002705","-0.003726","0.68072","0.24393","0.25421"
"-9.5314","2.031","-0.89511","0.016052","-0.002406","0.007008","0.67954","0.24607","0.25332"
"-9.5613","2.0684","-0.88057","-0.016471","-0.002481","0.008909","0.68013","0.24393","0.25351"
"-9.5315","2.0086","-0.90264","-0.018343","-0.00328","0.014324","0.68029","0.2458","0.25429"
"-9.5315","1.9713","-0.90274","-0.003685","-0.004455","-0.001999","0.68019","0.24366","0.25433"
"-9.5463","2.0608","-0.85045","0.00165","-0.009738","0.001574","0.68037","0.24447","0.25324"
"-9.5915","1.9192","-0.88148","-0.003934","-0.011277","0.014266","0.68188","0.24395","0.25357"
"-9.5463","2.0683","-0.85043","-0.003683","0.009923","-9.1e-05","0.68039","0.24379","0.25514"
"-9.5313","2.0831","-0.85013","0.006268","0.000919","-0.003801","0.68102","0.24273","0.25437"
"-9.5764","1.9638","-0.85122","0.005291","-0.00346","0.00072","0.68129","0.2438","0.25463"
"-9.5463","2.0383","-0.83556","0.001725","-0.008057","-0.003841","0.68149","0.24354","0.25356"
"-9.5313","2.0832","-0.87255","-0.016568","-0.002343","0.016132","0.68142","0.2438","0.2545"
"-9.5764","1.9488","-0.84379","0.008927","0.010015","0.001706","0.68031","0.24406","0.25419"
"-9.5689","2.0386","-0.89572","0.005203","-0.007812","0.007016","0.68287","0.24342","0.25401"
"-9.5314","2.0235","-0.89512","-0.004028","0.004163","0.025192","0.68091","0.2426","0.25289"
"-9.5764","2.0012","-0.85111","-0.003791","0.006494","0.007139","0.68224","0.24249","0.25266"
"-9.5463","2.0907","-0.85784","0.003414","0.004738","0.007997","0.68179","0.2418","0.25374"
"-9.5313","2.0831","-0.84266","0.006866","0.001382","0.018813","0.68149","0.24287","0.25344"
"-9.5614","2.0087","-0.88073","-0.003721","0.0109","0.003543","0.68292","0.24209","0.25269"
"-9.5461","2.1579","-0.85018","-0.009168","0.007306","0.004424","0.68162","0.23994","0.25296"
"-9.5163","2.128","-0.89459","-0.007459","0.015576","0.014412","0.68273","0.24128","0.25365"
"-9.5463","2.0534","-0.88035","-0.024429","0.011641","-2.8e-05","0.68311","0.24195","0.25338"
"-9.5313","2.1131","-0.87994","0.003416","0.007442","0.008911","0.68171","0.23926","0.25406"
"-9.5463","2.0683","-0.86537","-0.005611","0.000206","0.007085","0.68177","0.23845","0.25461"
"-9.5463","2.0534","-0.88035","0.018003","0.015382","-0.000107","0.68264","0.2398","0.25394"
"-9.5464","2.0535","-0.90277","0.03055","0.000267","0.003378","0.68426","0.23929","0.25387"
"-9.5162","2.1579","-0.87956","0.00337","0.008407","0.012527","0.68298","0.23953","0.25477"
"-9.5162","2.143","-0.90949","-0.003825","-0.00605","0.007926","0.68127","0.23859","0.25338"
"-9.5312","2.1205","-0.8575","-0.007337","0.002772","0.00167","0.68351","0.23887","0.25453"
"-9.5313","2.0683","-0.87259","-0.010797","0.010643","-0.007311","0.68375","0.23794","0.25401"
"-9.5088","2.113","-0.87209","0.003432","0.004709","0.007074","0.68283","0.23886","0.2545"
"-9.5239","2.0384","-0.89496","0.008916","-0.007063","-0.000245","0.68199","0.23898","0.25596"
"-9.5388","2.1282","-0.92485","-0.000196","-0.000651","0.007964","0.68337","0.23834","0.2544"
"-9.5162","2.1429","-0.8796","-0.012695","-0.004531","-0.0038","0.68445","0.23835","0.25443"
"-9.5314","2.061","-0.92491","-0.003537","-0.001071","-0.01193","0.68154","0.23844","0.25514"
"-9.5387","2.1281","-0.87255","-0.012671","-0.011769","-0.007456","0.6831","0.23833","0.25439"
"-9.5012","2.1428","-0.85694","-0.010851","-0.006397","-0.007441","0.68365","0.2378","0.25442"
"-9.5313","2.0831","-0.83519","0.003379","-0.009627","0.00699","0.6816","0.23805","0.25408"
"-9.5312","2.173","-0.9246","-0.00374","0.001034","0.003456","0.68313","0.23886","0.25492"
"-9.5613","2.0536","-0.91049","-0.003644","-0.006312","-0.00562","0.68401","0.23928","0.25413"
"-9.5162","2.1579","-0.87956","0.006254","-0.006254","-0.003859","0.68404","0.23754","0.25416"
"-9.5462","2.0981","-0.84287","-0.003642","0.008056","-0.003722","0.68323","0.23727","0.25414"
"-9.5461","2.1504","-0.8502","-0.001895","0.004551","-0.000134","0.68348","0.23847","0.25413"
"-9.4862","2.1427","-0.86415","-0.003706","4.7e-05","-0.000187","0.68328","0.23739","0.25482"
"-9.5013","2.1055","-0.87945","-0.014567","0.000964","0.002567","0.68383","0.2382","0.25509"
"-9.5312","2.1428","-0.83503","-0.005424","-9.6e-05","-0.007399","0.68373","0.23794","0.25374"
"-9.5464","2.0236","-0.91032","0.021864","0.015029","-0.018208","0.68472","0.23782","0.25432"
"-9.5312","2.113","-0.85005","0.005529","0.006968","-0.014613","0.68405","0.23834","0.25442"
"-9.4861","2.2324","-0.87885","-0.003671","0.002699","-0.001982","0.68282","0.239","0.25437"
"-9.5164","2.0534","-0.92468","-0.012704","0.004508","-0.000119","0.68327","0.239","0.25492"
"-9.5388","2.0682","-0.8503","0.003744","-0.002969","-0.018288","0.68287","0.23821","0.25304"
"-9.5162","2.1879","-0.90937","0.012694","-0.000103","-0.011071","0.68261","0.23859","0.25504"
"-9.5463","2.0982","-0.88023","0.023508","0.000859","-0.010169","0.68236","0.239","0.25368"
"-9.5611","2.1731","-0.89522","-0.003529","-0.006498","-0.014671","0.68319","0.23927","0.25397"
"-9.5313","2.0758","-0.89498","-0.014461","0.007119","-0.003709","0.68291","0.24007","0.25394"
"-9.5613","2.0386","-0.88065","-0.007283","0.002709","-0.001931","0.68296","0.23847","0.25438"
"-9.5313","2.0832","-0.87255","0.00691","-0.014878","0.012373","0.68337","0.23981","0.25464"
"-9.5313","2.0683","-0.895","-0.00904","0.000828","-0.005573","0.68254","0.23915","0.25247"
"-9.5164","2.0608","-0.87983","0.001713","7.7e-05","-0.000183","0.68316","0.24048","0.25381"
"-9.5312","2.1579","-0.86487","-0.000164","0.002872","0.00527","0.68312","0.24008","0.25314"
"-9.5314","2.0385","-0.9175","0.006436","-0.010108","-0.017441","0.68328","0.23953","0.25518"
"-9.5162","2.1129","-0.8498","-0.00908","-0.000935","-0.003783","0.68199","0.23993","0.25432"
"-9.4863","2.1504","-0.90896","0.001719","0.011776","0.002591","0.68172","0.24046","0.2543"
"-9.5314","2.061","-0.92491","0.006303","-0.009905","-0.007491","0.68288","0.2398","0.2553"
"-9.5464","2.0535","-0.91024","0.00822","0.004335","-0.01282","0.68231","0.24059","0.25499"
"-9.5162","2.1879","-0.92431","-0.005281","0.007825","-0.014592","0.68178","0.24099","0.25524"
"-9.5314","2.0461","-0.93989","-0.010729","0.01147","-0.010924","0.68247","0.2418","0.25565"
"-9.5089","2.0084","-0.8649","0.001838","0.014286","-0.006421","0.68133","0.24032","0.25456"
"-9.5164","2.0833","-0.9246","0.030595","-0.003399","-0.000279","0.68154","0.2422","0.254"
"-9.5464","2.0385","-0.89534","0.006454","0.018668","-0.012719","0.68185","0.24113","0.25443"
"-9.5012","2.1654","-0.90918","0.000989","0.000709","-0.012852","0.68157","0.24166","0.25441"
"-9.5314","2.0684","-0.90995","0.003693","-0.004667","-0.013781","0.68142","0.24246","0.25426"
"-9.5914","2.0089","-0.91112","-0.000805","-0.002892","-0.014633","0.6808","0.243","0.25328"
"-9.5313","2.0833","-0.89496","0.001979","-0.001219","-0.020086","0.68099","0.24313","0.25409"
"-9.5615","1.9415","-0.9108","-0.010714","0.002441","-0.014584","0.68163","0.24206","0.25521"
