"AccX","AccY","AccZ","GyroX","GyroY","GyroZ","MagX","MagY","MagZ"
"-0.5482712568278096","-0.023381784643329306","-0.032223359233477945","-0.004513773328077713","-0.20955318525408928","-0.7024103101499855","1.113043539502058","0.40322981534964464","-0.29046221868002"
"-0.1764304303742569","0.0401098169489019","-0.13844547392912018","0.012651185555117043","0.05217060079680081","-0.7619174961066452","1.0636409771315507","0.5356577829305061","-0.3561465315116794"
"-0.134258943583305","0.11546980365021832","-0.13512454844488647","-0.004997073626991498","0.006066365657708285","-0.524932312229491","0.971801808731555","0.6532967734583545","-0.4261945446484031"
"0.040365673227228296","0.10154268063756168","-0.04169667092264465","0.07523857426445223","0.0978155622310261","-0.3292041496110324","0.8729688201651756","0.7049724408237893","-0.4987757920446211"
"0.10771295994077856","0.15351802232217626","-0.09729945500972446","0.06623686550978312","0.16377961566276464","-0.009264686530820878","0.8023897505179706","0.713930260109245","-0.5624498609155206"
"0.10960875120770515","0.09117835833592926","0.18293667675716438","-0.019791550446470078","-0.06555089474780247","0.36845207987350925","0.808073970892242","0.6952626396542819","-0.5508296702155181"
"0.09895024490805865","-0.2439679683739238","0.09049392451849185","0.1837231246274067","-0.14291422205282203","0.34360079177415387","0.9006654625770675","0.5756447494315612","-0.6553950430687048"
"0.023393094022869848","-0.07722266279354137","0.22102818772184515","0.047367936110557465","0.08364485036797828","-0.35704050454263464","0.9222320634088631","0.6075182271836395","-0.5121120446623454"
"0.11951712496491258","0.15561623148726925","0.1799379306109533","-0.2452203319025691","0.2132945384350322","-0.16250394177347133","0.8526839553001284","0.6805132405951664","-0.4173363964635911"
"-0.12115497245944987","0.06752884038006962","-0.004222257305407314","-0.07553090125506072","0.19313101074609826","0.009435665075583742","0.8613496049883561","0.6759749639615922","-0.2489171768243149"
"-0.06269258255199331","0.12813176885936836","-0.12937695166464863","-0.05828901867887152","-0.009784919397407117","0.442933137663472","0.8710183523896905","0.6651042083044265","-0.1772266472806289"
"-0.12501587798528815","0.05675422470209474","-0.22041946293422257","0.15492728410845982","0.003748457459876532","0.8856452446053097","0.9648637162159","0.594167250575567","-0.1427566835599887"
"-0.12312875209235974","0.013433580336525251","-0.03575080993439287","0.001751223415252099","-0.0665512929168202","1.0723211313828898","1.097105431393806","0.42450958340183925","-0.17611202420645142"
"-0.0497041497481134","-0.10473828694369604","0.059469706468641796","-0.020232489763008947","-0.03360037906266679","0.8937267670048071","1.2516660706883382","0.21318948131873125","-0.23612025795216032"
"0.09708285681145931","-0.23781876131582957","0.08644809552370712","-0.12467445455795746","-0.04155091187959718","0.47001715867800387","1.3168674220402772","0.08661905683469207","-0.2295828792179817"
"0.11160756414327629","-0.24060252397050738","-0.008238553194206636","0.1332557906252939","-0.08053772090662792","-0.09265337789889631","1.3243906548885775","0.06342635241078745","-0.2686600606015343"
"0.06115775672610057","-0.046918082401666596","0.04420129719940059","0.31347288814256774","-0.1742161542360347","-0.5611171467569704","1.2628116008339687","0.11747669941006912","-0.30409265334078234"
"0.070230403302154","0.012943928950176332","0.12986589182659608","-0.045873399844624164","-0.2133609208686998","-0.6293368448500253","1.2012604106047242","0.21979900629960503","-0.35235485184585585"
"-0.06858503687072907","0.030575429856630483","-0.055899410073810864","-0.21507664194442044","-0.1799576738711389","-0.5452938656624591","1.1584337110201384","0.32332184567069683","-0.33078150202306644"
"-0.08795696185323938","0.016957844631695498","-0.11129360369204266","-0.0073828634093386115","-0.09488553675175064","-0.8133674284998419","1.0553932848237841","0.4526099590690274","-0.35439778270028666"
"-0.1734360622482327","0.05778359365388045","-0.137315780993874","-0.010180421195361873","-0.05856964723817395","-0.743254761196094","0.9735850935548558","0.5803545307053575","-0.392772195869915"
"-0.014676782408962035","0.09977166745613424","-0.06777047952864632","-0.050782460052116965","0.027727857973408248","-0.4064275858728967","0.8582567203729434","0.6923602534351356","-0.44141029365220386"
"0.06669685634957878","0.10966337333691652","-0.0552013548414284","0.04255996461100479","0.09830379483025964","-0.11045942289742862","0.7912999480230676","0.7331651651434047","-0.5046594329053817"
"0.11031642341755331","0.13223470262279274","-0.0013494915413718043","-0.08230191918785085","-0.03854253748137879","0.24096788418414006","0.7883742463598395","0.7334422111006869","-0.5486069614458973"
"0.07935215366419686","-0.07052501294377929","0.1788144334322076","0.14381715373103934","-0.1867737838839678","0.6206295551082771","0.8686777910591079","0.6676371999138632","-0.5914104487079318"
"0.0381165272650442","-0.18073085254676577","-0.39753548876002087","-0.09326859987495628","0.8676506728548311","-0.33743128502673697","0.9256035862779158","0.6371621446128282","-0.5466294043788084"
"0.11222088005847804","0.10547214859377294","0.16582812780729364","-0.2174738884470008","-0.2898435148574549","-0.4759092634397469","0.8287210654870226","0.7024394492143525","-0.43502000593954415"
"-0.04968489336145086","-0.04436803116389273","-0.11794991142567779","0.066801036775049","-0.178988388563837","0.21954820950006668","0.8383062214122649","0.7346427435822428","-0.2450601233711496"
"-0.1248618268919879","0.2882708317219334","-0.028322097890370056","-0.11096490026207641","-0.13345112549708968","0.12361350065558227","0.826408367981804","0.7445504347212373","-0.1720768271827797"
"-0.10312136634998574","0.017576920207138767","-0.15504184034162152","-0.021796957862082453","-0.13177103096443313","0.711564883729649","0.9117274012466061","0.6671226859931964","-0.13609672897454422"
"-0.14959665556001422","0.0460606289819799","-0.1574994904201278","0.12053786841682555","0.02066523836390747","1.0324717026141967","1.0526904937634685","0.5115283993176952","-0.15896774847606804"
"-0.09728668119123762","-0.09988539921136225","0.08430849427888988","-0.038005810118083426","-0.17199996116304328","1.0216235329067633","1.2108734303553303","0.2878203851446859","-0.18385391497240242"
"0.029678378629521315","-0.15442014059042683","0.018415178220235837","-0.10296445109081433","0.019633727333173877","0.5866531846599397","1.2876104054079964","0.13272741972521915","-0.19816914005557001"
"0.11316636864360849","-0.26822201986150823","0.029316818307969728","-0.04721643553582881","-0.08435981630356887","0.17537650103362448","1.3138024012502285","0.07668498036643258","-0.22963190955848808"
"0.10993610978096822","-0.12507637380137926","0.048482564941201886","0.28718019658213845","-0.04801520722533137","-0.3358052730124237","1.3232761018740147","0.08082747706103215","-0.2714711334572311"
"0.05780907108548571","0.010573575824066365","0.10132204162908724","0.1799298912056531","-0.20183240895444524","-0.6665167016549203","1.2859385758861521","0.17105211048258145","-0.3396559936547139"
"0.008885332311315918","0.037249189205997936","-0.05799357577095825","-0.11636592551487784","-0.14473312781467243","-0.5612627597731776","1.2151923232867623","0.2935064236012859","-0.33141889644964884"
"-0.1746299582213099","0.017031593567696287","-0.0811078780219183","-0.06732153542072239","-0.3185630795182511","-0.771819181208732","1.136811382537615","0.4094039823976465","-0.3390349426749669"
"-0.1978435323429959","0.041465343166944627","-0.1419915118995364","-0.04136580622009361","-0.060386159702969296","-0.8279529989565926","1.0763468814975692","0.5289822946264698","-0.3629290619483897"
"-0.0769711932622631","0.11283146143272518","-0.08060395649321617","-0.08528162919808624","0.0382057124804887","-0.42496897660327515","1.0125387214138342","0.6445896148009159","-0.42284413804713655"
"0.05427744977157678","0.09010120838335431","-0.01749191552760786","0.07303772868015558","0.10624954105307989","-0.2763708935638676","0.939117541579493","0.7068457992016018","-0.4973539121699372"
"0.12055793266402261","0.14960205769227503","-0.06445368454874621","0.005158201697714456","0.1130824041452943","-0.04361091404032457","0.8594270010382346","0.736041166033286","-0.5495058510218469"
"0.07987015046541905","0.011914559998390627","0.2465547045036416","0.16578709959002855","0.11026310021442616","0.46394994966937214","0.8809100103939375","0.7073603131222687","-0.5384413375142496"
"0.10459708401491374","-0.2694373192294086","-0.44931136058199794","-0.030323068314633213","0.46289627490201124","-0.12304038749772729","0.9340463253632313","0.6465948998250532","-0.5718800297395732"
"0.09317226980803169","0.01763924325164648","0.12979567325292446","-0.16440713052642741","-0.2959464223478741","-0.5784936333576917","0.8396715488551043","0.7214896569436576","-0.46762518237625994"
"-0.01699717700179753","-0.07272293898008458","-0.14854662227699775","-0.05221118045767087","0.07876731096975308","0.09041615984395308","0.8061513669421208","0.7711996172788523","-0.2714874769040665"
"-0.18119638607323432","0.261046048446148","0.03969285171924996","-0.0720149397179429","-0.05281137452368432","0.0029874353412099723","0.8467489604975796","0.7380332583927909","-0.17110929513012124"
"-0.08285401938766758","0.051530514854940056","-0.10629569344835758","-0.010528936550355477","-0.12093657519614777","0.7102058289117156","0.9113094438661451","0.6941940338190509","-0.12478052638568106"
"-0.156750403205146","0.053342038015297535","-0.21851943094075552","0.16881976082823258","0.14500180696871412","1.0133235909829552","1.018501580041747","0.5552620825743754","-0.14084940331429208"
"-0.1109683439149688","-0.08560926714946243","0.08049397352678808","-0.015915520559165494","-0.15733144351254166","1.1174368975710751","1.1658176247416188","0.35749084706882706","-0.17566257941847663"
"0.011691950667380402","-0.13341727459132802","0.04487663465794812","-0.08176566766096843","0.03091572965075662","0.6954503766027232","1.2576289293162504","0.18564319756610725","-0.19756279817797495"
"0.11177798316523971","-0.24320970466574665","0.06303639696072615","-0.07766916811539443","-0.1413226795112029","0.22654006116161388","1.3430594178825086","0.0699699140684989","-0.24586095226608645"
"0.10147389066211718","-0.1777393464103956","0.015183265104391719","0.21401122702546982","-0.08558997098987296","-0.2553540815579674","1.357269968818188","0.06646066527625848","-0.28484007296862635"
"0.06009672982099489","0.0010425126275020286","0.08731343618160135","0.19218569360639506","-0.2604777599917909","-0.6768794946416632","1.2954122765099383","0.16221302517881803","-0.336877607692688"
"0.03600987856416285","0.033880628650356126","-0.029410485782279987","-0.13275192369717392","-0.14045151938315872","-0.5862353920527057","1.2326629417900379","0.27960135507864914","-0.3490207886914247"
"-0.4923121971864826","0.010604321859356837","-0.015819061272490133","-0.07920090272808732","-0.3417541279818439","-0.672996480876139","1.1631148336813038","0.3908814812536408","-0.3346385554762318"
"-0.18225548733967373","0.04289773447321353","-0.11858394384088906","0.0005160156791836001","-0.012774626078595992","-0.7876667311392781","1.0938732276515737","0.5500245947152798","-0.40174474818257516"
"-0.10164825277030182","0.11166809793524791","-0.09770424443441961","-0.06312972366480481","0.002327556998283643","-0.41543132404170613","1.025913357588591","0.6617005008292459","-0.47512682447372984"
"0.051968609010738825","0.09285277079836979","-0.03083137927304665","0.050224414172065836","0.06923480879942383","-0.2733858267316208","0.956086611226216","0.7124394890057745","-0.5412687538167819"
"0.13107577105909926","0.1586596734940625","-0.12851780676325483","-0.03285221151233544","0.12357222513765007","-0.10029320748256534","0.8761731600820444","0.7410939565875269","-0.5923093382838812"
"0.08432126424246404","0.05783449080689508","0.1988143354156151","0.046775845106908104","0.10016577993910124","0.46453240173420085","0.887931694385685","0.7246558964554534","-0.5437039273952634"
"0.11017103769825116","-0.33093977698443533","-0.17201408264848264","0.1119308869979227","0.012247055302417117","0.15139889103151202","0.9857337214135932","0.6210143231026692","-0.6150757597256582"
"0.042919070098680456","-0.0763937663015888","0.002186839743860405","-0.0054379166685704266","-0.35281116037625043","-0.4942807723178836","0.943687208939202","0.671054100053676","-0.5014397738787987"
"0.05231137269333194","-0.009955323421551303","-0.03445589682580174","-0.29379104919380505","0.49345867829520845","-0.13658967865580363","0.8815508783773117","0.7379541024049959","-0.3462097158357279"
"-0.21052386296027525","0.29294506006001175","-0.017206910728587804","-0.12941118258715234","0.04562732664824942","0.09166843178333467","0.8791824532213651","0.7323999905947208","-0.21838108075696672"
"-0.09282882767886073","0.020770976238158986","-0.05929881514038343","-0.04313726548304453","-0.11658077455592704","0.7053277928687756","0.9170493918911446","0.6883364907222285","-0.15712584201771324"
"-0.15946555372456347","0.07721280277915955","-0.23853172443716394","0.23556719055670416","0.1457341558675644","0.932144334447463","1.0044303482328885","0.5873598356252058","-0.1366409657541646"
"-0.1219252279259513","-0.06473208595678749","0.02096163414191505","-0.0462681271803904","-0.19563137628476834","1.1407349801642208","1.1442510239098238","0.3822402859193646","-0.17055688662708315"
"-0.0017172341850759116","-0.1266656114363259","0.03625007635717434","-0.0787493731659547","-0.006644674331454568","0.8050727089706807","1.2728425779650365","0.1718040923666329","-0.22410782452810718"
"0.12034033549473595","-0.21941268883788542","0.09834394800454432","-0.10200170149138447","-0.09760432220630601","0.26176627666572944","1.3093441891919761","0.08227867017060528","-0.23679033927241366"
"0.08912573271476656","-0.2211265725618475","-0.031783460521946985","0.1440770961228854","-0.06381575438287937","-0.1279329848422879","1.3196538045766846","0.07082743726961027","-0.2602268420344439"
"0.07244488776834553","-0.02689680435356424","0.05505626258816452","0.3169387867005152","-0.20403663554216137","-0.5693928198447441","1.266433898131299","0.13371686957265536","-0.3104829410534419"
"0.061261741214078264","0.0233251823455667","0.0320844627367145","-0.003602723382137245","-0.08676747314096561","-0.6207456768938028","1.210817702704602","0.24536639035735647","-0.3445099973648415"
"-0.3995638108263824","0.04692484186582016","0.02337859875273515","-0.3071636411298857","-0.1985344456125638","-0.5795129244711418","1.1572355665294833","0.3416464568452153","-0.33926375093066313"
"-0.14157637051506833","0.04050764571634279","-0.11156828223022866","-0.04666766826415379","0.08224716488781954","-0.761723345418369","1.0851239864872533","0.47084222159111855","-0.35317202418762816"
"-0.14222145946826328","0.09142557307914316","-0.11872438098823228","-0.06192821216471636","0.023417529977233766","-0.6514457544774792","0.9860123596672339","0.6178085055969759","-0.38883342518257236"
"0.010263126777020293","0.07697389777521332","-0.015455576891131216","-0.004606774939382636","0.07918853125144476","-0.31112386676531","0.8821081548845932","0.7126901496337915","-0.42122613681042737"
"0.09757302813395415","0.11868982761645007","-0.07008149670330895","0.049618844674024463","0.1714620992095276","-0.15558975038723463","0.8075166943849604","0.7511467670374786","-0.4747836120901856"
"0.10452785730486194","0.09391745614204319","0.09559303211835071","-0.07502449496576061","0.007505215847214171","0.26768787265815397","0.7928603222434562","0.7538248779578728","-0.4699132649332224"
"0.10863822931991338","-0.14701408546809375","0.13101830253567717","0.2199802745419349","-0.07498048514476387","0.3616325369478072","0.878959542618452","0.6575975821285437","-0.5116871150446237"
"-0.0037391547846421054","-0.09241805976192992","0.2472775427620258","-0.04660797778898915","0.25511022458115135","-0.34971131606020756","0.8815230145519475","0.6774657350650628","-0.3834891180673814"
"0.1270896990199545","0.10323579001335452","0.2033847384607701","-0.29136492020324184","0.2116407701699814","-0.2948394777861425","0.7168199428248916","0.7562655209148821","-0.25936063935216525"
"-0.1113534716482195","0.15829612240110083","-0.023437776515859647","-0.16616896229338404","0.12478323344751364","0.015042008887919777","0.6925505509327811","0.7709753419801003","-0.07983114455415256"
"-0.07720226990221353","0.06913158134132627","-0.1149449695229663","-0.014233597008961544","-0.06028085463254638","0.5090657158575574","0.7207208783758624","0.7490227480316489","-0.055332317747818265"
"-0.13104312701066162","0.06495697607671805","-0.19020688898592966","0.13429556019267813","-0.0423454865018792","0.8098051319974136","0.8440183056119005","0.6399721821795469","-0.0785220344626333"
"-0.13054246095743574","-0.026575840674349527","-0.03129606101057936","-0.007890039898318258","-0.15851851885185456","1.0334667248916125","1.0103653430354367","0.4706707169508963","-0.11515423619960306"
"-0.040172238350158526","-0.08835875212966098","0.028735243297795466","-0.03225723225988778","-0.13476983217443125","0.8512805727804198","1.195687645531909","0.2522001906369825","-0.1500785477422687"
"0.07489237451315373","-0.15102353466475657","-0.009706327909159936","-0.09391267935697485","-0.01504466833532642","0.3766549464531793","1.2686630041604248","0.14209421161428187","-0.1548557372522697"
"0.11949690575891692","-0.27294818407000965","0.008537324936633998","0.0779082789036712","-0.07840289993350874","0.11684006851834586","1.2661552598776575","0.11416534058731598","-0.19575521295797457"
"0.08167351107636546","-0.07388318632533648","0.05205132068545305","0.3398811096549285","-0.13353967748812715","-0.4202850912486115","1.2639261538485318","0.1270413812686191","-0.24997950086861898"
"0.06389408927084682","0.02371054650410605","0.1145726995313531","0.021533513359456847","-0.22871152817989535","-0.5944382586323756","1.2259198960519315","0.22560377873789744","-0.3172654714901522"
"-0.0495500986548131","0.024110452706363868","-0.052776748797591096","-0.1992779210177766","-0.17510406744346432","-0.5392023878177927","1.1565389708953815","0.35412671758754394","-0.27982263479014424"
"-0.07390942778292","0.007121814004006758","-0.11778056074799918","-0.0472674612645986","-0.12703948268656698","-0.7682759311476911","1.07512087318155","0.4908554938385948","-0.3070998475585045"
"-0.17900115799370536","0.05567084244506903","-0.15511825467179358","-0.053897917755871966","-0.06355488500387714","-0.7390077148900519","1.019393222453397","0.6131119169878121","-0.33986845846357466"
"-0.016284690695283714","0.08485984034025577","-0.055257116649932325","-0.04095086114273934","0.03776295252530142","-0.36007410904695053","0.9575633939705117","0.7199988858401869","-0.41866021565726225"
"0.07044029791677561","0.10529764406915133","-0.05678746850554003","0.1027462558193619","0.12953153480476526","-0.1624651116358161","0.8884053794168739","0.762030715359277","-0.5108862861496868"
"0.11880078738106627","0.11886640957588862","-0.014381645764388969","-0.10468777287379376","0.006177414641063363","0.15242303591216905","0.8505105769217302","0.7773078210036919","-0.5345352537205779"
"0.08679542108279988","-0.05538362928063076","0.3286691306560872","0.3722872611717373","-0.10661269232157572","0.6170620362112017","0.912423996880708","0.6968193740809149","-0.5528072272826072"
"-0.012751143742708516","-0.09522363548218539","-0.2502003991796518","-0.06919889713961058","0.9613243195901279","-0.3728637856371461","0.9548884667355602","0.6491542767637548","-0.5500451847674166"
"0.16076526801539587","0.1946408445231813","0.19398577584960863","-0.32410803407985106","0.05454475147542661","-0.41164538562031994","0.8456344074830168","0.744431700739545","-0.459355398277524"
"-0.031564633512005315","0.021398361552869952","-0.15026697733195216","-0.04854214173424371","-0.12163063134211702","0.13345208678397943","0.8410926039486726","0.7774265549853843","-0.23991193761798393"
"-0.12694151665154166","0.16489197794483362","-0.06470151480876365","-0.08909893135982559","-0.1285017871872125","0.2715951552597128","0.8934208679824077","0.7373472398319018","-0.13936378399694996"
"-0.09681489971800551","0.09317996678203525","-0.1880425047151107","0.034582621430129044","-0.07259676127791778","0.7819202393937422","1.0016996933472087","0.6427690270816333","-0.12536889047175714"
"-0.1667829806563268","0.008762260407190574","-0.07824543851871683","0.0962371057776167","-0.04889833383865085","1.0899160375079218","1.1110094802504806","0.48176574790681426","-0.14154073111543145"
"-0.0780688073020276","-0.07793626165315466","0.07925895273103449","-0.01614850596222752","-0.08360832102827803","1.0196577571879668","1.239573170480329","0.2773454094264946","-0.18524474229809892"
"0.0776402608898975","-0.21691976705757698","0.08014701116276367","-0.15724427350666934","-0.05172003106657408","0.5269761168510383","1.3065578066555688","0.1290994369512864","-0.18751811575290953"
"0.1017011160247351","-0.2984071477514099","-0.025878904577031445","0.04471941196252595","-0.08128203629075353","0.02395522429832043","1.3712018815002258","0.05399359719856232","-0.2558304548357088"
"0.0824736139421938","-0.06758959754746607","0.04501707180529134","0.3579615471322211","-0.16465493250104465","-0.5573797460076533","1.3745455405439153","0.09688294991876363","-0.32084468634711494"
"0.07713574355933908","0.0068147691380654315","0.10956239777466717","0.06788798107280532","-0.17149018889031414","-0.6669292718675073","1.311294656967462","0.21444278445881712","-0.3584182706218065"
"-0.04119282684327286","0.030271085655951158","-0.09394342023865493","-0.17699026779097557","-0.1943030964192065","-0.5428669820590063","1.2464276715198919","0.3197862115491915","-0.3368612642458525"
"-0.07449674757612736","0.04053257493414588","-0.0977187011995873","-0.06689503734817495","-0.0997223901000397","-0.8505230164687024","1.161443004159459","0.4497075728498812","-0.36449803284459253"
"-0.18513431714572273","0.04677630527641012","-0.109564987628421","-0.004481136116657041","-0.020117979432656054","-0.7672323711982065","1.0891642411650446","0.606713474641058","-0.4268319390749855"
"-0.022764464807226777","0.09694323995289258","-0.06869571249937809","-0.022006837274758162","0.008941912069370497","-0.33286874385224596","1.033575909563712","0.6878615547954592","-0.5325086663129824"
"0.07853760850837163","0.12251230767958975","-0.07167587137608783","0.03977665551905309","0.11519807874197296","-0.18269561335419762","0.9414581029100759","0.7291150171012326","-0.6010203954471743"
"0.11724775979673283","0.1413130927727494","-0.018020620082311735","-0.1270043085885777","0.033849911840267956","0.2370363327465467","0.8929193191258545","0.7372153131855769","-0.5986505956560346"
"0.08065099694458486","-0.04975066477454209","0.2754062772740054","0.1952664923245706","-0.0103722344947204","0.6702350559628499","0.9859844958418696","0.6792335521258155","-0.5499307806395686"
"-0.024516795993517474","-0.16808966168578493","-0.34697811571646275","-0.12440488467011712","1.100183414725077","-0.36216122894591984","1.052746221414197","0.6256053703947732","-0.49704338668006365"
"0.12417620771791295","0.09329838056659992","0.1708239727988119","-0.1761526756394716","-0.27060140653472153","-0.4945962671863325","0.8953156081071653","0.7076901297380807","-0.4441069623800525"
"-0.069230125823924","0.005627203524970988","-0.1196248309329623","-0.00040138841411310484","-0.1931399540504443","0.10546041130175624","0.8985756756747619","0.7431652049348266","-0.25367311985342983"
"-0.10564395300277787","0.2538477368055073","-0.010375882661640386","-0.13253049128930505","-0.1501132595944616","0.18666879044048978","0.896402297296364","0.7305134395522759","-0.1556614691812572"
"-0.10296731525668548","0.019354165693017008","-0.151169492528849","0.045984464936176764","-0.11695412889651739","0.7454927165059175","0.9811083264031562","0.64137060463059","-0.1389764443069499"
"-0.12657564530495352","0.04215401280875484","-0.12042821402585219","0.13561452714389702","-0.0015091375106932097","1.0627106723132171","1.1037927494811846","0.48501114340640494","-0.16564894954239856"
"-0.08385535149411939","-0.07816166333079089","0.047264066162782795","-0.02713347889172212","-0.14911046812838877","0.9850989346748006","1.2242480665300872","0.2905644593882423","-0.22146672351949903"
"0.040646816472501304","-0.15730777498595078","0.04456478158075951","-0.10477442033774245","0.014756666594359683","0.5950744707639204","1.3160315072793545","0.1364873291454767","-0.2463839425648207"
"0.1208313733546306","-0.24873568127876372","0.003469567864667345","-0.08405797445721092","-0.029265639436530627","0.12889197249309187","1.3391584823315377","0.07665859503716764","-0.2602104985876085"
