"AccX","AccY","AccZ","GyroX","GyroY","GyroZ","MagX","MagY","MagZ"
"0.0276121683406313","-0.08752362333325764","-0.15978572456878873","-0.22451158801883297","0.36493862643814584","0.048591247822049606","0.8461638201649345","0.7558829336405399","-0.29131207791546315"
"-0.2532345285777781","0.2771046195809684","0.023003962009675447","-0.07305759753412543","0.04339677379292759","-0.14459354077999056","0.8720771777535256","0.7245371624737611","-0.21599493751899151"
"-0.07189713537668509","0.08665786017430324","-0.08438543321064894","-0.09409849002966483","-0.10044277251361468","0.7054491370489483","0.8889626559241554","0.705922312677328","-0.15049040260252194"
"-0.16053428318433413","0.03521953538986346","-0.23105551159330445","0.23253452931850016","0.11356824344747275","0.9541804375668134","0.9911950311849523","0.5741539783280906","-0.15161156305543358"
"-0.12514104449859464","-0.0473699244743475","0.037171178823572494","-0.03561048911470196","-0.12818347867888868","1.1398370332309433","1.1355575103962317","0.37784712859674796","-0.18022076674088267"
"0.0009825112250115117","-0.15136631140954895","0.0367085623382066","-0.08425052437709689","0.038954814458724465","0.7716059840790683","1.2285112318107907","0.1956564300221617","-0.19556399462999985"
"0.10760993827213398","-0.22719268222726477","0.050349552899999955","-0.10224238889124194","-0.10879537923579621","0.23177970286146818","1.3140810395038693","0.06748969311759216","-0.22771972627874085"
"0.10803646723670916","-0.21232863611217553","-0.02006521972745563","0.10677054914497869","-0.07137378648277888","-0.22411280893072105","1.3207683575912474","0.06941582215393462","-0.25241467444710053"
"0.057573180348869664","-0.03779814355537146","0.07084511540344236","0.2589331233348667","-0.1874917730004877","-0.6424905539807387","1.2474307692329984","0.16497029208700692","-0.27925061415090363"
"0.043130890351968335","0.011564304488257288","0.017200809946150374","-0.0027831346481426134","-0.1295093652473954","-0.5890020393606418","1.176043648650235","0.2734271880306473","-0.3096003949243278"
"-0.5658715942373668","0.07184678864704558","-0.04095937589909276","-0.18282453036352048","-0.13953488661106833","-0.4939410086134003","1.0905852962586124","0.36778112548216363","-0.27166725481925647"
"-0.1562882499252452","0.03772180562684808","-0.07767749417284354","-0.06932598008673532","0.008137285599457192","-0.8255746530252089","1.0008359147609223","0.5309875796506072","-0.32971917797876243"
"-0.1396603600421461","0.11357933796681775","-0.10644645685653487","-0.034143258725170864","-0.0033706439601238116","-0.576988965523551","0.8874022817037678","0.6658298048592131","-0.3816749954686468"
"0.032206742198312176","0.09347703996085535","-0.024259746878250825","-0.002413342527001607","0.06395519549594748","-0.34837653007830854","0.8049253586261014","0.7306717515278656","-0.4301496587825811"
"0.11186848818255364","0.1383631353327177","-0.09750598022640566","0.027071249055377344","0.11469548636040901","-0.1064041003960592","0.7262657796233135","0.767663983157347","-0.5015868649003178"
"0.10561979071056099","0.09970518954199266","0.10665039221946224","-0.10907791104719389","0.06139676094408156","0.3398148533527676","0.7244267671492844","0.7700782407850915","-0.447784237918028"
"0.11317888529493915","-0.22243535649650945","0.06878399374096397","0.10554785715370278","-0.05216279102176134","0.33134502957671774","0.8571421673583806","0.6743918442056942","-0.48784202611170724"
"0.0032663186831881712","-0.11626805017762268","0.1931225004438812","0.06265447425030464","-0.1832125578660291","-0.3329900880324186","0.8559718866930891","0.6946293917519228","-0.36271659713952886"
"0.13693356388184247","0.20644067428330803","0.25524941612592017","-0.15448118215630566","0.2157979271546316","-0.1351796592821976","0.7452967723469777","0.7568987688172412","-0.30518766427875726"
"-0.07775107692209576","0.08459912227073182","-0.08800375500690359","-0.08819972323395812","0.1709427537485782","-0.010030610996070544","0.7473865592492834","0.7446823613675622","-0.1403607342539122"
"-0.09663196404471142","0.08760828660304583","-0.06830537983985062","-0.09267554612170749","-0.018438363559410493","0.33794615297810904","0.7739129209958842","0.7189698579988535","-0.07385924908048042"
"-0.12567059513181436","0.09538308640538286","-0.2146574093888171","0.1118249845419854","-0.09235821506160058","0.9252034473415883","0.8518201767138417","0.6472809183859424","-0.07204185779237876"
"-0.13846646406906896","-0.011310849639594028","-0.04458595870401466","0.009059744449403927","-0.14095650506177773","1.052663374194923","1.0154365592516985","0.47118523087156305","-0.11727071256479342"
"-0.05950565055934376","-0.0905203230566701","0.029905828225944515","-0.04670232724973328","-0.0929397862459817","0.8935811539885999","1.1901706081098211","0.2608150006419938","-0.155414683134042"
"0.08386392505922885","-0.19511708865396254","0.05891828414010299","-0.13909644355741665","-0.04144800010622933","0.4223531647061932","1.2611397713121244","0.14593327702233433","-0.15316582484948452"
"0.1109817315767439","-0.2718886923133786","0.0014768060489104345","0.05755767787092302","-0.07269009986306536","-0.00955178686110933","1.2809230873206183","0.11208089957538371","-0.17721847555721115"
"0.08052583043127838","-0.06252169531158067","0.032970455916276856","0.2991182916150687","-0.18089823961377993","-0.5718197034481968","1.249130462580207","0.16568269597716095","-0.25380386742811345"
"0.06963826941228103","0.01775246344916882","0.08484959034659463","0.0008795499279283116","-0.19894609270603525","-0.6189740518632824","1.1952139605007193","0.2857359441327536","-0.31669345085091155"
"-0.08642607911356782","0.009838683257579599","-0.042122112869007924","-0.1698081557792289","-0.17705699784039844","-0.5350038791838196","1.157402749481668","0.38499755282755355","-0.3003663474623005"
"-0.09390718533196273","0.0460170028508245","-0.11980863837580859","-0.031049944262202752","0.014934488565551112","-0.8155030860708803","1.0903345218303357","0.5082038478303096","-0.3196843016217983"
"-0.16505953405002993","0.06243497020897266","-0.11813371886852404","-0.014492576651208176","-0.004996410649630379","-0.6764426555930418","1.005071216216262","0.6535342414217392","-0.35766647206737595"
"-0.011085466296399246","0.08206672922890182","-0.030056909710492144","0.021815598992089794","0.02817301122565059","-0.30920662871858234","0.9091082016623832","0.7422021404166553","-0.4401845351395453"
"0.07375817333873042","0.11080596248622455","-0.0670972073222656","0.07085613808784755","0.09491967279439582","-0.11973497202982476","0.8450214033250074","0.7700518554558264","-0.5424291385420985"
"0.11954408390624013","0.1289835171343071","0.010262161588790389","-0.11991847153677401","0.0021837198452741564","0.13206876313001142","0.8111111278569261","0.7867009982220196","-0.5577919785674184"
"0.09597413183659052","-0.05546568795589925","0.2122384744998932","0.22942484811234173","-0.10976227124604303","0.5778435971794065","0.8942289189179663","0.711252149188851","-0.5627440429585586"
"0.009437027789197546","-0.11891677956920045","-0.21461610434548084","-0.04315459497583427","0.9807818246478172","-0.30461981870805677","0.9547770114341041","0.6763707439005667","-0.507781031250952"
"0.13855495163882792","0.13222431544870814","0.27111055276703644","-0.24212027819240495","-0.010096048014565743","-0.40611209100444784","0.8133959615367807","0.7454079579223487","-0.38902954654459776"
"-0.07844430684194706","-0.006265695314953927","-0.04099448518592856","-0.0055161882110040745","0.1501378224488865","-0.015193077797335081","0.8072659199566837","0.763943651730987","-0.2209502705994989"
"-0.06815176817082201","0.2291470368322843","-0.10663026429938112","-0.09527689553936697","-0.13044753769298142","0.36704448738350665","0.8139811018694262","0.7687853596511081","-0.15748212915872595"
"-0.15121419203966716","0.02368353985148604","-0.14036615844425537","0.1002045968768671","-0.0453754005735932","0.8820534568721996","0.9465293191263373","0.6451041287215826","-0.14887240136581276"
"-0.12370644369223578","0.026375895374219183","-0.07301002427584839","0.07240327669413132","-0.04926211499102094","1.129498509080235","1.08974938149769","0.46499787115892866","-0.18005079489379403"
"-0.06227857023874882","-0.11437758449422211","0.05806740024737644","-0.006938650744161679","-0.09748705065060774","0.9903895409303274","1.2433626507298434","0.2225826585370589","-0.2043796498530397"
"0.07233705200303532","-0.18527004762174407","0.05284644276967567","-0.11040650549440709","-0.00021843240889593213","0.492829864550459","1.3062791684019281","0.0784396047625528","-0.20486831891341956"
"0.11358134377618613","-0.26661200787839234","-0.01012660672510618","0.01383151656401804","-0.07888634593863214","0.044201015383403715","1.313523762996588","0.04311360667615382","-0.25346065504456905"
"0.07964196228346801","-0.07524909971746384","0.03626453312234202","0.3560264204373671","-0.11539369921661412","-0.5084780413980818","1.307393721416491","0.07485119998251749","-0.29451539349521066"
"0.05886624671325889","0.03049960348581277","0.1477860848780239","0.047245666911429875","-0.1888798852924262","-0.6744040733661416","1.2603038565512015","0.17875662662795128","-0.35668586525724916"
"-0.08351836472752502","0.028298561297282088","-0.04623816043746427","-0.1915855517183321","-0.24179089658583292","-0.5221899337575895","1.1715018451158903","0.31986536753698636","-0.3355374450521814"
"-0.07632610430906817","0.03165569596143082","-0.12279705826118556","-0.11072421286221892","-0.04696933641226738","-0.7796094775758152","1.0866564968822776","0.4541139228371305","-0.35500249023319813"
"-0.17760506996067155","0.0666251562347078","-0.12658886123945243","-0.05258376455265023","-0.010444990725194416","-0.7851913098637563","1.0178607120583731","0.5757634834132536","-0.3793215391243426"
"-0.007609688503811654","0.08832707904970145","-0.02603999424604278","-0.02970498307179925","0.03052322893372573","-0.35917616211367304","0.9384766735961193","0.6750778627665833","-0.45481192005726995"
"0.09036025966370168","0.11199010033187108","-0.037636385162692236","0.09814431273408723","0.09157145021435802","-0.20659798996460305","0.8463310031171186","0.7163181324077244","-0.5468091822939982"
"0.1244188381898609","0.11955196306547344","-0.02463562277261061","-0.1296614974830041","-0.07005507980543733","0.19217296245312046","0.7853092255697912","0.7491546746779738","-0.5556673304788102"
"0.10001608590982997","-0.044017983397241084","0.1772675595592654","0.1941304477972434","-0.03566100782707892","0.5569966670257479","0.8773713045727001","0.6736794403155402","-0.5515487818762778"
"-0.01668907481519695","-0.138320020759268","-0.18233827823037588","-0.12292225028699513","1.0605982814342798","-0.2960043819157998","0.9243497141365326","0.6484682582028658","-0.44011916135220347"
"0.13524574159087127","0.15352840949626087","0.21231282357789844","-0.15657034878706844","-0.15259032204645523","-0.45280533153487734","0.7894330717236749","0.7322548712837634","-0.39048411331295246"
"-0.05113875055447224","-0.054032257932221876","-0.09302851352875721","0.10101330654038818","-0.04204393107294085","0.07037495504664086","0.7778974480229475","0.7429409296360746","-0.24948919746355558"
"-0.05939011223936854","0.29064949458731104","-0.07574235289254068","-0.18753237590473243","-0.14679854317319468","0.1555173125065712","0.7821606133036509","0.7490887113548114","-0.1226411691949211"
"-0.13357534185678505","0.00201475212182233","-0.1352133542880594","0.04478872993368489","-0.1277407187237014","0.7960447019658368","0.9038976663193005","0.6471753770688824","-0.09778768959225762"
"-0.12498699340529439","0.048200386843411325","-0.1250894881663469","0.0641881343621964","-0.07350142756473287","1.0455283364007721","1.0161052910604365","0.5030323232943763","-0.1434169588121407"
"-0.08532846507380334","-0.10341911583494949","0.07040521669191141","-0.052523111327886146","-0.19453763953060305","0.9558064495811267","1.1485420530158912","0.31565690751922443","-0.18810321114961853"
"0.041371819430345756","-0.13938989968998372","-0.005272851082664586","-0.10865430122344476","-0.006939289198933237","0.5290632367500075","1.218786756758728","0.17445581795776194","-0.2067755991591161"
"0.12350127136539109","-0.2528386150421881","0.03150206162567352","-0.06894569399496053","-0.053266100964146926","0.19886388054783952","1.3012636798363943","0.07861110940277508","-0.2356136111002615"
"0.10272449669391553","-0.12349752334051725","0.05258002524015692","0.28623670197469725","-0.060560870387989144","-0.2795986487564597","1.3040500623728017","0.07696202632371474","-0.2739880242698899"
"0.05691076064767846","-0.008048238259615325","0.09937037833144989","0.19081858917520467","-0.21288704805179667","-0.6571731997816275","1.2318270270291154","0.1719624043422227","-0.3222992531154697"
"0.012801118539142422","0.05234902417280799","-0.05527157341510001","-0.1121875922533523","-0.1298875061820959","-0.5278688413896687","1.1672386798351868","0.2760789136217763","-0.32287127375471036"
"-0.25328266954443446","-0.006493589914370459","-0.07201870323577862","-0.031030689270214157","-0.3343109741405876","-0.83115648531315","1.078464532225239","0.3950239779482404","-0.320991777368634"
"-0.21133263120010176","0.04212077385168406","-0.12717126235049342","-0.06664087145392547","-0.04010775375539218","-0.8151875912024314","1.0008359147609223","0.5577818815191796","-0.3564080266610466"
"-0.07855021696859095","0.1155217395206414","-0.06132895802035964","-0.06069974367584386","0.02413551909375367","-0.4324437781019094","0.9123682692299798","0.6795237907477301","-0.40738323734080417"
"0.06466819601468073","0.09625249287626543","-0.018594760184685474","0.08642572460982709","0.10133131560491858","-0.2787977771673203","0.8232597557156635","0.7358432760637987","-0.46337588619904385"
"0.13288202012804506","0.14502131392095824","-0.061531352732707226","0.02244523723011691","0.10554351842183532","0.003955033833906556","0.7577519022847198","0.748719316745102","-0.5092355980193067"
"0.08643320844967758","0.03341424453395675","0.17611101834585066","0.08254199272572707","0.09406287244868206","0.5064204127297941","0.8049253586261014","0.7123867183472445","-0.48143539495221216"
"0.10036279715168892","-0.3460738896257246","-0.2782671761266271","0.0686456650075566","0.19170221240422367","0.021730985475756054","0.8949812422027961","0.6147478074022399","-0.5483291228496947"
"0.04136026559834824","-0.05973377778726903","0.01552010773279876","-0.07467501686116758","-0.3431901062148837","-0.5811389364854551","0.8048974948007371","0.6843127280093212","-0.4199513479572626"
"0.026771627062811644","-0.023178196031270786","-0.16841847862606293","-0.16935566346749684","0.45739169167535865","-0.07234521590520429","0.7422874792076575","0.7452364532821265","-0.25476813079140476"
"-0.24169032477358834","0.28856167259630267","0.002191796349060753","-0.04658968554659997","0.020978760278121164","0.20352349706646866","0.7585042255695501","0.7145239300177066","-0.1768327702118946"
"-0.09482186369843312","0.049847792653231845","-0.08957954241018115","-0.06560784113373724","-0.07975989936373135","0.6139556251987823","0.8043959459441836","0.6712256046938985","-0.12238130839023752"
"-0.1469296460072531","0.06385905177597387","-0.23041528342159276","0.19370683797349425","0.07527070397230114","0.9603447219195832","0.9276933731802217","0.560525955762736","-0.11055192157074135"
"-0.12459223747871238","-0.0657074416033332","0.04958954010261313","-0.02454753346765354","-0.14947664257781393","1.0790435989644536","1.086433586279365","0.36679167563472737","-0.14829384334783796"
"-0.0060499211841463195","-0.12405843074108663","0.02024581774089801","-0.04952607182486101","0.009530663144916815","0.7400807660702179","1.2239415644510823","0.17256926691531693","-0.20750451688797705"
"0.11590558964635413","-0.1850519169659671","0.06754071193654314","-0.11900385941731564","-0.08682251897323212","0.31202703609323446","1.2683843659067842","0.08577472629821317","-0.20944611837202812"
"0.1004006359514808","-0.2140425198361376","0.007575289172289627","0.06262559176232174","-0.0843071637683574","-0.03813101086372843","1.2825949168424626","0.06490393084962552","-0.2273765138951965"
"0.06672285247157322","-0.044987106739335994","0.07329863497761503","0.2386672442668683","-0.2235228601645115","-0.5658738386197377","1.2214616839936796","0.13533956732245075","-0.2649337547230525"
"0.05971160208774419","0.03354512292742295","0.08981858705994432","-0.08303649713221584","-0.13232148928709836","-0.5127736253761931","1.1738424064464732","0.24148774695540662","-0.2986993158850849"
"-0.16123714129751673","-0.0018997583037070368","-0.03594907414240682","-0.20398576655898856","-0.13461426786585193","-0.5463859632840127","1.1536411330575176","0.31747749523850705","-0.2773547743179918"
"-0.09387830075196892","0.026688549314166202","-0.1598724651597948","-0.0797650739933532","0.05218735387618627","-0.7872784297627256","1.0630837006242693","0.46658099091482663","-0.3094533039028088"
"-0.15031877005985933","0.0804359428976167","-0.11565128576401601","-0.052393140131963105","-0.01855467779628672","-0.7732753113708037","0.9859287681911414","0.6132834216280344","-0.3386263565040808"
"0.00232468137539021","0.08154113822022012","-0.034819381207160646","-0.023369127957951402","0.08998230096979395","-0.32444745774826517","0.8956499740115339","0.7234289786446325","-0.3741570099243414"
"0.09006881425156421","0.11497121929415664","-0.0558374525088065","0.1151079606760412","0.14799582158460212","-0.16088521040996837","0.8149841995825327","0.7663974873526288","-0.45750858878511863"
"0.12408473988126589","0.11053589596002451","0.07003760180621887","-0.06689407459857552","-0.09472757914611626","0.24081256363351908","0.7949779729711259","0.771595397217827","-0.4945101524205694"
"0.10469134402762686","-0.10491486890313455","0.20148883697163666","0.3083991977535724","-0.14894054403747906","0.4620327116226446","0.8997738201654173","0.6694973656270433","-0.5601454349117226"
"0.015000197896003936","-0.09452665610110748","-0.11214035708043557","0.01486069588580855","0.7729239754153053","-0.43465224218105136","0.9177459875252468","0.6555527191105089","-0.544275948034504"
"0.14534764203403716","0.1623678946422713","0.19050789120069722","-0.40946541356530164","0.07119731238457823","-0.4037580139090987","0.7972070790002521","0.7353947254662944","-0.38715005015852144"
"-0.046574986915451436","-0.015384699315581443","-0.021064801776192646","-0.025429412100731283","-0.03668533896664731","0.05816773052127388","0.7918014968796214","0.765777432114902","-0.19281666121696128"
"-0.08994036967948046","0.21851057056963483","-0.08896203201230438","-0.06472114875266234","-0.1349924088005524","0.3653214000250553","0.8080182432415134","0.7662127900477739","-0.14058463947555783"
"-0.12743255451143629","0.06303638758847208","-0.17107645816475","0.051126510546731604","-0.09729558688620245","0.7618499119931886","0.9088295634087421","0.6678878605418803","-0.12185831809150323"
"-0.14233699778823847","0.013383410285696541","-0.08856550359627645","0.03719071009498451","-0.11001835403093513","1.039533933900244","1.0551146465701435","0.505538929574548","-0.15143341948492722"
"-0.0765571809490186","-0.11919723326948513","0.059374704868968446","-0.046113124494882196","-0.1653992478851703","0.9539134803704336","1.2229663305633396","0.2685327094519962","-0.19408981572544257"
"0.07407686653799538","-0.17032290411397794","0.018273088871159172","-0.0727504804119073","-0.025162331635619383","0.4397053824708799","1.2965268295245012","0.13775382495019503","-0.20859625913658486"
"0.11878538227173624","-0.26706904353811556","0.01814049968204984","0.051785994022341054","-0.05547032755186303","0.06360637667661134","1.3060005301482873","0.11295161544112757","-0.23914379561671795"
"0.0767737234900834","-0.06679186257776737","0.04484772112761274","0.3374357256723767","-0.13767529479928178","-0.43540457609812167","1.3199324428303254","0.131685199219253","-0.29950014478002185"
"0.07237363913769414","0.015337445474494997","0.08246628934609355","0.07675394213395481","-0.20854800049096142","-0.639966595033148","1.2686630041604248","0.23582809382807152","-0.37544814222434175"
"0.00926757158656724","0.01588069467912055","-0.0901557477647217","-0.16070054456862248","-0.12130992953673812","-0.5296404664201891","1.1974709303552098","0.3558021859958693","-0.35717616866231255"
"-0.236856971721292","-0.00534861171502295","-0.1084476862061757","0.023387769087958737","-0.26334971645787053","-0.8744520887987458","1.1129320842006019","0.4701693956948619","-0.3431534912774994"
"-0.19275984626408665","0.05923156572127628","-0.11452572333310347","-0.06490407117655402","0.00391144098932655","-0.8384128672874736","1.0304272972975714","0.60523589620222","-0.35260000354838755"
"-0.06935529233723046","0.08225993066687573","-0.017045821059576464","-0.059092914594395446","0.028711503063040517","-0.4142664199120488","0.9310091683985471","0.7245503551383936","-0.4145906973952361"
"0.04757719003234769","0.09562822371377987","-0.011810406816708011","0.09904929735755127","0.08171824623864987","-0.1778491267981026","0.8588418607055892","0.7686534330047832","-0.5304003616712101"
"0.13272219211874603","0.14212329235134966","-0.08593024183142434","0.020104792953902946","0.05974059938197565","0.030001319419602088","0.7915507224513446","0.7804212898569578","-0.6231984528028751"
"0.0899760947497841","0.03445192322501015","0.19352522461640953","0.021158041015679203","0.11980996216708578","0.4836562445294079","0.8135352806636011","0.768072955760954","-0.5542781374977974"
"0.11240766700910461","-0.30793218638700515","-0.24646229275772208","0.06698010820054297","0.13305207477276787","0.18317407805151795","0.926634547816387","0.6764367072237292","-0.5634958415129891"
"0.038614304860270725","-0.0686781733915341","0.035430171246949964","-0.0933234766021238","-0.39321001466577027","-0.5545402921916137","0.8587582692294967","0.734484431606653","-0.44095267714081127"
"0.040904852053779285","-0.04948371440056739","-0.07547387011085512","-0.2295371409278568","0.3901639773985451","-0.09493707536974529","0.7794856860686994","0.8052234993660252","-0.2734977208648265"
"-0.24262425952672131","0.2580026064393548","-0.047070457060689505","-0.08040915347537178","-0.006167929558085353","0.11468014211127298","0.8324269542604447","0.7715558192239294","-0.1695844515403741"
"-0.09121129119920779","0.061191625471043815","-0.10867486394452502","-0.04385258843542091","-0.06472999385791471","0.6481018774993614","0.8613496049883561","0.7410148005997319","-0.10857599884833587"
"-0.15226366511277534","0.06713308904744565","-0.22364125631444937","0.25526504736103894","0.14635641310188166","0.9670914583371816","0.9556407900203906","0.6115024119026492","-0.13988677429568427"
"-0.11570541503395244","-0.053611577381794825","0.029301328916718637","-0.009393854772627686","-0.11600398996565604","1.1179222742917656","1.1186441684002375","0.4050767883981922","-0.17899337388354064"
"-0.020318903701084825","-0.1255437966351871","0.06338542457691737","-0.08251372409972542","0.021490925847905355","0.8559887269711179","1.2277310447005967","0.20954830588016596","-0.1928575198340499"
"0.1084552936466193","-0.2428046048764465","0.05986416963250289","-0.11038725050241849","-0.13777581327559457","0.26676565688884196","1.3107373804601805","0.07838683410402286","-0.21955944327380236"
"0.10988893163364503","-0.22849107898784207","-0.013450217037156752","0.09781697787028108","-0.08334984494633087","-0.26013504225676914","1.3232761018740147","0.08771404799918812","-0.25386924121545523"
"0.04700334970980415","-0.012884506513413748","0.05424048798227378","0.21511838906481412","-0.18947102966502757","-0.7035994831156772","1.2653193451167355","0.19491764080274265","-0.2963458595407807"
"0.05040306477507472","0.0031459673155077184","0.018036410972842514","0.03140651050160997","-0.153808510247484","-0.5200785450225857","1.20348951663385","0.2966858557777142","-0.33418093896483936"
"-0.23759834260779966","0.002165573889530992","-0.010767454472467946","-0.12723536849244085","-0.11210770236000805","-0.5761395562623426","1.134415093556305","0.37573630225555066","-0.3110059313521762"
"-0.11130533068156317","0.03407694624055541","-0.11942243622061474","-0.05717511739233117","0.09406526574573715","-0.8207451546543381","1.0542230041584928","0.5406841881554819","-0.3634847391407949"
"-0.1605824241509905","0.07008824007451964","-0.11499866607930341","-0.0024077585793249143","-0.010882964086271556","-0.695712111404456","0.934910103949518","0.6812916078084827","-0.39591013766232075"
"0.0016757411448627673","0.0831075240721806","-0.04131459927178442","-0.0020438392307404302","0.03783953803106355","-0.29333480995200184","0.8441018970879924","0.7393393321914066","-0.4502520983901804"
"0.05730744221292668","0.09818242982118758","-0.03613081633308628","0.05485523974532342","0.11696911856272205","-0.023140150845201227","0.800912967773674","0.7535346393359581","-0.5220161734446258"
