"AccX","AccY","AccZ","GyroX","GyroY","GyroZ","MagX","MagY","MagZ"
"0.053377213695103266","0.12239804876465894","-0.009820329828767954","0.076353438300592","-0.1035492720910908","-0.3272141050562012","0.4408566164190792","-0.0864792572751871","0.701748438699937"
"0.06806694826061817","0.19303083254006542","-0.07814217591037624","-0.07671989701035659","-0.008654325868593778","0.0356268356124054","0.4510269126769672","-0.057926373211104755","0.7006534277619622"
"0.06107784272145105","0.06800768910537054","0.08608461114234821","-0.18811002566439033","-0.04103156641864778","0.4143444488147994","0.4670486122613109","-0.14199135151574785","0.6757460147847415"
"0.035026840025040445","0.012728602831402185","0.09096893251685861","0.020107681202701237","-0.12998084476724348","0.5925505118163297","0.4722591476043933","-0.2597147750972441","0.6241334096784015"
"-0.0033443988580601322","-0.03473392720040898","-0.09064314727608934","0.04519308476544544","0.04269314445873809","0.7198162879813882","0.4293488565437154","-0.3555199056583335","0.5726515521467451"
"-0.10108018936375705","0.02086965439196286","-0.16873652745975198","-6.144153055442451e-05","-0.07544239147639166","0.7334068361607232","0.31828364864250686","-0.4812987702644237","0.5690886807366177"
"-0.13273768903696476","-0.13174493956370442","-0.19580372235799023","-0.13768120164625475","-0.007920062332099423","0.7269270569395044","0.1529118451067134","-0.6315896057576668","0.5550496599049691"
"-0.02285111854720819","-0.1300622173619962","-0.06803483180599824","0.000806862333171358","0.10275054075857289","0.5159337964553286","-0.04472626820068032","-0.7226585697156949","0.6084110138227019"
"0.057440311280898174","-0.11097059139446722","-0.019831846232605872","-0.004119045992311474","0.003436850183306895","0.14117200352656242","-0.16440139813938856","-0.7451388702494455","0.6947044131138594"
"0.151081231162807","-0.14973552507826382","0.006136014937238336","0.1247835941503112","-0.09411728839707435","-0.13063653317653418","-0.1353115644592928","-0.733977875970365","0.7355139998619693"
"0.08678165276633616","0.04123578661967456","0.12552473177195722","0.0016704487238599342","-0.0465983753687321","-0.3449303553614058","-0.05492442828393227","-0.6825660618975798","0.7455488762189335"
"0.0868032199193982","0.2735418188699442","-0.3524097289151784","0.16606629697386321","0.6423696210614362","-0.11069968437417044","-0.02109774429194372","-0.6027108628771621","0.7813410247885614"
"0.06423974141143932","0.0061906038473207","0.07333787476878446","0.04090307255038601","-0.338834305574663","0.45950875267505376","-0.09295854990589669","-0.6803760795685877","0.731804037430323"
"0.0399054455859937","0.12061145482210454","-0.3744046644917264","0.3070609758103649","0.385903908640527","-0.010401196122317768","-0.09833626820116341","-0.6541754476084771","0.727701832274626"
"0.028483519837111008","-0.24481971664886254","0.07450887274736687","-0.0698795611064075","0.14457819338996739","-0.0886077629319407","-0.0983919958518913","-0.6690963513078151","0.7036279350860133"
"-0.12600758189840874","-0.1317864882600429","-0.0871983066618469","0.20343060892773573","-0.202291921989018","-0.4780449210107853","0.015403866934996362","-0.5852833528976524","0.7101816572670273"
"-0.10361240420988044","-0.09130143854783344","-0.21725962711900024","-0.08703960996664516","-0.17926361772516963","-1.0243364201479834","0.19498622140646876","-0.4884096165013319","0.6657928556619547"
"-0.12157861296602565","0.03739772579540798","-0.029883428528479934","-0.038274417256324356","-0.25092850474207623","-1.0960265617939755","0.3564292255659277","-0.324675455747589","0.6469488614606848"
"-0.015312243168825701","0.13815539185102532","-0.012039649807224148","0.012923643691755691","-0.12680015298106034","-0.7801676608046093","0.4313271881445648","-0.166658995845564","0.6552349890062562"
"0.05153919158816429","0.1630326737836869","0.0020992730519875753","0.047821391171888925","-0.1414303778786809","-0.13155146829503586","0.43520025987017175","-0.08717978776717192","0.6813681604961352"
"0.08550456920287683","0.1662111490535802","-0.033633926463410554","-0.11465223122789273","-0.03923659362734802","0.10552351027544601","0.451723508311069","-0.10352681851328124","0.6784263400657549"
"0.06643496949096832","0.05160114763871546","0.04482087284944419","-0.1773849951267418","-0.05017156787194615","0.4921260683054578","0.44520337317587483","-0.19426068878964434","0.642568817708785"
"0.024370355645993512","0.006531303157296191","0.05240241355381109","0.055009279681232204","-0.05411332812164042","0.6491454374488461","0.45113836797842327","-0.3153218565231587","0.5722756528695297"
"-0.2254764472037338","-0.059165599364840386","-0.03849139955975241","0.10553822965770848","0.21445768080379443","0.8815438113154747","0.41215687629408054","-0.42610066144211606","0.5532191938593991"
"-0.16173780735074259","-0.09165252503189354","-0.16862913434707774","-0.10961705082287461","0.21097304029161784","0.6128635275772286","0.2784105145465137","-0.5578162251328235","0.531613157142939"
"-0.0899114850994867","-0.11227937532912917","-0.1431749013911197","-0.053601390879247576","0.12862208192384006","0.6219886099262106","0.09938543658232278","-0.6755607569777314","0.5410106390733206"
"0.00912507432526447","-0.10597436065976565","-0.04904277287999498","0.03884760215560328","0.06446018117456648","0.35859893244349134","-0.10859015593514357","-0.7342285365983823","0.6271242604492883"
"0.077439031649274","-0.10026141491322545","-0.034488940860470725","-0.006564237424943409","-0.10957320077869279","0.026688623300889183","-0.15409178275468036","-0.7443209250422316","0.6883141254012"
"0.12474138266645836","-0.12064105046724714","0.12131161735166072","0.08123457876970135","-0.14669323810277177","-0.15391762758445576","-0.09256845635079955","-0.7223155604352504","0.7293525204050061"
"0.07321032913818129","0.10379150382688161","0.024545672752200615","0.06755390696180316","-0.0013806174588361481","-0.3501238862727945","-0.016472349281506746","-0.6772362253860569","0.7080733526252546"
"-0.027559305086198027","0.11175119532792485","-0.15166308779671708","-0.1850388544422091","0.7027764387313108","0.1505737506063381","-0.07208854470820349","-0.6312070184833247","0.7720579469860277"
"0.13547392977282227","-0.07479414149255753","0.2753856247523373","0.004423238653509708","0.0022169866743395788","0.1540757436461203","-0.013156554063181895","-0.6610884038758981","0.6913213196189221"
"-0.1363482615361901","-0.2207941829911397","0.05867458438441917","0.0996173196212149","0.2231788552724562","-0.010255097729389916","-0.03188104470784109","-0.6598746787297096","0.6942467966024669"
"-0.08236298152777291","-0.1176079956345385","-0.039015973610122656","0.2006193800974006","-0.07429360888995981","-0.5096186766917046","0.020196444897617655","-0.6137399305099177","0.7050171280670263"
"-0.09353168579204327","-0.12552302228701787","-0.22574781352459755","0.007531764560148811","-0.2690696964194791","-0.7523070370369725","0.17628959458717383","-0.5101907058095609","0.6806163619417047"
"-0.13048469179744815","0.01479835113950329","-0.11947406752478504","0.016905576034997552","-0.22138085930022713","-1.1392250899354333","0.3436397297238164","-0.34401590209880856","0.6589286079910671"
"-0.045641052162318486","0.09757166398501202","-0.03820846001289916","-0.12745680090030975","-0.2592571784937071","-0.9532772682388889","0.47866782743813074","-0.1362261570713529","0.6573106067543579"
"0.049576002967918836","0.14241413322571894","0.02297876593324034","-0.0255718990414469","-0.15799199349973997","-0.4337057575757048","0.4954418503073048","-0.03005554990852179","0.6703853642227151"
"0.08327179116935589","0.2049033725187845","-0.06387541394203886","-0.08056993265847655","-0.0008055081765037053","0.040444199565258965","0.4982282328437125","-0.03918091603481008","0.6511164404037237"
"0.06247874485115048","0.05914846832859933","0.0784142645948084","-0.18733019848885216","-0.04337460423555774","0.41662571940204496","0.5202127910559686","-0.12252293631759312","0.6291508478568836"
"0.03258609301556411","-0.004872255911502341","0.08315401831764195","0.029487750549946273","-0.10719905010006697","0.6645804171668052","0.5387979625738077","-0.2506777998239934","0.5654604355391485"
"-0.03005300715899631","-0.035247053600189135","-0.049026250862660485","0.14011056777323444","0.1261880988188376","0.7701498539169966","0.4996214241119161","-0.36389724769996007","0.5539546489669943"
"-0.07821323020199662","0.0225980801596434","-0.16604963439072953","-0.02360692710901057","0.0640317810017096","0.7361006769605556","0.37529303533740727","-0.4942143889396243","0.5569291562910454"
"-0.11835316820005104","-0.12389223595573276","-0.16110955120771522","-0.08157696873948019","0.04863570104646782","0.739158550300906","0.21830824323620068","-0.6007187705176572","0.5561283273961086"
"-0.02262004190725776","-0.1168393447522767","-0.059220335558044575","-0.01871615914390693","0.10870985042568809","0.5023432482759935","0.028026179824923066","-0.6888457702626417","0.6169913234113115"
"0.06199155826858834","-0.10498757912172689","-0.04118861888960889","-0.02080243752587142","-0.04376471165553354","0.13806559251414297","-0.07169845115310633","-0.7307060951415093","0.6711861931176519"
"0.15396294942685537","-0.15405658949746517","-0.008606374605115855","0.14271961918768933","-0.10409015722553579","-0.0836229440104489","-0.07389969335686825","-0.7357588856957502","0.7253810628239925"
"0.097629641910742","0.036828508655570885","0.09438899010509931","0.06226841166093327","0.060738604253938316","-0.2994505566327026","-0.0035435343125753585","-0.6792415104101942","0.754276276829062"
"0.07923950380222104","0.23815271676364863","-0.3216581241513475","0.07716888721130909","0.6587876388591913","-0.07733731547750645","0.02041935550053018","-0.6019061103345806","0.7964750565581847"
"0.09753846291989489","-0.021559874308887204","0.149213174125291","0.037218629833367975","-0.37444656575405016","0.3529200248114121","-0.008196793148376284","-0.6792019324162969","0.7371483445455139"
"-0.04317623466951398","0.024538404278650155","-0.3514184078751086","-0.01576244337285615","0.04827909978526294","-0.04791620555284963","-0.03068290021718569","-0.6726319854293205","0.7274730240189298"
"0.030173267766748467","-0.24520404208999338","0.03894109993053039","0.073025212935363","0.10142944078417628","-0.2628046142205671","-0.06640432433393179","-0.6642546433876938","0.7389461236974131"
"-0.11778510479350625","-0.08863712839512874","-0.14194814160403338","0.08408239208481484","-0.25808446293672455","-0.5011973905877238","0.08400460498135238","-0.5613782445835939","0.7432281067683001"
"-0.10232222630349055","-0.08496110748658223","-0.19180539416304218","-0.07240196505691371","-0.19831665558055278","-1.1019238889503655","0.269800592509014","-0.4618791679254092","0.6951129992847456"
"-0.10610610628267866","0.08031233552600975","-0.030238651901171604","-0.05930086850787229","-0.3097796793261575","-1.0172499200259015","0.4243890956289098","-0.29107373892865546","0.6747817514214501"
"0.012802081358475546","0.12687492079512955","-0.00011178591780136652","0.00520672427752572","-0.11863661672622902","-0.6968770155341133","0.48596814968351865","-0.14681854750477327","0.673899205292336"
"0.05744705101623006","0.19795435305617462","-0.03305152535236957","0.04186871039861415","-0.08354370200779124","-0.1151530157865061","0.5351756652764776","-0.04037617145051301","0.6880853171455037"
"0.07568573764365018","0.14006663188259516","0.08190867126105432","-0.12022655140859155","-0.018571191545966675","0.18613730293133365","0.5475750675634918","-0.06630767305212103","0.6878565088898073"
"0.04336774390791752","0.03882388479722612","0.07236720625038282","-0.09721683598221813","-0.11959393554825555","0.5969917088106481","0.5362902182910408","-0.18966172589876085","0.6459355677568872"
"0.03612445406480494","-0.019473091035287327","0.031272818635157386","0.11427999602053153","-0.029845535312973202","0.597355741351166","0.5270394282701673","-0.2872478661852355","0.5900082926859892"
"-0.32417505704255745","-0.08784354829506388","-0.05012083451107085","0.08752711015157484","0.15107599489447252","0.9898070888654988","0.44177612265609356","-0.40764412362127267","0.5720795315075043"
"-0.20356267918176885","-0.11535397885817628","-0.17285877078470877","-0.1134584217245997","0.20263957994587686","0.6281528942789805","0.31516290020173027","-0.5728558628138538","0.5483978770429424"
"-0.07504555459600956","-0.12055795307457016","-0.13910635462250004","-0.015328243303513286","0.10240111938853322","0.609562965876533","0.14984682431666502","-0.6857454940740083","0.5689089028214278"
"0.0176113639274437","-0.10477983564003453","-0.04434225894833084","-0.005689675688821333","0.03985469415142941","0.35906004032814737","-0.007750971942550926","-0.7364580969212718","0.645641385713849"
"0.10719881441688886","-0.12932472800198827","-0.046006852194781324","-0.017530051637409356","-0.04128764920353988","-0.05523325961725946","-0.037398082129928165","-0.7582523788941332","0.6857808911417057"
"0.11964999403288407","-0.08706970382575979","0.1527860603738758","0.04076636210726698","-0.1237726322064014","-0.23795332612121167","0.05327080560477647","-0.7137139430948717","0.712911012888547"
"0.07627209461752438","0.16840284278543471","0.018339589990930518","0.09233989539912467","-0.0010608729722792847","-0.3635202837638533","0.14706044178025737","-0.6601649173516242","0.7004899932936075"
"-0.10864794932213333","0.13957843470061806","0.013996364684124855","-0.16035395471282773","0.2871564721484897","0.2924906230854404","0.049035504149436644","-0.6383574427141304","0.7698188947695715"
"0.11831360079850413","-0.09406442685434196","0.2164309363985216","0.015041692810501361","0.1742502902786799","0.14404786059665384","0.05505409042807729","-0.6641754873998991","0.722504616180954"
"-0.08834208958649008","-0.22399343260920224","0.006824983060086822","0.08818563087758487","0.21212660947215983","0.07309549156611132","0.0015276819036863587","-0.6643733773693864","0.7399594174012109"
"-0.1033235584099424","-0.115769465821561","-0.06378660809886594","0.1822212352522961","-0.11529078744324628","-0.5197630501541368","0.07982503117674107","-0.5876976105253968","0.7537369430834922"
"-0.10079134356381902","-0.11184311401757517","-0.22576846604626571","-0.06167115802166859","-0.26184193931317873","-0.8095814900784558","0.22867358627163725","-0.5155205423210839","0.716097985021459"
"-0.11803543782011917","0.005900801690359841","-0.08637840155162253","-0.012191605108570832","-0.22244587648973163","-1.0827515084830892","0.4075314812836436","-0.3617996140233953","0.6878728523366427"
"-0.042117133403074554","0.09181613082472484","0.0017808111678651632","-0.054558363981080854","-0.22618420648974527","-0.8729474209646052","0.5340889760872787","-0.19355883903119625","0.6680645947720817"
"0.05106259601826655","0.12750853841429127","0.001225877910642774","0.06174178763004515","-0.12707298884533788","-0.34534292557399277","0.5626493970854569","-0.0796850349894585","0.6771188643189191"
"0.0846543997317259","0.2143557009357874","-0.07344372723087891","-0.05292072691245067","0.01613496636837239","0.010412971102694134","0.5648785031145831","-0.05147120240643097","0.6887227115720861"
"0.06296978271104513","0.07312960464649597","0.06229084092850701","-0.18549134675394116","-0.01009413337692169","0.43385659298655893","0.5529249220333943","-0.13275516700654671","0.6787368655556282"
"0.027263627742039415","0.012686430904618634","0.09528324429332892","0.022580022174037092","-0.1003566138196323","0.6651386003955992","0.54852243762587","-0.2719047972176581","0.6176777481784002"
"-0.040576622470071745","-0.03895839090062337","-0.08371629150860185","0.0934018082072958","0.11674414863954582","0.7535499700693804","0.5138041112222308","-0.37617961847280146","0.5855955620404186"
"-0.06649571891784399","0.008779918603134425","-0.16551473407952522","-0.019183092699630408","0.11229022282006734","0.6776855886254497","0.39708254677211513","-0.49492679282977836","0.5870174419151025"
"-0.11351018695442343","-0.12021517632977778","-0.19329650622748043","-0.10281041115490556","0.07221685693003649","0.7264659490548484","0.2310420114275838","-0.6140565544610972","0.6000104821492825"
"-0.020097455254465674","-0.10714811133132755","-0.07121945064722238","-0.0009274347952415753","0.11364722225028996","0.45380557620694","0.04800454261096587","-0.7023418661816715","0.6537477353442306"
"0.05314036013915408","-0.10115471188450263","-0.02887145496674205","-0.033880428084526515","-0.008656958495354349","0.1062224527532404","-0.04124329003017084","-0.7372628494638532","0.7120774970999392"
"0.14852783429135483","-0.1549083377724039","0.016574418963956294","0.12557304882184367","-0.046268100375132945","-0.13802396686544413","0.0052335706771086685","-0.7354554544092031","0.7435059453645028"
"0.09501743603442246","0.04643248981420924","0.11610511663912762","-0.0021164305505374415","-0.021201664339190095","-0.35009961743676","0.10824613304809896","-0.6832784657877339","0.7522170025277958"
"0.0914435276954026","0.21913380101471194","-0.2939837451160665","0.15697794075524543","0.5957721273992946","-0.16693785811697937","0.10802322244518645","-0.6073414881631636","0.8060196295100855"
"0.057191903892951465","0.015884849548754396","0.11732981117404716","-0.08473189917681181","-0.3171031683146606","0.3612199667352203","0.08966096153026014","-0.6552968241022382","0.7531322355505806"
"-0.09851908993763987","-0.0719303975974282","-0.34290956894784314","-0.08358622715349029","0.15154268782021044","0.0018603905957665483","0.0633017827358438","-0.6584102929555041","0.749405929672099"
"-0.014705666988955857","-0.21486310658882246","0.03880066278318717","0.12049935843284837","0.028060526264062472","-0.32522406050137004","0.01877538980404973","-0.6656002951802071","0.7710119663885592"
"-0.10255330294344098","-0.09186546210062821","-0.16917642617128292","0.05875148737421603","-0.25358506447319984","-0.5553897014528222","0.15466726610465026","-0.5603492167422601","0.7671385694885584"
"-0.10529733804285223","-0.05931413595425044","-0.16858989455590834","-0.03699203478988379","-0.21477296613118896","-1.0522213127516546","0.33976665799821004","-0.43404264555087063","0.7271134681885499"
"-0.08804361559322077","0.07573470790691832","-0.039678919555669316","-0.04203587994129678","-0.27143906050399474","-0.9285715931557407","0.5129960602866729","-0.23136373880203873","0.7179611379606998"
"0.006611153046470522","0.12624130317596785","-0.00843516520048714","0.01704324922771602","-0.19400393428732324","-0.6653032598531939","0.5727361018672524","-0.09435791659370577","0.7097240407556349"
"0.06754028608539783","0.22901200356918427","-0.07173369843675856","-0.009912776806720373","-0.048524979498060505","-0.0944541255326582","0.5912098180836352","-0.0443062662445296","0.6993296085682909"
"0.07191629995445893","0.11883524805363473","0.09325929716985315","-0.19669775209130458","-0.04881696173877859","0.21280147308246825","0.6109652702667654","-0.10150438302512166","0.6907983293201878"
"0.036451812638068036","0.014766150899840971","0.08808170998765541","-0.07446513744849188","-0.17221535789799927","0.6581977132897245","0.6156742567532942","-0.24096799865448618","0.6274020990454908"
"0.03214415894165894","-0.03169775621547496","0.01996969352619524","0.14135251475649893","0.03482159044462489","0.664992987379392","0.5584140956301177","-0.3482243621165706","0.5968561969100413"
"-0.3441054172382813","-0.08026506608292616","-0.026512936992242733","0.06995211621398292","-0.04458561254542131","0.9000366643737842","0.4461507432382537","-0.4644121595348459","0.5917406980505464"
"-0.17961736236690642","-0.13203578043807374","-0.1894572024493769","-0.10759527666407191","0.029178195988778455","0.6747733283013064","0.31794928273813794","-0.5796105071056848","0.5741061189150998"
"-0.05518259175360461","-0.11802348259792322","-0.11656206196958009","0.009877022584359926","0.11218970434375457","0.5811684277161366","0.13864556652030655","-0.6838061723730333","0.6077736193961196"
"0.02654055042286122","-0.09173354498975356","-0.04290071293589605","0.00582143989676168","0.017530019221770558","0.24866110520708498","0.026047848224073675","-0.7307324804707743","0.6741116701011968"
"0.10842544624729235","-0.11567598125479944","-0.048152649196099004","-0.0012857701961493662","-0.16398002273151596","-0.09757995161390526","-0.004853134104687176","-0.7568407637784577","0.7051805625353808"
"0.10894248022918143","-0.02622059932065557","0.16567529914694956","0.040719187376894915","-0.11603988942148202","-0.2513011859402014","0.06957114344276123","-0.7014315723220302","0.7363475156505771"
"0.0756972914756477","0.23237744797260068","-0.029241135104601402","0.09950178966928333","0.12200940216069175","-0.27008526503092517","0.1597942099716402","-0.6453099769754488","0.729646702448044"
"-0.02652908839975239","0.10107525780375387","-0.03553189320471079","-0.19568686501190324","-0.17485995114384756","0.3585261259353878","0.08428324323499312","-0.6982125621517045","0.7057525831746213"
"0.06660250005493237","0.007888283579710765","-0.06292746319747214","0.21255747513033074","0.40459555864059515","0.12338537359685774","0.06012530664433901","-0.7204422020574379","0.6698460304771454"
"-0.0056070242909080185","-0.23419363756029768","-0.010041518335833523","0.06809593498628216","0.2012155681981124","-0.03418489812451437","0.009413144481719976","-0.6950331299752761","0.70625923002652"
"-0.11603277360721558","-0.10648333218991196","-0.06280354806746342","0.10191829116385225","-0.14059272390940766","-0.5426000248626265","0.11367957899409388","-0.6159167201742773","0.7123553356961417"
"-0.09375313423866245","-0.10831147482880485","-0.2217618768426504","-0.0907664136660381","-0.19136891422969518","-0.9945342894975845","0.2588222453155681","-0.5360483284892269","0.6804038971328438"
"-0.12455372470538734","0.026031041194609847","-0.03990403204185182","-0.036037949936848813","-0.18922452006835574","-1.1466270849259639","0.44757179833182137","-0.3689104602603035","0.6616579636125867"
"-0.04467823282919174","0.123893801832844","0.042974537412314245","-0.035553686888335594","-0.15142478638063792","-0.922552921819178","0.550556496877448","-0.20065649260347196","0.6575557584568895"
"0.05838194858869613","0.19141043338286493","0.004812188298311835","0.060129182051000145","-0.08575989508078266","-0.2128278001746661","0.6121076871066926","-0.07517050515222291","0.658454648032839"
"0.08902174822678885","0.18907331921382572","-0.0047094502915582676","-0.12011102145665999","0.005217223862570746","0.11538393835627425","0.6269033783750173","-0.0828750212975928","0.6625405097417008"
"0.04911288686868486","0.040253159951269636","0.07137175470597942","-0.15177585578190778","-0.06472999385791471","0.5772368762785433","0.6019095270234407","-0.18843480808793997","0.6423726963467598"
"0.027447526234666623","-0.001282760163080691","0.0699074909197097","0.08488436250113991","-0.03274357871695304","0.6597751876319689","0.5807051559213785","-0.3139498194013805","0.5786495971353539"
"-0.21443290945276994","-0.0612025242028341","-0.010428753117110777","0.20466292841500594","0.1547999651121557","0.8402139835486755","0.49831182431980464","-0.4156520710531898","0.5665554464771235"
"-0.15671189043182093","-0.0640184870971742","-0.18458733784003417","-0.081641472962642","0.25379391120086486","0.5824546760259665","0.39457480248934823","-0.5740168173015121","0.5422037106923082"
"-0.09309841709213622","-0.1110121400908057","-0.1578794968188212","-0.05921229554472475","0.10468193148201144","0.6672257202945685","0.21953425155222034","-0.6967217910482338","0.5515031319416772"
"0.00047991953311933675","-0.10289975713071856","-0.048803203628644785","0.011639335726116268","0.01558738000217321","0.39208992617113836","0.05118101870247066","-0.7438459891154622","0.6192957494151095"
"0.07200969342977222","-0.10343989018311871","-0.014726542876246574","-0.05184533560988752","-0.08345036342264364","0.017442682148455166","0.0028094178704339175","-0.7751521822883437","0.6628346917847387"
"0.14997880302637687","-0.15090927574982574","0.04638013823538726","0.2210778090852849","-0.13503788144459866","-0.11161704637627555","0.05023364864009205","-0.7400596943659395","0.7068802810062671"
"0.08976783692802878","0.0696862564374449","0.08716060752125726","0.02891010079028836","-0.0692676850743205","-0.3415569871526066","0.1279179937551371","-0.6847560442265721","0.7185495020467759"
"0.02423748657802202","0.17155015653307412","-0.403235584740422","-0.0450714294282991","1.0512883558900716","0.11204697340152682","0.0767042827359645","-0.6208771620760908","0.7987304522214764"
"0.14240334051333553","-0.11921800761765439","0.30027191336242204","0.002258977553991402","-0.23460621882652374","0.23400030135862737","0.07241325362989677","-0.6657981851496944","0.7387009719948814"
"-0.2811081482717977","-0.06841641660460171","0.024523781079232407","-0.03169691199301961","0.13523476168698836","0.01562688783635187","0.023010691259389246","-0.6708377830393027","0.7356284039898177"
