"AccX","AccY","AccZ","GyroX","GyroY","GyroZ","MagX","MagY","MagZ"
"-0.06740076909098315","0.011152453035802161","-0.05740910940775044","-0.14928233431938445","-0.15932266666235687","-0.5962584213349653","1.2122387577981701","0.33596041838861535","-0.28877884365596895"
"-0.06402127323170821","0.019451805129412424","-0.1095484656110865","-0.0736015510578033","0.017530019221770558","-0.6574886946500764","1.1377866164253578","0.4859478225953113","-0.3281992374230659"
"-0.17350345960155153","0.0601705662585258","-0.09370178573513793","-0.05079497579690956","-0.025566080848809077","-0.7260724252836491","1.0504613877343423","0.6256977190472007","-0.3539401661888941"
"-0.019885635001177786","0.08915389810683709","-0.02780578484866705","-0.033060165425812284","0.02360660044458401","-0.3871581300614824","0.9843683939707535","0.7105001673047994","-0.40323200184460073"
"0.06293319557638631","0.10685468146443565","-0.05001344139839663","0.09798064530218416","0.07856627401712751","-0.1819942439927998","0.9187212214129894","0.7538776486164026","-0.5083040215496862"
"0.11881330403239691","0.1383527481586331","-0.030847901290381143","-0.13396498819245553","0.015260455624451148","0.10327378917504539","0.864024532223307","0.7707906446752454","-0.5262491261750066"
"0.09682174020831534","-0.0549712584694714","0.185797051008199","0.08616000572038446","0.010570550715343142","0.5571665488779896","0.9249627182945426","0.7308696414973528","-0.49939684302436793"
"-0.0009854914918995727","-0.1514909574985644","-0.16002116331580526","-0.04326916217816642","1.0023214981434143","-0.26040199945314896","0.997074298336772","0.710764020597449","-0.3553947329572489"
"0.13870130017746318","0.1609136902704247","0.186621086622757","-0.07350238784906203","-0.18415312360867017","-0.4404039563212342","0.8568356652793755","0.7558565483112751","-0.3503772947787668"
"-0.011663157896275287","0.02357447452359755","-0.13277842198338805","0.014956008096152105","0.045210892960667874","0.02378825470640289","0.840563191266755","0.7569383468111386","-0.20765487659886317"
"-0.09478335092510805","0.20343878097285323","-0.024970193623634156","-0.13074940453035985","-0.14999359474170826","0.21425517636093638","0.8557768399155408","0.7258696216016418","-0.10533999637491748"
"-0.10636606750262294","0.06550541886838591","-0.14308403029577996","-0.010669497991872237","-0.11177503406935382","0.706589772342571","0.8848945374210008","0.6720567425657449","-0.1100714242337792"
"-0.13892861734896977","0.04253418338025188","-0.13605391191995186","0.08404869584883479","-0.003812925255900072","1.0504306412797466","1.0304551611229358","0.5054201955928557","-0.13479088757239202"
"-0.08346059556753742","-0.10212071907437216","0.06699342011233796","0.030711405290821617","-0.14473312781467243","0.9830603524479004","1.1927340800433166","0.29573598392417555","-0.14254748744049495"
"0.027281921309368823","-0.16502544533082242","0.04721863061511294","-0.09593637901497641","0.05706249997735641","0.6191734249462055","1.2681057276531433","0.13557703528583542","-0.1463489731744198"
"0.11395491767743932","-0.21866481230379287","0.032020439919543335","-0.06826599277776306","-0.07574155360827495","0.1750877018848136","1.2965268295245012","0.06858468428208819","-0.1586147300244224"
"0.09684715863870988","-0.1384446668482834","0.04154951341721396","0.1856004863462949","-0.0562337893124292","-0.34184821318502084","1.2814803638278998","0.0755372185434066","-0.22145691745139776"
"0.06310457741768287","-0.010199422012539839","0.1055083077712152","0.15743043306697743","-0.18669959167526076","-0.6182217179462121","1.240353357590523","0.17117084446427375","-0.28466029505343643"
"0.00909041282927192","0.03410083674095004","-0.04463965526035176","-0.07929332668963257","-0.09341365906288483","-0.5339117815622658","1.1974709303552098","0.27406043593300633","-0.2604556502901402"
"-0.17666150701420733","0.012014692356566352","-0.05797085799712331","-0.021688167157346883","-0.33385624770012495","-0.7550251466728395","1.1217649168410138","0.38449623157151924","-0.2683331916648254"
"-0.2268532788501051","0.036906412461205525","-0.125384819226201","-0.010427847842415345","-0.1053633912588311","-0.8504744787966334","1.0583189864870122","0.5250376879013575","-0.2929954529395142"
"-0.09097058636592611","0.11878331218321164","-0.08422640879380443","-0.08313566034095711","-0.007037893037601969","-0.5495894496405702","0.9559751559247592","0.6847744712714582","-0.37796503303700046"
"0.04407830457576506","0.08349392694812842","-0.037089093338487054","0.028968828515853588","0.08337680109781086","-0.2798656059528395","0.9026716580032814","0.7611863848227982","-0.4661706156079053"
"0.1254490548763065","0.15909593480561643","-0.10609949449251045","0.007253915025753354","0.10650801713502706","-0.07445175087300122","0.8636344386682101","0.7924134220078847","-0.5304493920117164"
"0.09551104462193655","0.0589126794768785","0.2480829911070825","0.12755631299666917","0.014927548004091419","0.4692648247609335","0.882971933470879","0.7737062235590241","-0.5048718977142425"
"0.10882309063187372","-0.32484250579676427","-0.11670249911692332","0.15929816728987137","-0.05734667244303504","0.2307895343512595","0.9726655873178414","0.6709089807427189","-0.5879946683193233"
"0.03932390270878515","-0.07477025099216292","0.04844745565436608","-0.07083075771064419","-0.41384023528044217","-0.5135259592932635","0.9387553118497601","0.6981386405441631","-0.49120877615980935"
"0.023408499132199886","0.026286565677091464","-0.09909209389051729","-0.24173517835263303","0.41199084654075013","-0.18391876269033774","0.8735818243231857","0.789141641179029","-0.2895306422103995"
"-0.1522829214994379","0.2660942150512727","0.032375663292235","-0.07866368845160546","0.04447854406181759","0.1486856351628519","0.8749471517660253","0.7946034043368767","-0.16504751069885415"
"-0.09776809085780101","0.005086447242125743","-0.050829216004287366","0.015467228133449357","-0.1064499481218312","0.6454080366995291","0.9341856444900519","0.7265292548332659","-0.12235679321998436"
"-0.13419154622998616","0.0916810975616248","-0.21060951514186554","0.16235971101605828","0.07875295118742268","0.9173888821384707","1.044860758836163","0.5975181873922175","-0.1240352652099847"
"-0.10135940697036382","-0.09135025826603115","-0.004262736247876829","-0.08214114000474608","-0.16901791303243063","0.9703920200378774","1.1784678014569092","0.3908682885890083","-0.13761993821960783"
"-0.014686410602293315","-0.10376189257974192","0.012390011548778472","-0.0876990934422546","-0.011698360392932658","0.7213694934875978","1.2739571309795994","0.2230180164699308","-0.14694714332859715"
"0.09827068702273778","-0.19188667751364613","0.023417218968254532","-0.11103229273403649","-0.04879781536233807","0.31309486487875365","1.3274556756786258","0.14631586429667634","-0.14851774856948358"
"0.1264667549114215","-0.22982063727067326","-0.01603384749783858","0.23369945633381026","-0.05855768075289861","-0.023924034249116443","1.3450098856579944","0.11751627740396657","-0.17665952967543888"
"0.0629977044717058","-0.061532836338724965","0.04227854743209861","0.349989980448942","-0.11668129303223981","-0.49115009246942976","1.3413875883606643","0.1584003451000305","-0.22722942287367742"
"0.05405022440895887","0.02563632857939434","0.050752277072528294","0.017574687006601298","-0.16704583625905595","-0.5627188899352492","1.2708921101895507","0.26534008461093533","-0.2847420122876137"
"-0.23393000094858674","0.0012199255608673141","-0.020914038368015364","-0.1818714082600849","-0.07943201766718726","-0.6541881329493806","1.1908393399185597","0.37043285107329255","-0.25061689529520137"
"-0.10669342607588603","0.023028109166746608","-0.07944535002763461","-0.06667841868830324","0.03385709173143315","-0.7903848407751451","1.151969303535673","0.49408769667355307","-0.28443148679774016"
"-0.15827165775148627","0.08345445568660687","-0.1408556232077898","-0.06362746520771004","-0.08640129869154045","-0.7340568723390083","1.0937060446993891","0.6492070474222849","-0.3504099816724377"
"-0.0074845219905051935","0.07687625833881791","-0.008907488371037045","-0.005347995855983678","0.06412990618096732","-0.4275657420589695","1.0437183419962361","0.7787722067778974","-0.44479338714714123"
"0.06407798776347402","0.10782484352393902","-0.07542430405885164","0.08941024836805962","0.06040354266622903","-0.08988915747456372","1.0074953690229367","0.8362394539169922","-0.5785481560484353"
"0.11647557869156516","0.13692970530904033","-0.0962048713613141","-0.2320691723743573","-0.09775031332666505","0.15669435105424576","0.974114506236773","0.8468595489461407","-0.6026874270243898"
"0.0663877913436451","-0.054822721880061355","0.18808948091336034","0.178928631622246","-0.08549184581061525","0.5690097408628387","1.0377833471936877","0.7927036606297994","-0.6071818749041376"
"0.017471755124140304","-0.12530489163124087","-0.276016051264802","-0.00707930846063838","0.8659514319457341","-0.2736527839280006","1.0915605301463551","0.7618724033836872","-0.5406803897307058"
"0.14521669860473194","0.16905723475276568","0.21436361897954276","-0.22139227931668026","-0.13786197196957695","-0.37077666573817686","0.9803560031183262","0.8235085325466465","-0.5137627327927253"
"-0.05343988876064521","-0.04300315648917384","-0.10085994974530836","0.03374117828022736","-0.11807419191828843","0.20047047749332517","1.0118142619543689","0.8132446394625749","-0.2537711805344426"
"-0.07169494331672846","0.2585115779695011","-0.038650423976596925","-0.1560986014833478","-0.15174309488896176","0.0828200141651462","1.0047368503118927","0.7981258457937497","-0.1300709001263151"
"-0.11777547660017497","0.06561552291368287","-0.1728112699848721","-0.03172579448100251","-0.1486820679555319","0.838296745501948","1.0489846049900464","0.7260807042357614","-0.07757084585681032"
"-0.13730145267598556","0.021239437789375284","-0.12160540776093504","0.13823320605434622","-0.04060077294873585","1.0955221386318974","1.1704430197520554","0.5361327188572755","-0.09851170428706792"
"-0.08428862019402641","-0.07791340987016851","0.07187774148684838","-0.01077925144620724","-0.10469087478635744","1.0309913036160907","1.2851026611252299","0.3206437347503029","-0.13116264237492292"
"0.04562555524409976","-0.2034995381402497","0.07606607288114313","-0.1613455868002405","-0.04970966154031835","0.5730383676445702","1.3681368607101778","0.11648724956263291","-0.13619315531087337"
"0.1009028425156397","-0.2525893228641572","-0.009522726991530343","-0.046986338381565074","-0.12307139616926693","0.1091759700986423","1.3965579625815356","0.06578783938000186","-0.16318435775961324"
"0.10184640546210393","-0.12005936871850849","0.027634876943318027","0.23783927961135864","-0.09770005408850865","-0.4002633015201269","1.4060316632053211","0.10048454736343139","-0.19033245729797343"
"0.06122804253741882","-0.0004216634314658093","0.06645645454896683","0.17635809019176832","-0.15567528195043576","-0.6646480012802618","1.389592006240516","0.20212083569207825","-0.2756060255065991"
"0.002238027635408799","0.038280635592600566","-0.06338181867417078","-0.0388857632519623","-0.11877303465836782","-0.5048377159929028","1.338601205824257","0.30407374797190456","-0.2741351152914089"
"-0.1981227499496027","0.032448237344087215","-0.05508983122442055","-0.06255496215394518","-0.341179736688628","-0.7879579571716924","1.2647620686094538","0.44813764575861575","-0.3110222747990116"
"-0.24086230014709936","0.02681423412059009","-0.12702669469881658","-0.009934920047507258","-0.04291987779509513","-0.8968522244586141","1.2283161850332422","0.6037583177633818","-0.33226875568509207"
"-0.10856129558215191","0.11916763762434253","-0.07591170357021926","-0.03328737433127772","0.043770128133517945","-0.5368483107224437","1.1639507484422258","0.7353683401370293","-0.4282538189496694"
"0.0350720925336974","0.08888902516767931","-0.03445589682580174","0.05730351197667353","0.09278724511833172","-0.2972178237175261","1.0875481392939281","0.8155401631086268","-0.5754755880433714"
"0.11781774884194385","0.1733679119978824","-0.1251225322010159","-0.019160949458843526","0.15551077433751043","-0.06049717015314832","0.9968513877338595","0.8334030310210084","-0.6580263380092117"
"0.10024071166024845","0.04081822222147289","0.2428992081683843","0.07817399779311383","0.16519166092525378","0.44662200074072006","0.9786841735964814","0.848970375287338","-0.6013309209370478"
"0.1183482622944967","-0.3494601083773103","-0.3550325991670296","0.034905142545938045","0.16776206196239504","0.08611086833142804","1.0620527390857981","0.7558169703173775","-0.620223945478824"
"0.053149988332485354","-0.08014041999391074","0.01775223227468918","-0.10671917452859075","-0.2922128789419706","-0.5247138927051803","0.9875448700622582","0.7708170300045105","-0.46522269569144936"
"0.05112806773291917","0.017994484605340432","-0.007870318732864055","-0.08393281700928504","0.2707145213801839","-0.006588804669653955","0.896067931391995","0.8292209563325114","-0.3056779676838206"
"-0.22747911141663746","0.17120737978828174","-0.07022193385065217","0.07329574557280279","0.1554341888317483","0.06249729086983347","0.8939781444896893","0.7847352911917796","-0.21381308736645943"
"-0.06918198485726763","0.11558406256514912","-0.045806522734600556","-0.13115375936212037","-0.03783412155307915","0.4562567286464272","0.8629378430341084","0.794497863019817","-0.13070339151884688"
"-0.14014176970870945","0.07542413140178823","-0.21554546782054626","0.09670596483253904","-0.04202957129061045","0.9328481306924643","0.991473669438593","0.6573996921590565","-0.10728976958238624"
"-0.12230072746587074","0.0007052410849744626","-0.048346782899779325","-0.010079332487421737","-0.1495436548953558","1.0547262252578578","1.110842297298296","0.47567073684660716","-0.10736985247187991"
"-0.06183567334551052","-0.10203762168169522","0.04694808258126056","-0.031263674673276176","-0.10333866195024496","0.9224610688696868","1.224303794180815","0.2768704734997252","-0.13782259696036736"
"0.07667359027943824","-0.17693953400587997","0.061596916200458166","-0.11532615594749361","-0.024928267183633897","0.46147452839385045","1.278136704784211","0.1475691674367622","-0.13447709339315145"
"0.11302002010497324","-0.2480501277891789","-0.024179202043745157","-0.021236637595214283","-0.019405255569657293","0.08345343078564735","1.3294061434541116","0.07250290567793559","-0.17395632356885604"
"0.095594328494252","-0.06895031735255111","0.06316857309940212","0.2134624597537948","-0.11433107532416467","-0.5020467998489322","1.3252265696494998","0.12407303172631048","-0.2084900267321545"
"0.06570322679779199","-0.0024883994590823716","0.08172899432254167","0.011257124135142618","-0.14066930941516978","-0.5656796879314614","1.2770221517696474","0.2336908821576093","-0.2334562761179826"
"-0.05768592201973419","0.001213070025971466","-0.08118016184775671","-0.0647452174926481","-0.1238228914445578","-0.5312179407624334","1.2131304002098209","0.3290342694565619","-0.21532975923278885"
"-0.04454343812255398","0.015299012930381908","-0.09821849222395582","0.003967569268099559","-0.08663344850588188","-0.6931153459487617","1.1315451195438047","0.45564427193449847","-0.2515321283179863"
"-0.19160446306433457","0.07023781538133816","-0.11899079851775103","0.017474561048260593","-0.06105628287838788","-0.7590295046185365","1.0588762629942936","0.6247478471936618","-0.33746597177876403"
"-0.03176682557196193","0.09891057072451934","-0.026333260053730087","-0.05445534977394185","-0.010747742802660307","-0.42598826771672527","0.9993869958419906","0.7514765836532908","-0.4284662837585302"
"0.06753643480806533","0.09563757217045604","-0.038489334307585596","0.03649753038339502","0.06989057219251202","-0.2418606087227705","0.933266138253037","0.8160150990353963","-0.4942486572712023"
"0.11839640326115303","0.14086644428711081","-0.002767906729538296","-0.12486700447784344","0.06990732527189747","0.0658391095917878","0.8733867775456368","0.8446695666171486","-0.5006062580901909"
"0.07697013863404127","-0.02354486327645782","0.19789736345355058","0.15736304059501735","-0.0198130733878406","0.5536475676529832","0.9326531340950276","0.7903685589898498","-0.4604013788749926"
"0.04232308493147499","-0.18045039884648104","-0.316763476516003","-0.0881602505003815","0.8726047977588185","-0.2074886562470702","0.9893281548855587","0.7476770962391357","-0.41465607118257786"
"0.0965624529619043","0.058878401802399255","0.17590655838133626","-0.10152995418766385","-0.3265566916821726","-0.5284270246184629","0.8497025259861719","0.8110810424628477","-0.38613675645472373"
"-0.027000869872984494","0.021615453491238477","-0.07779934405068543","-0.038004847368483995","-0.06529720525996544","0.07403954928785442","0.8459130457366575","0.8284557817838275","-0.22333968252684117"
"-0.13002253851754728","0.2551461335660847","0.011522399113500746","-0.14034801803667543","-0.20840440266765742","0.22569065190040544","0.8452443139279195","0.7928355872761241","-0.10338695447808162"
"-0.09678601513801172","0.00994380145931594","-0.12436458465579589","0.0032004503872738533","-0.1227339412845026","0.6602848331886939","0.9107800311842276","0.6981914112026931","-0.06670572240060549"
"-0.14258733081485142","0.055216922937571196","-0.1453764602009413","0.0888990283307624","-0.0534384183521117","1.0105812125110536","1.031681169438955","0.5464889605937744","-0.07766727219313944"
"-0.09717114287126241","-0.0978277000251993","0.048930724661400096","-0.018393638028097934","-0.22386988823749612","0.9364399184255743","1.1580436174650413","0.3500897622100043","-0.12010630059074336"
"0.023772444840121795","-0.13356269502851265","-0.011988018503053848","-0.05384496652790333","0.013668434423421015","0.6144652707555074","1.2605824948048423","0.18469332571256852","-0.1528389559127756"
"0.11635907755225683","-0.24690753863987086","0.02254361730169305","-0.02904164859779208","-0.04697890960048764","0.275793663893686","1.294576361749016","0.10128929990601283","-0.15549313167885212"
"0.11507756501986512","-0.14900842289234054","0.040919611506336294","0.3127123159590181","-0.03608701470288072","-0.2028800042841135","1.3060005301482873","0.0908143241878216","-0.19590720701354422"
"0.05472997485814635","-0.013010191319837631","0.0956240109008529","0.24230643775271313","-0.17294770679684954","-0.6273225314591595","1.2526970322268094","0.1846405550540386","-0.2573503953914053"
"0.031629050598436126","0.05671994702761551","-0.04339430820376412","-0.10568903245720081","-0.11216992808343976","-0.5719167787923348","1.2018176871120057","0.2939153962048928","-0.28343453654077794"
"-0.34836107869070154","-0.03237292253097517","-0.004875083515336592","-0.06607284919026186","-0.33971982548503754","-0.8072274129831066","1.1417432796270568","0.41026150559875796","-0.2809503326217901"
"-0.19142152739104049","0.04452540465227327","-0.10338368789315265","-0.06663798320512719","-0.04036383654028428","-0.8213518755552012","1.0677090956347055","0.5685075178653881","-0.3031610768711619"
"-0.08506850385385911","0.10593126168831307","-0.07081259597036041","-0.09971998494073574","0.009599829429808235","-0.5013672724399655","1.0011424168399272","0.7137983334629202","-0.36364817360914936"
"0.04898675753604526","0.08509355175715967","-0.033972627818767726","0.05312132771675025","0.10618970862670324","-0.30646425024668084","0.9215633316001249","0.8166219616084904","-0.43644188581422805"
"0.12313251156080356","0.15445286798979194","-0.10960216216742362","0.011571943254156178","0.05820888926673319","-0.04755702677953864","0.872801637212991","0.8351180774232311","-0.5308252912889315"
"0.0976965578543943","0.04685005421241091","0.17341379901599419","0.019102570620896472","0.05472424875455659","0.41640729987773417","0.9008883731799806","0.8147617958953104","-0.5128801866636112"
"0.10475633433261292","-0.3275223967105958","-0.17194592932697786","0.12193385533599883","0.03651843805666693","0.07013954733710595","0.9937027754677189","0.7306453661986007","-0.5491953255319735"
"0.040921219982442435","-0.06654672526937037","0.044383039390080044","0.0813337419784426","-0.4427512637056436","-0.5065850721873888","0.9435478898123817","0.7667009186391758","-0.4822689107408201"
"0.06450066545071667","0.003967083814070904","-0.05606256499498901","-0.30148341849324956","0.5516157967333205","-0.19379860583999362","0.8692350675663897","0.8246035237111424","-0.28367968824330964"
"-0.20476620334817727","0.22952097509933053","0.06005623808401641","-0.13969334830906316","0.06721247278789277","0.18058216636303048","0.8838635758825297","0.8056720499635298","-0.12121765497555373"
"-0.08098614988140164","0.04039546423622891","-0.05682051254020902","0.02862801515765542","-0.08038694319215874","0.5974285478592695","0.8861762733877477","0.7939965417637825","-0.0906848275975726"
"-0.1494907454333703","0.09513275550994357","-0.2321294427200467","0.2950554883054747","0.17235719230812244","0.9401773191748914","1.0220402858629845","0.6464893585079933","-0.12037596746352823"
"-0.10953374310860997","-0.04903498848011187","-0.03950956887799073","0.03015397327275173","-0.16216351026672063","1.0850137326289473","1.1767123804589725","0.44731970055140186","-0.17156691164151375"
"-0.02832956055269943","-0.07939877576426896","0.04998193801430741","-0.07521223113764944","0.03423283936907857","0.9700037186613248","1.3149169542647914","0.2063952590330026","-0.1855797829582256"
"0.10299601174585726","-0.23424557343072078","0.09773056811100116","-0.14512325604984752","-0.09523495812179032","0.32748628464722807","1.3606136278618768","0.08991722299281275","-0.1785521008189836"
"0.0963732589629449","-0.24481971664886254","-0.004707798089824819","0.11338463889306176","-0.08330915889639473","-0.12176870048951811","1.3712018815002258","0.09205443466327493","-0.20579499234898935"
"0.07155331706587015","-0.036773968190628066","0.05861262681941481","0.2632173590523295","-0.15841800037554177","-0.6885528047742706","1.3564340540572657","0.17705477289036106","-0.2747725097179913"
"0.059345730741156025","0.00258666992692143","0.03786097304728771","-0.03881837078000222","-0.14790903300674546","-0.5864295427409819","1.296805467778142","0.2900631381322079","-0.3176413707673674"
"-0.24765017644564297","-0.00925626660565647","-0.025170523083814924","-0.1575330983864983","-0.13343197912064916","-0.6040487177020484","1.2123780769249906","0.4142984609762976","-0.28819047956989285"
"-0.12671044001159124","0.04758546613760191","-0.08744613692186434","0.0019047819763611602","0.032557531430532125","-0.8297003551510784","1.1478175935564252","0.5493781541482882","-0.32882028840281285"
"-0.1473147737405038","0.07126406818089848","-0.12339804664172786","-0.04414430156404815","-0.013776938885257778","-0.6253567557403629","1.0745914604996327","0.6646028870483921","-0.37503955605345557"
"0.008517535326061483","0.07955303310042412","-0.03269217147534427","0.00524898898494069","0.02910639707712646","-0.2816372309833599","1.0438019334723283","0.7442206181054253","-0.48442624572309906"
"0.06510435317258713","0.11430644015274105","-0.05945990480939477","0.06154153571336374","0.054274308908204116","-0.05026300199738837","1.001448918918932","0.7611336141642681","-0.599108212167427"
"0.1050934173811406","0.12083997265196614","-0.004591730918049982","-0.16994294072314906","-0.11243319075949705","0.16514718664507144","0.9494828846149296","0.7977036805255102","-0.6381036763168024"
"0.0862411259927188","-0.09703619735995136","0.22098688267850888","0.14651285260944294","-0.1408392335060795","0.6017969383454844","1.025913357588591","0.7419910577825357","-0.6095026443547711"
"-0.039498264816969796","-0.08160189538761659","-0.07726237848731432","-0.011848866251173805","0.9535221711906116","-0.3226515638817102","1.098749397090287","0.707808863719773","-0.4953763551028481"
"0.1609924933780138","0.20022914418070611","0.22559239501049966","-0.20809670734855407","-0.06663266501669246","-0.30561484098547237","0.9447181704776725","0.7831917494297792","-0.49892288306613997"
"-0.048596907515017634","-0.03477028230970514","-0.11900112477858509","0.02513419686132449","0.07205171943323692","0.13589353168905283","0.9740587785860451","0.777202279686632","-0.30801508058128946"
"-0.07638387346905577","0.21277685047492537","-0.05233478483389333","-0.11848397463362352","-0.10970483211672144","0.24451113424518092","0.9886036954260926","0.7766481877720678","-0.15988298149885305"
"-0.125044762565282","0.028073159619645863","-0.1598518126381267","0.06794959704716882","-0.05398887667477697","0.7743483625509698","1.0644211642417447","0.6709353660719838","-0.12644755796289658"
"-0.14101793530185486","0.032156357752309433","-0.09730358551405807","0.1125663017335464","-0.036943815048594474","1.0968326557777617","1.1504646569660124","0.5081642698364122","-0.14846381519492657"
"-0.08445229948065795","-0.08641323442361191","0.05207610371145479","-0.033553093220720365","-0.09431593205264484","1.0232980825931457","1.2756289605014437","0.3084669052945213","-0.19215311727544215"
