"AccX","AccY","AccZ","GyroX","GyroY","GyroZ","MagX","MagY","MagZ"
"0.06630691451966246","0.1960950488950279","-0.04223157123384896","0.007014094100535379","-0.07445635308970434","-0.12435818529440211","0.5855534615347276","-0.06775754689523088","0.6849473753530979"
"0.07233801482236846","0.14536409066575065","0.055143003179170626","-0.14884909699964102","-0.0009404901304094476","0.1701756894714254","0.5744915228651892","-0.10000041925701862","0.6828063838176543"
"0.04288055732535538","0.05388424850251462","0.07545682349193358","-0.11155217751772861","-0.0860064046774545","0.5953414279603002","0.587448201659485","-0.22082279976068506","0.6410488771530886"
"0.037407892235862904","-0.027087928356721226","0.04006459710927612","0.11022682020693186","0.04988978870332258","0.7132879710881005","0.5740457016593642","-0.3271424840338632","0.6045539603695367"
"-0.38942532324855766","-0.1523219314253339","-0.03229564305931637","0.13586484203974877","0.12448167801857528","0.8711324806566626","0.4762994022821842","-0.42950436891729665","0.605812405775866"
"-0.17012396374227665","-0.11167691923222126","-0.16890587813743058","-0.14236979219547813","0.07727150031033661","0.6976588406818652","0.32410718814359896","-0.5595708495289436","0.610829843954348"
"-0.07957080546170534","-0.11598759647733797","-0.12160334250876823","-0.07379891472568642","0.05001902674429617","0.6078884161901505","0.13493967774688426","-0.7101255383148362","0.5909398691556098"
"0.03541004211962489","-0.11026426355671314","-0.050647473813607916","0.044590403516202345","-0.004975828294956808","0.29870344511027924","0.01261748439858872","-0.7628038481923398","0.6446280920100514"
"0.08722204632930834","-0.10116509905858723","-0.05060410351810486","-0.0026066626465671215","-0.08274912738550921","-0.03463629847475657","-0.011958409572526495","-0.767236583508854","0.6995747602708225"
"0.12466339430047509","-0.08163721177950428","0.07617553124598417","0.19490064747678726","-0.12153968605402449","-0.16022995183703617","0.053020031176499685","-0.7159303107531286","0.7469380691999464"
"0.07805331038380887","0.1537049914556994","-0.010021072339382084","0.1332461631292996","0.10985623971506486","-0.3086727143258228","0.1255774324245548","-0.6399141771407634","0.7650956386341274"
"-0.08192971282786586","0.15284285600667605","-0.04108742153343511","-0.19177810163821807","0.34191510876840764","0.2695080353607435","0.04017480768366046","-0.6158111788572175","0.8303550218480653"
"0.12726204368058422","-0.1013209066698565","0.331395263516279","-0.08815736225158322","-0.14441960590045874","0.09229699463662892","0.07375071724737253","-0.6864447052995298","0.7146434182531042"
"-0.18325681944612554","-0.265749872429369","0.16464680356787717","0.1385124034381809","0.1501234626665561","-0.09035997289363353","0.00598589396193871","-0.6928167623170189","0.7418879441277935"
"-0.10360277601654913","-0.10089503253238714","-0.05355328361231241","0.12715195816490862","-0.1519824245944684","-0.5600007802993823","0.08952164240343977","-0.5965762738230576","0.772760715199952"
"-0.09215485414567201","-0.10059380448393321","-0.24567749693433347","-0.0390917916662403","-0.24542152821836852","-0.8910277038103277","0.24249404365221905","-0.4964043712686164","0.7428522074910849"
"-0.10923526911534065","0.01632838188216761","-0.08721276342701459","0.0010700780736554794","-0.2470513635128687","-1.1222854423833335","0.44779470893473416","-0.31662793032177455","0.7137118417834838"
"-0.033702092431546725","0.0659115573750945","0.013561009527360883","-0.07670545576636513","-0.1912324962975564","-0.8619051005688955","0.5413335706819387","-0.16129749693892304","0.6985941534606959"
"0.04264274095007307","0.15790140978588532","-0.006591514591174056","0.04883035275209142","-0.15625206654070672","-0.44154459161485693","0.5633459927195588","-0.045811549279095885","0.7023204593391775"
"0.06736890424410127","0.22948981357707673","-0.10082690571063938","-0.14819442727202872","-0.02043963855685697","-0.006503135678452075","0.5592221465656756","-0.028699343984302555","0.7120774970999392"
"0.06293223275705317","0.07171175538394553","0.08248694186776168","-0.24094572368110054","-0.08218909587462368","0.3791546365647356","0.5813460239047524","-0.11746091089810949","0.6838360209682874"
"0.03432879600852354","0.0010821916325052716","0.12045660295460053","0.02154988010264715","-0.09389471177095317","0.6602120266805903","0.5683614812850926","-0.25744563678045707","0.6211425589075148"
"-0.05395018300720238","-0.05093480262018861","-0.07182250427993148","0.1914925138948056","0.061650450431918594","0.8036651164806782","0.5167298128854588","-0.3538180519207432","0.5893708982594068"
"-0.09953967843075424","0.014071041210098296","-0.1800747618555499","-0.03589835124493148","0.162673912423324","0.6808648061459726","0.4295160394958997","-0.4742934653445754","0.5728640169556058"
"-0.1079739757889446","-0.12226144962444763","-0.19997346648278366","-0.0836834648630327","0.09252637573932947","0.7199619009975953","0.255924407477704","-0.6062201116694025","0.5805290935214302"
"-0.015071538335544008","-0.12348713616643262","-0.09617802308314553","0.03396549893689451","0.17730653061799964","0.46615841374851413","0.08152472452394974","-0.6895449814881632","0.6432225555822031"
"0.048277159687530845","-0.0870832071520698","-0.012016932033389213","-0.012440957254823165","0.007148135926598271","0.09077776550086755","-0.04188415801354447","-0.7125134106133156","0.7338796551784247"
"0.13366960634254274","-0.12499327640870231","0.03714846104973756","0.0617533406252383","-0.19602627029885428","-0.08261578731501604","0.0019456392841474587","-0.7172363845517445","0.740073821529059"
"0.10094713220496354","0.06617746903166075","0.16161707863916397","-0.02706801191896089","-0.1384435431539581","-0.26409086253039704","0.10913777545974969","-0.6852309801533414","0.7304311878961455"
"0.08493361733833266","0.2239119010936365","-0.3796090999520925","0.04592958820900927","0.7881692776560779","-0.027501260680605686","0.06840086277746978","-0.6373284148727968","0.7830734301531186"
"0.09336030842379134","-0.04625538069506793","0.2270793765706043","-0.06860391788716294","-0.46271136114489686","0.3584290505912497","0.01961130456497224","-0.723370973605849","0.7250541938872835"
"-0.10204300869688379","-0.09758360143421074","-0.32731691508841243","-0.10923195098310266","0.12151398967029302","-0.05500998632574182","-0.005466138262696542","-0.7223815237584128","0.6980384762682906"
"-0.02038630105440371","-0.19272803861450025","-0.00018179796625629154","0.1823752751882049","0.03278250135370836","-0.3188898942963585","-0.03413801456233152","-0.6739248665633037","0.7467092609442502"
"-0.0884865124864591","-0.07805571415512778","-0.21257150470033695","-0.003239959333072077","-0.26411557151549175","-0.5950692483692734","0.07667641891060055","-0.5929350983844924","0.7508278095467829"
"-0.09927008901747873","-0.07549008215622699","-0.19474631324858246","-0.06437648439606646","-0.18509608264836633","-1.1058797092239931","0.2716117411576791","-0.4766549523137898","0.7101653138201919"
"-0.0818334308945532","0.06504007346939501","-0.0033874823795819005","-0.09274486409286645","-0.24187705527981526","-0.9888068441934361","0.429850405400269","-0.31525589319999625","0.6950966558379102"
"0.012755866030485468","0.1266360157911833","0.01806656365447797","0.004682892220475938","-0.18329871656001145","-0.7095453479441363","0.565937328478418","-0.139388438783759","0.690585864511327"
"0.06316523503566986","0.21320272461239473","-0.07059987499717876","-0.01842252051608083","-0.00020574793450407945","-0.10661281238595613","0.5800085602872767","-0.08073517109420413","0.7093481414784195"
"0.0642387785921062","0.10191869633942488","0.09549390001434374","-0.1928274987015966","-0.06835583889634023","0.15840287711107642","0.5628723076883697","-0.136524311292047","0.6978260114594297"
"0.040984766058428795","0.02053207123421276","0.10985359833018767","-0.06449105159839863","-0.15315035355734077","0.5844689894168322","0.567051881492981","-0.2511527357507628","0.6329425275227072"
"0.02993545139146616","-0.03333269741639393","0.027365774585982425","0.1986746259065523","-0.07847469884516073","0.6215760397136236","0.5500270841955301","-0.33338261440502753","0.5723410266568716"
"-0.3747808411916997","-0.11633037322213043","-0.08178941123696624","0.11703345987490091","0.1833304593056016","0.893993724201187","0.4655439656916508","-0.4644913155226407","0.5514050712606646"
"-0.20135782290890858","-0.11008768159727463","-0.17567164423590673","-0.11263045706909003","0.067581040534373","0.622279835958625","0.32800812369456983","-0.581088085544523","0.552042465687247"
"-0.07223412214327946","-0.12408959226334049","-0.14683246297854377","-0.03457649604491429","0.03336407253808949","0.6591441978950712","0.15845674635416473","-0.6842019523120078","0.5588576830176281"
"0.023100396945599323","-0.11132375531334424","-0.0572129104519033","0.036790206261621695","0.07908322618102184","0.4177420858596332","0.0030323284733467515","-0.7555610753091069","0.6276472507480225"
"0.09099119517269964","-0.1100253585527669","-0.055684623848462414","0.0015480832497724005","-0.004462466076645077","-0.020399228503461767","-0.03344141892822938","-0.7703632450267525","0.68447341539487"
"0.12475101085978961","-0.09910012885056506","0.15370303233594032","0.09927072976542015","-0.18633820381994573","-0.18127588644617781","0.027663950095190175","-0.7415372728047777","0.7322289670480446"
"0.07929245886554301","0.1645180396777874","-0.005336047798969033","0.055901748559903666","-0.012971594426227953","-0.3274567934165465","0.11209134094834164","-0.6904156973539071","0.715444247148041"
"-0.09788362917777622","0.12088152134830463","-0.028063941369518557","-0.2773569135315375","0.48051094122729954","0.18876804475747638","0.048283180864606604","-0.6469326747252441","0.7780233050809657"
"0.17507854022165822","-0.2540746887582577","0.37873084317961037","-0.05716741539553575","-0.23091575476761142","0.059281670095258664","0.07336062369227539","-0.7067614088335532","0.695014938603733"
"-0.25333081051109085","-0.058058326607420045","0.02078959863641961","-0.016236116175775635","0.28136469327522917","0.18392641196858828","0.011865161113758677","-0.6974210022737555","0.714414609997408"
"-0.07426567093617692","-0.182766738667351","-0.03119279840223875","0.16567156963809698","-0.0488026019564482","-0.51189994727895","-0.015246340965487704","-0.6657981851496944","0.7446172997493131"
"-0.0917793546057526","-0.1162161143071996","-0.2278130656914096","-0.042525919487406576","-0.24490696935152922","-0.7488851311561042","0.144301923069214","-0.572209422246862","0.7282738529138666"
"-0.11167120202815134","-0.036375100705778714","-0.11137621377871514","-0.0873987155672325","-0.17095169705292423","-1.169342715454281","0.347819303528428","-0.4321560945084256","0.6994276692493037"
"-0.07026997070370086","0.0841067702191209","0.06711113948584625","-0.014463694163225281","-0.15080252914632067","-1.004096210895188","0.46679783783303413","-0.2648599143039123","0.7002938719315821"
"0.03859408565427507","0.15946987307266272","-0.0185472593848488","0.1112184522943446","-0.08177744878115228","-0.3532060284491794","0.49530253118048445","-0.13105331326895645","0.7278489232961449"
"0.0726056785969777","0.22106581539445103","-0.08446597804515461","-0.038254199514736326","-0.028386581428204764","0.06709138153116939","0.5199341528023279","-0.09017320337228225","0.7292708031708288"
"0.06289275716439499","0.06532156588708818","0.08358359076833886","-0.13165438915382388","-0.047558087487813705","0.39371593818545164","0.5360115800374001","-0.17407723116840904","0.6939526145594289"
"0.04482930365560393","0.02780205437603732","0.1058201608484038","-0.010421108595219336","-0.14177979924872056","0.5865075716437325","0.518624553010216","-0.2801765979422247","0.6556272317303069"
"0.0001342673925268334","-0.0807678053086217","-0.0757795274315433","0.03609606380043277","-0.09777903289132585","0.815168544761044","0.4714510966688347","-0.38120602369777734","0.5970359748252312"
"-0.12756734921807406","0.0222303741970479","-0.1159073770327007","-0.049364329892156805","-0.14779654804515735","0.7729893077330364","0.3658750623643493","-0.504346355377371","0.565591183113832"
"-0.1344226228699366","-0.09233392365184452","-0.18444690069269096","-0.14474778370606986","0.0213951939657027","0.6575181858807579","0.21928347712394355","-0.6641754873998991","0.5270696789226846"
"-0.02287037493387073","-0.1289923384312805","-0.08348498326591891","0.02183485398407839","0.05442987321678344","0.4918105734370089","0.05742251558402383","-0.759584838022014","0.5588740264644636"
"0.05049838388905427","-0.10881005918486653","-0.05061442977893892","0.07492568064463753","0.04939916280703398","0.13893441684417904","-0.05999564450019399","-0.776471448751592","0.6499070253379008"
"0.12640128319676888","-0.14622466023766273","0.005114334690316433","0.13295733824947065","-0.12245153223200478","-0.07448572724344957","-0.04260861747301056","-0.7528829643887128","0.7106883041189261"
"0.09711039344438674","0.032666367999864214","0.12185477867153229","0.0052813373714815336","-0.0764140700807486","-0.3118033941742767","0.049787827434267","-0.7029091507608681","0.7187129365151304"
"0.11150550529396484","0.22566733351393706","-0.34220738321112704","0.2832136682324875","0.6073078192047144","-0.19447813324896038","0.09328325882758998","-0.5957187506219462","0.7937783878303362"
"0.028461374992449093","0.057557153258835765","0.0004524409741716756","-0.051452533773320146","-0.28632536818650745","0.39735626359063064","-0.013825285871919469","-0.6479353172373128","0.7952819849391973"
"0.03835723209832588","0.07828060427505834","-0.20247242160462622","0.1874585930731945","0.34000047112435455","-0.05154439654001139","0.013202624731234446","-0.6654155978753524","0.7318203808771585"
"-0.013136271475959227","-0.27005016250040115","0.10783997746754595","0.058815991597377826","0.14241943944629754","-0.009653715972454341","-0.00014414761815835037","-0.6654024052107199","0.7288622169999427"
"-0.10654900317591703","-0.09537009463677855","-0.09134739826497225","0.18188427289249565","-0.1379577038517796","-0.4498202647026306","0.09136065487746879","-0.5747028358624013","0.7483762925214658"
"-0.10586540144939699","-0.0959372343417987","-0.26564848538740565","-0.06205144411344338","-0.20689183892885551","-0.9626935766202853","0.2795529313864406","-0.4899135802694349","0.6903733997024661"
"-0.12079872930619302","0.02257418965924878","-0.04263016490204368","-0.057794165384764576","-0.24688383271901407","-1.0838921437767122","0.4492714916790303","-0.33240635722222384","0.6667898059189169"
"-0.04997373916138888","0.10102643808555616","0.027350491719948012","-0.027801627113726437","-0.16863259220656493","-0.8662734910551104","0.527736023904269","-0.1680745687606294","0.6833620610100597"
"0.05899815296189726","0.19205443817611126","-0.026725657965424365","0.06885458167063288","-0.06957881369147911","-0.21101977189009383","0.544064225567618","-0.062012141447784656","0.7009639532518355"
"0.07612670889822223","0.1939656782076811","-0.008325500310429423","-0.16419532561455286","-0.051157606258633484","0.09551261541120372","0.5608382484367921","-0.07831563640060679","0.7066514727505709"
"0.048204948237546334","0.038460333704264466","0.0825447689284324","-0.18533730681803237","-0.10676107673898982","0.527655644260005","0.564460545734122","-0.19369736200983736","0.6609551953986623"
"0.03518281675700697","-0.027423434079654405","0.1180753672062663","0.15173095543835274","-0.08843081459423671","0.6588529718626568","0.5584976871062095","-0.30972816671898606","0.5938490026923191"
"-0.11161343286816373","-0.039515143431558916","-0.1369357745951806","0.1929173833019618","0.16261886659105745","0.852858047122664","0.5083149376255081","-0.4028551863596815","0.584108308378393"
"-0.13509659640312532","-0.04339371423475551","-0.19310650302813373","-0.08283335696673613","0.25233399999727435","0.6713756912564727","0.35202674115840354","-0.5358636311843722","0.5956958121847247"
"-0.09657419488472384","-0.12089034264527797","-0.16385014083307478","-0.07707226336374792","0.06390972285190122","0.658950047206795","0.18183449583462485","-0.6624076703391463","0.6049462030935874"
"0.022505374597726988","-0.12308203637713251","-0.061397111341864444","0.03180797708457221","0.1119096885883118","0.3273406716310209","0.013899220365336588","-0.7190042016124972","0.6782955924910713"
"0.09100968130389568","-0.12147202439401661","-0.02280787460498198","-0.043736095733889896","-0.09068530042010921","-0.02919037166860876","-0.016806715185875686","-0.7321572882510824","0.7301043189594366"
"0.12594779529086617","-0.09628312723881649","0.0753391041184253","0.08257761446090599","-0.2348287954526449","-0.24290416867225514","0.08074453741375574","-0.7155609161434192","0.7413812972758947"
"0.06932920440634734","0.1547021601678228","0.04942225467710135","0.01858653683560207","-0.004286319413392194","-0.3329900880324186","0.18241963616727058","-0.6557453746997426","0.7265577909961447"
"-0.09377239062532494","0.12465206554102116","-0.07221283693945894","-0.2599022632938743","0.5859596094735225","0.2539759802986464","0.09166715695647348","-0.6526450985111092","0.7775166582290669"
"0.18201469069750337","-0.21125875718145984","0.332758329946375","0.07543690068193477","-0.23306254222600595","0.14040996207507828","0.12301396049105938","-0.6831333464767767","0.6980384762682906"
"-0.2701512642608152","-0.09490163308556224","0.13171635776805965","0.03367282305866784","0.10667315463182664","-0.05959679633626738","0.0906361954180027","-0.6584234856201366","0.7324414318569056"
"-0.07438120925615214","-0.1649631222863147","-0.0537061122726565","0.15040236099113954","-0.10732350154693042","-0.5137443788175741","0.09779719853657023","-0.6246106861670834","0.7622845657784307"
"-0.10166750915696435","-0.0919558305151644","-0.22395104413947114","-0.04779601079468558","-0.27261177606097725","-0.8427569889376538","0.2464785706792821","-0.522684159216522","0.7376386479505774"
"-0.11102611307495645","-0.02933467411122423","-0.08626068217811425","-0.044395579209499346","-0.1828559566048242","-1.1312649117161084","0.428457214132065","-0.3753220952716901","0.7027944192974055"
"-0.06489743882485358","0.059013435065499296","0.006963148430046547","-0.024842134845079075","-0.1735627841400016","-0.8969007621306831","0.5598630145490492","-0.16325660763684674","0.7086126863708245"
"0.04859681570612893","0.17322249156069774","-0.01876411086236406","0.0754378634315342","-0.08943839265441965","-0.4765645220126791","0.5833243555056015","-0.027914380438669836","0.7148885699556359"
"0.07625957796619373","0.21971548276345063","-0.10429652935088356","-0.10652662460870478","-0.019844186249556462","-0.0108302691434082","0.56150698024553","-0.011729619467540054","0.7196281695379154"
"0.05619057178649964","0.09677704516753867","0.07873231342849743","-0.2652070135867328","-0.08205507123953998","0.3270009079265375","0.6006277910566931","-0.10680915347384295","0.6938218669847454"
"0.03307809369479188","-0.0026346508701938025","0.14427515619444348","-0.0771974208116738","-0.16921416339094605","0.6084708682549792","0.6179590904331487","-0.2516012863482672","0.6207666596302996"
"-0.018422149614825124","-0.09795753970125702","-0.015178833100778406","0.20992916872388723","-0.0042128451938016585","0.6680751295557771","0.5745193866905536","-0.3426702503062954","0.597836803720168"
"-0.10079134356381902","0.06993658733288421","-0.14832770554731567","0.07242734543411707","0.07099866872900773","0.7541809598062781","0.47147896049419896","-0.451298650890158","0.5981146423163706"
"-0.13610755670290842","-0.0952049385688331","-0.2309935540283001","-0.15767751082641276","-0.03751102645064519","0.7307129953608906","0.3260297920937201","-0.5672489803450486","0.5739426844467453"
"-0.026278755373139437","-0.12833794646394953","-0.10734277629693129","0.025660820892212614","0.07429663207088914","0.5699076877961161","0.14781276506508742","-0.6741095638681583","0.6044722431353594"
"0.03029650864138869","-0.09302467072847163","-0.03881357889777508","0.047328463376980844","-0.0281319346215457","0.25926658655417323","0.021924002070190574","-0.7141493010277434","0.6849800622467688"
"0.14173899517347807","-0.14938236115938677","-0.058836198655017546","0.062136514965811386","-0.12915994387735574","-0.028785082106832158","-0.022323752607962762","-0.7419990160669145","0.7351544440315895"
"0.11539144412246444","0.007295175939479042","0.2210901452868495","-0.03068024841602169","-0.16050495540755966","-0.25681021172003904","0.04909123180016485","-0.6943603040790195","0.7512200522708333"
"0.09557065276685042","0.2531829576640917","-0.1212006183362399","0.1986072334345922","0.2199838037039426","-0.32631615812292375","0.13571986485707854","-0.6394920118725239","0.7286660956379173"
"-0.01919240508132651","0.10495486732435891","0.03765651308277332","-0.08519883273253528","-0.28895799494708035","0.44002087733932876","0.03485281703912196","-0.6911017159147963","0.7204126549860168"
"0.053548595536399825","0.0561019101695807","-0.22066729319424003","0.3368677034087131","0.46050297784694494","0.020943704434796002","0.017047832631477123","-0.6872890358360088","0.6996401340581642"
"0.04698216768447536","-0.21567330616742275","0.07994255119824928","0.04741511084092953","0.25209467029176774","-0.05836879323292032","-0.020930561339759096","-0.6614446058209751","0.7317223201961457"
"-0.10970705058857276","-0.10279588538987235","-0.1226153160705061","0.06087146199216056","-0.14412283706563053","-0.5133075397689527","0.08762690227868254","-0.5786078645936162","0.7319020981113357"
"-0.09615055437814807","-0.09434488055462668","-0.1880631572367788","-0.13077828701834274","-0.17940242895436348","-1.0230501718381535","0.23279743242552037","-0.4958238940247872","0.6983653452049995"
"-0.10747330973571868","0.023907902811713806","-0.01989999955411067","-0.03861619336412195","-0.2116545000684375","-1.0159636717160716","0.39652527026483336","-0.3427494062940903","0.6755008630822098"
"-0.02218677320735072","0.086596575847204","-0.019303141677901994","-0.0189279640557815","-0.18624486523479813","-0.7731296983545964","0.4662684251511169","-0.20446125708347995","0.676383409211324"
"0.06640704773030764","0.14930082964382113","-0.017014842277074282","0.02818803859071597","-0.05825612532396026","-0.3471388194405477","0.5262592411599732","-0.08541460923934574","0.6729349419290448"
"0.07341059555947166","0.21966354689302756","-0.010668322368460971","-0.14793448488018265","-0.021760499201548086","-0.04784339904474605","0.5388536902245357","-0.0743340902145235","0.6758440754657542"
"0.04255801284875792","0.05054788818653513","0.10241869052966442","-0.17048208049882976","-0.10904188883246806","0.5257869438853464","0.525116824320046","-0.16121570241820166","0.6548100593885346"
"0.03673680716067356","-0.03523355027387913","0.05617562926257664","0.14056306008496647","-0.08674114687335986","0.6964696677161734","0.5261756496838811","-0.28133755242988323","0.5810030534796582"
"-0.3073738596794956","-0.11697437801537676","-0.005895937661391769","0.28885538088514645","0.17854147189841385","1.0845526247442914","0.44620647088898163","-0.3799791058869565","0.5734850679353529"
"-0.19468548493034019","-0.08250661825038685","-0.20131588039121148","-0.09350351077721718","0.17443936074603014","0.5940309108144358","0.3360329053994235","-0.5352171906173805","0.5609659876594009"
"-0.07081877772358314","-0.11770148020130007","-0.14384197784099997","-0.021355055795944156","0.06620010813359971","0.7048181473120505","0.15828956340198042","-0.6568931365227685","0.5801205073505441"
"0.006901924485074791","-0.10696114219780445","-0.05265283366758238","-0.0044075820472606","0.09498189851782755","0.38085345508715246","-0.022463071734783128","-0.6984236447858241","0.6707612634999303"
"0.08729339124189303","-0.11845974390947722","-0.054276121870696616","0.008235053142532317","-0.07120864898597931","0.004362507590926261","-0.0685498388869658","-0.7254554146177812","0.7167844097885477"
"0.1495705676291311","-0.12600083229491033","0.10570863723139595","0.12372456959093836","-0.0696027466620298","-0.15278427294164337","-0.008168929323012027","-0.671774462228209","0.776748516227801"
"0.07006094709952368","0.12206565919395115","0.047974512908166136","-0.005649914130364879","-0.04218752889624482","-0.39465720039615115","0.07898911641581888","-0.6205077674663813","0.7656349723796972"
"-0.09805693665773901","0.1510147133677832","-0.058819676637683053","-0.31575136755679994","0.5606385266309207","0.13763118034912497","0.007379085230142377","-0.5996369720177936","0.8114619973062893"
"0.1377769936176615","-0.1418932086443768","0.30405132482768804","-0.014466582412023568","-0.10455685015127372","0.16092683605866723","0.029196460490214207","-0.647090986700834","0.7369522231834885"
"-0.10555729926279647","-0.23176303882449692","0.08672896981839356","0.13868569836607825","0.19843455702012527","-0.08351616113189697","-0.011233950113060403","-0.6423548200977726","0.746594856816402"
