"AccX","AccY","AccZ","GyroX","GyroY","GyroZ","MagX","MagY","MagZ"
"0.0011111218824360392","-0.015092314798177799","0.007146157379395761","-0.0018388008747504917","-0.005667878424628417","-0.0022316556441591123","0.14039715968886077","0.9697698053234864","0.3244829111431576"
"0.0011111218824360392","-0.015286501643415997","0.00749406969664899","-0.0016452792987015612","-0.003729689741751728","-0.004201703814235439","0.14150346965065058","0.9695970613539063","0.3265063337562759"
"0.0012791006049019285","-0.017026415776750292","0.0067989446177402265","-0.0019355616627749568","-0.004729150537214606","-0.00022215132725912756","0.13954228380929487","0.968706765510686","0.3296349872084925"
"0.0009397381858660994","-0.015667107860082876","0.006441938077716973","-0.0014787352674619214","-0.0035844700398415903","-0.0012038644069694315","0.13813425294883463","0.968879509480266","0.32917589132148245"
"0.0009408731772341096","-0.014509754262463188","0.007141726860610366","0.0004984898063466444","-0.00508083644661502","-0.002237725820593521","0.15105796477520408","0.9689193734732461","0.3277475930063401"
"0.0011111218824360392","-0.01412008599301853","0.006103353168433001","-0.000691010868657814","-0.004926628787911152","0.002512187239331404","0.1407994542204202","0.968706765510686","0.3292098984242239"
"0.0006003757668302704","-0.01527873416960647","0.00730215827768156","-0.0030897227495606033","-0.0061489909118585566","-0.003971313026838557","0.1448726863524671","0.9695837733562462","0.32989004047905357"
"0.0014493493101038581","-0.016058070708495787","0.006458727412061634","-0.0014856040888340284","-0.005652855696844609","-0.0007400477439584644","0.14150346965065058","0.970952437115227","0.3300430724413903"
"0.0012802355962699386","-0.015286501643415997","0.007151520638978084","-0.0016627002224713983","-0.00519780828431629","-0.0012298006153709966","0.1397434310750746","0.9704209172088268","0.3309442606640396"
"0.0012802355962699386","-0.016058070708495787","0.006627087125906695","-0.0016637952519655027","-0.0038071145695605818","-0.00021111464283292964","0.1357204857594736","0.9700754292696665","0.33067220384210777"
"0.0011951112436689737","-0.015281323327542978","0.006103353168433001","-0.0010461986172908301","-0.004705525050785371","0.0017685906261163203","0.13717880343637973","0.971457381026307","0.33155638851338637"
"0.0009397381858660994","-0.015664518702146368","0.006093559390065283","-0.0004039140449309031","-0.005190361120115771","-0.0012344912062521307","0.14095031466975624","0.971457381026307","0.33361381822924613"
"0.0012791006049019285","-0.016247079237860975","0.005755674036379006","-0.00020342409937403817","-0.005923521595718678","-0.0057418731259113575","0.14074916740397542","0.9707664051479868","0.3325085873901478"
"0.001023727547099054","-0.01760120883865537","0.006091927093670663","0.002555154292545666","-0.0047019298680678785","0.00024966693196083305","0.14095031466975624","0.971111893087147","0.33361381822924613"
"0.0012779656135339182","-0.01760120883865537","0.005752176258390533","0.0037046366169474136","-0.004544255426029285","0.004234185926928933","0.13632392755681386","0.969038965452186","0.3300430724413903"
"0.0011099868910680291","-0.014892949637066577","0.00610148768683915","0.002104400333518117","-0.006320404087853281","-0.00027181640717701815","0.13828511339816957","0.9690655414475059","0.3269314225405444"
"0.0010271325212030846","-0.013349552591113343","0.007147323305391917","0.001807348696208442","-0.007195189082648834","0.004709591108587407","0.14271035324533168","0.969078829445166","0.3258601988041877"
"0.0011133918651720597","-0.012190127667144455","0.007153152935372704","-0.000422131353787361","-0.0067764786954437415","0.0014849478363630339","0.14567727541558764","0.9706733891643669","0.3216093109615022"
"0.0009408731772341096","-0.01508972564024129","0.0074884732518674365","-0.0005823043043340322","-0.00450355282169196","-0.0014728835898580057","0.15125911204098494","0.9682549735902458","0.32239147432455634"
"0.0014516192928398783","-0.014514932578336212","0.007333405094378566","-0.00039804070491707236","-0.004281293490121272","-0.0022255854677247036","0.14924763938318386","0.966500957899125","0.32487399282468465"
"0.0013676299316069237","-0.013548141004843613","0.0075071280678059476","-0.0004130724734270459","-0.005408254872672361","0.00025463343995262217","0.14768874807338814","0.9678961976534257","0.32415984366711353"
"0.001282505579005959","-0.012968169627065516","0.007853874459063017","-0.0036381334298350664","-0.004286814663580278","-0.0012041403240800866","0.14743731399116308","0.9697963813188063","0.3234456945095423"
"0.0009408731772341096","-0.014312978259288482","0.006445202670506214","-0.004553080346226897","-0.0035611013521778903","0.002809625884617438","0.14552641496625215","0.9697698053234864","0.326761387026837"
"0.0011099868910680291","-0.016449033556908705","0.008188028849561596","-0.0032653256611605585","-0.004658145678544132","-0.004203359316899369","0.1472864535418276","0.9694243173843263","0.328801813191326"
"0.0013653599488709033","-0.016451622714845213","0.0078485111994807","-0.0004864394495320158","-0.004516392759968719","-0.0027255472722314683","0.14819161623783828","0.968879509480266","0.3328486584175627"
"0.0009408731772341096","-0.015283912485479488","0.007139628193817283","-0.003090817779054707","-0.004181912367859162","-0.002699059229608593","0.14421895773868204","0.9702481732392465","0.33322273654771906"
"0.0011111218824360392","-0.014895538795003086","0.006798245062142533","-0.00326104509131997","-0.0033918709656902135","-0.004185976538928106","0.14743731399116308","0.9716301249958873","0.33613034383211593"
"0.0011099868910680291","-0.01605548155055928","0.006621024310726678","-0.0019905122337518133","-0.0032942874347868497","-0.006688268815457828","0.1403468728724154","0.9701950212486065","0.3398881286850499"
"0.0012802355962699386","-0.016058070708495787","0.006452897782080851","-0.002707657004254125","-0.002722781782088331","-0.00667723213103163","0.13345757901944746","0.9739953885793682","0.33949704700352284"
"0.0011088518996999986","-0.01760120883865537","0.005920535972235594","-0.0014708709647315377","-0.0031362277945999532","-0.0024465950733593158","0.13003807550118673","0.9724141168578275","0.34174151578446077"
"0.0014493493101038581","-0.016050303234686262","0.004020076598499795","-0.0009251480841244208","-0.0038365180282143585","-0.003712778694154872","0.13416159444967843","0.9727596047969879","0.34243866139066126"
"0.0009397381858660994","-0.015276145011669962","0.005223545411732979","-0.0011116017425295889","-0.002901256924135273","-0.0021952345855526583","0.1364747880061488","0.973623324644888","0.34424103783595994"
"0.001363089966134883","-0.016630274612464357","0.00436402476736609","-0.00022512559298446346","-0.004952950661378506","-0.0004881354219304972","0.13466446261412854","0.9744870444927884","0.34509121540449705"
"0.0013642249575028932","-0.01566192954420986","0.004017977931706712","-0.0007573099271190215","-0.004737111298946196","-0.0017294865027671072","0.13813425294883463","0.9750052764015288","0.3460094071785172"
"0.0012791006049019285","-0.015664518702146368","0.005234505116096856","0.00013414362921748568","-0.006109187103200605","-0.001255184989551252","0.1351170439621339","0.9746597884623684","0.34419002718184766"
"0.0012745606394298876","-0.016845174721194633","0.005440874017416633","0.0004899286666654674","-0.006918103214636387","-0.002510056008809954","0.13104381183008698","0.9743940285091683","0.3424726684934028"
"0.0013596849920308324","-0.01665098787595643","0.005270182451579256","-0.00025827512221506725","-0.0076729631859270165","0.0032232256334892044","0.1339604471838976","0.9750850043874888","0.34383295260306207"
"0.001275695630797898","-0.015882007968813148","0.006488575117563251","0.00046713214356093813","-0.006298190994634489","0.0022406848024469355","0.14175490373287566","0.9728659087782677","0.3426257004557394"
"0.0010214575643630135","-0.014911073742622141","0.006133667244333082","0.0002847599587247035","-0.006986283286885975","0.0024837677769339447","0.1362233539239237","0.9737163406285081","0.3416564980276071"
"0.0009351982203940386","-0.016073605656114844","0.006824594989655679","0.001561365252578346","-0.0053997805134097","-0.0007450142519502535","0.1425594927959962","0.9733974286846678","0.3403812316748015"
"0.0013608199833988626","-0.015299447433098549","0.006144393763497727","0.0004932137551477795","-0.004614746687168689","-0.002228896473052562","0.13682679572126397","0.9737429166238283","0.33852784457539065"
"0.0009363332117620488","-0.015105260587860344","0.006826926841647993","0.0007320297329982856","-0.004900820511974867","0.003759608496602423","0.14009543879019035","0.9742744365302284","0.33832380195894163"
"0.001275695630797898","-0.016076194814051353","0.00683648743481648","-0.0005915622809660026","-0.0040302726968106444","-0.0007143874526675543","0.14029658605597006","0.9730519407455078","0.33902094756514206"
"0.0009351982203940386","-0.015296858275162039","0.006129703095946149","0.0004846526154666026","-0.005059522149075601","-0.0007331498161920907","0.14220748508088155","0.9741149805583081","0.3358922941129256"
"0.001275695630797898","-0.014911073742622141","0.0059683389380780286","0.00012966396310524193","-0.005416986030700556","-0.0017380399331974104","0.1307923777478619","0.9726931648086877","0.3378136954178194"
"0.0009351982203940386","-0.015491045120400237","0.006303426069373531","-0.0018475611107033236","-0.0054253319905804495","-0.0017206571552261488","0.1349661835127984","0.9726931648086877","0.3387488907432102"
"0.0012745606394298876","-0.016656166191829455","0.006660898979795248","-0.0011245430001871816","-0.005662742449317713","-0.0027302378631126026","0.1378325320501648","0.9725204208391076","0.339684086068601"
"0.001275695630797898","-0.016073605656114844","0.006139730059513097","-0.00041994129479915304","-0.0047053966514026034","0.0007722539395413041","0.13310557130433281","0.9718161569631274","0.33920798663022034"
"0.0011054469255959683","-0.01568523196563844","0.006308789328955854","0.00014121154686124804","-0.004977474943487115","-0.003975451783498381","0.1348656098799088","0.971125181084807","0.34102736662688965"
"0.001275695630797898","-0.015682642807701933","0.005443905425006641","-0.0011268326073112175","-0.005077498062663063","-0.001724244077664663","0.140045151973745","0.9735568846565881","0.34102736662688965"
"0.0014448093446317973","-0.016653577033892943","0.005969971234472649","-0.0012301635723003068","-0.0065557601564662634","0.000250218766182143","0.1333067185701131","0.973543596658928","0.3405002565343967"
"0.001275695630797898","-0.01568523196563844","0.006140662800310024","-0.0014725632830406077","-0.004645048941501839","-0.004460789981140434","0.13159696681098246","0.9745667724787487","0.3420305761577635"
"0.0014459443359998074","-0.015299447433098549","0.005450667795784351","0.0004868426744548107","-0.005641042953629992","-0.0012463556420102937","0.14145318283420635","0.9744338925021486","0.3416905051303486"
"0.0011054469255959683","-0.015296858275162039","0.005787154038275242","-0.0018705567300795083","-0.005148246122568002","0.003272890713407095","0.13587134620880909","0.9739023725957482","0.3402962139179477"
"0.0013608199833988626","-0.01568782112357495","0.006143461022700801","-0.0006914090612011246","-0.0044720949729139025","0.0012752508322652737","0.13924056291062448","0.9721616449022875","0.34305078924000804"
"0.001104311934227958","-0.016845174721194633","0.0061318017627392295","0.0008343652166290984","-0.0051544092929408465","0.0012584198885153219","0.1336587262852283","0.973543596658928","0.34206458326050493"
"0.0011054469255959683","-0.015105260587860344","0.006135999096325396","-0.0013226437904841836","-0.0053949013368645325","0.00126890473872021","0.1365753616390389","0.973370852689348","0.3432208247537154"
"0.001276830622165908","-0.014525289210082249","0.006143461022700801","-0.0013920288411560478","-0.004973366163238552","-0.0027197530129077145","0.1389891288283994","0.9740751165653285","0.3423366400824368"
"0.0011054469255959683","-0.016459390188654742","0.006481113191187846","-0.0009509310513037794","-0.005186765937398278","-0.0012256618587111723","0.12837861055850142","0.9740485405700083","0.342455664942032"
"0.001104311934227958","-0.016459390188654742","0.006132734503536156","-0.0011259366740887687","-0.005427129581939196","-0.002226137301946013","0.13556962531013866","0.9740485405700083","0.3449891940962726"
"0.0011054469255959683","-0.016071016498178332","0.006133667244333082","-0.0011339005249549798","-0.005180345968259899","-0.0004757191519510245","0.13375929991811789","0.9744073165068284","0.3427277217639639"
"0.0009351982203940386","-0.01568523196563844","0.006477149042800913","-0.0018520407768155677","-0.0051857387423361375","-0.0007188021264380335","0.13064151729852755","0.9738625086027682","0.34359490288387173"
"0.001275695630797898","-0.015879418810876643","0.005966007086085715","-0.0007624864301820589","-0.004277441508638243","-0.002463701934219923","0.13748052433504904","0.9737030526308482","0.34456410531200404"
"0.0014448093446317973","-0.01743032441484575","0.006316484440530489","-0.0009526233696128492","-0.005067996508338262","-0.0007281833082003017","0.13682679572126397","0.9728393327829478","0.34436006269555514"
"0.0012734256480618573","-0.018396080325163742","0.0064822791171840035","-0.00039794115678124474","-0.004517805153179162","-0.003716365616593386","0.128479184191391","0.973158244726788","0.3456013219456193"
"0.0011020419514919378","-0.021101750368816025","0.006469687116425512","-0.0009354015421146677","-0.0075283854809307165","-0.005499893819866967","0.12636713790070092","0.9738625086027682","0.34221761522284155"
"0.0009306582549219978","-0.021873319433895817","0.0068103706925025645","-0.003317090691790931","-0.005545899010999211","-0.013688561829884507","0.1275237346789361","0.9748856844225886","0.34464912306885775"
"0.0012745606394298876","-0.016845174721194633","0.005440874017416633","-0.003417634308976847","-0.007604397915529126","-0.012226201143413284","0.12214304531931852","0.9762676361792294","0.34478515147982364"
"0.0017875767377716768","-0.012204109120001604","0.00442488610436548","-0.004234924504121763","-0.005509947183824288","-0.00920352919618833","0.104944954095123","0.9758689962494292","0.3448361621339359"
"0.0011099868910680291","-0.009106181648968153","0.005453932388573591","-0.003607472604000154","-0.004349601961753626","-0.008685632779488993","0.10238032645642703","0.9755102203126088","0.34504020475038477"
"0.0014504843014718682","-0.007557347371348253","0.004076041046315329","-0.003120980864210482","-0.004704112657574927","0.002282072369045178","0.10373807050044248","0.9755235083102689","0.3452782544695752"
"0.0012779656135339182","-0.012199707551509535","0.004755542716875588","-0.001515269433310665","-0.004211957823426776","0.0047777426349191795","0.10755986855026321","0.9763872281581694","0.3477607729697035"
"0.0009351982203940386","-0.016071016498178332","0.006476216302003989","0.00045020896047023954","-0.0030276019167785762","0.007282794082555451","0.11258855019476502","0.9749787004062086","0.35231772473706247"
"0.0013596849920308324","-0.017624511260083953","0.006661365350193708","0.0004478198052103762","-0.00417985797773488","0.007262100299256329","0.11867325498461244","0.9767194280996696","0.35323591651108255"
"0.0013562800179268018","-0.021490124059292428","0.006129236725547686","0.001189353868990459","-0.0030631685458051973","0.003281720060948054","0.11364457334011062","0.9746199244693885","0.3541201011823611"
"0.0012700206739578268","-0.023041029663261537","0.007167843602924279","0.0006707080813284599","-0.004263831174064881","-0.0017214849065581134","0.11832124726949779","0.9753241883453689","0.3543751544529223"
"0.0011020419514919378","-0.021490124059292428","0.00699132240710612","0.00032268779847503397","-0.004055952573364161","-0.003960828176633669","0.11741608457348712","0.9770649160388296","0.35366100529535105"
"0.001615058049833727","-0.016071016498178332","0.004757874568867901","0.000141510191268731","-0.0025476450239933454","-0.002449078327355211","0.12757402149538088","0.9751780203711088","0.35425612959332703"
"0.001615058049833727","-0.016073605656114844","0.005280442600345439","0.00120617750394533","-0.002401654925786602","0.00029105449855907516","0.12174075078775853","0.9749919884038687","0.3548682574426738"
"0.0009340632290260283","-0.015869062179130602","0.00456059989031815","0.0008338674759499601","-0.0054962084498681564","0.0015042620341088804","0.11067765116985466","0.9761879081932694","0.35294685613777993"
"0.0014459443359998074","-0.013353954159605408","0.002668301998555448","0.00011383580950864734","-0.005378594615253049","0.002252549238205099","0.11993042539573776","0.9758557082517691","0.3528278312781847"
"0.0013596849920308324","-0.01568005364976542","0.004401567584442341","-0.00041814942835425553","-0.004705139852637068","0.0007708743539880294","0.12148931670553348","0.9758557082517691","0.35372901950083396"
"0.0016139230584657166","-0.015291679959289015","0.0030178466122032952","0.0033518380235742612","-0.006989236472689629","0.000709068921201321","0.12400365752778465","0.9762410601839092","0.35017527726434894"
"0.001104311934227958","-0.016065838182305316","0.004740152493726316","0.001716063055654497","-0.004651597310022985","0.0052520441481350355","0.12143902988908868","0.9739821005817081","0.3501922808157197"
"0.0011031769428599479","-0.018005117476750827","0.005780624852696763","0.0021699030068927034","-0.005354455531292743","0.0037425016357418165","0.13979371789151995","0.9756032362962291","0.34655352082238083"
"0.0012734256480618573","-0.018587678012465438","0.0061334340591338524","0.0011725302340355882","-0.006036127854405849","0.005235489121495738","0.1269202928815953","0.9741814205466084","0.34801582624026467"
"0.0009329282376580182","-0.01897087338706882","0.006469220746027048","0.0004816661713917734","-0.006325411663781218","-0.0007497048428313876","0.13682679572126397","0.9735170206636081","0.347471712596401"
"0.001275695630797898","-0.01568523196563844","0.005792284112658333","0.0015486230911924083","-0.006760300373215025","0.0014777739914860052","0.13582105939236372","0.9738625086027682","0.34611142848674153"
"0.001275695630797898","-0.01568523196563844","0.005792284112658333","0.00047569328324211505","-0.006081966434053877","0.0007460418140290841","0.13677650890481918","0.9735303086612682","0.3443430591441844"
"0.001275695630797898","-0.01452011089420923","0.004401567584442341","0.0029992385264727634","-0.005388609767108921","-0.00026022788852951036","0.13848626066394928","0.9720021889303673","0.3394800434521522"
"0.0010214575643630135","-0.012970758785002026","0.004744816197710946","0.002615779107264699","-0.00765575766863616","0.0034555478406606706","0.13204954815898723","0.9714706690239671","0.34031321746931853"
"0.0006809601539591744","-0.014517521736272722","0.005774328852317516","0.0004754941869704598","-0.007005414794918344","0.00023973391597725496","0.1353181912279136","0.9733974286846678","0.33740561018492154"
"0.0012745606394298876","-0.016653577033892943","0.006138097763118479","0.0014883964690166867","-0.005894503335213203","-0.004248885640157434","0.14170461691643144","0.9708328451362868","0.33573926215058886"
"0.001104311934227958","-0.017039361566432838","0.006479714079992459","0.0017182531146427051","-0.006047298600706629","0.003735327790864788","0.13491589669635362","0.9715105330169471","0.33519514850672505"
"0.0011009069601239073","-0.016091729761670413","0.006865635584720405","-0.00024553296082912944","-0.007478309721651358","-0.0012568404922151815","0.140045151973745","0.9717762929701474","0.33310371168812386"
"0.001357415009294812","-0.014351815628336118","0.006181936580573978","0.002075929566671412","-0.006744378849751845","0.0022279926153568083","0.14301207414400097","0.9704209172088268","0.3313863529996789"
"0.0011020419514919378","-0.014157628783097913","0.0068705324739042626","0.00012060508274492678","-0.0065655185095566","-0.0022454514996918594","0.14361551594134178","0.9706069491760666","0.3280366533796426"
"0.0014425393618957769","-0.01454859163151083","0.006881258993068907","-5.9079302423961614e-05","-0.004601649950126394","-0.0012212471849406934","0.1419560509986565","0.9702481732392465","0.3293629303865606"
"0.0011020419514919378","-0.014931787006114219","0.0072168124947628726","0.0004725077428956306","-0.005509176787527683","-0.00023567126568121999","0.14452067863735135","0.9704342052064866","0.328937841602292"
"0.0011009069601239073","-0.01589754291643221","0.007040291298944711","-0.0016884831896507569","-0.004469398585875783","0.0012918058589045705","0.14421895773868204","0.9686934775130259","0.33033213281469287"
"0.0011009069601239073","-0.016868477142623222","0.0075605274784299355","0.00011851457189254636","-0.005175209992949195","-0.0012259377758218276","0.1374302375186048","0.9693844533913464","0.32665936571861254"
"0.0010169175988909728","-0.015705945229130512","0.007212148790778243","-0.0002437410943842319","-0.004939340326805142","-0.00047102856106989044","0.13888855519550983","0.9697432293281665","0.3273395077734423"
"0.0011020419514919378","-0.014540824157701302","0.006172609172604723","-0.00041974219852749774","-0.00587023585187013","-0.0014828166058415838","0.14462125227024203","0.968879509480266","0.3292098984242239"
"0.0011020419514919378","-0.0143466373124631","0.005998886199177339","-6.993004922917426e-05","-0.005386812175750174","0.0007675633486601699","0.14059830695464048","0.9697299413305064","0.3291418842187409"
"0.0012711556653258371","-0.015703356071194004","0.00617564058019473","-0.0007799073539518957","-0.004714513007579102","-0.0007165947895527938","0.13778224523371943","0.9705936611784068","0.3286487812289894"
"0.0012711556653258371","-0.015317571538654111","0.00652518519384258","-0.00033741589019804026","-0.005393617343036856","0.0002687052125960245","0.14175490373287566","0.9693977413890061","0.32827470309883305"
"0.0011009069601239073","-0.015703356071194004","0.006692378981691484","-0.00041655665818101327","-0.005877426217305115","-0.002231103809937802","0.13707822980348905","0.9702481732392465","0.3284277350611698"
"0.0011009069601239073","-0.015314982380717603","0.006170743691010873","-0.000424620057183052","-0.005397982922050955","-0.00022794558658288146","0.13999486515730022","0.9705936611784068","0.32956697300300947"
"0.0009306582549219978","-0.0160891406037339","0.006511427267087928","-0.0006141597077988767","-0.006304867762538403","0.0012597994740685965","0.1383856870310597","0.9707664051479868","0.3284277350611698"
"0.0014425393618957769","-0.01454859163151083","0.006881258993068907","-0.00025090856016382195","-0.00561934345794227","0.0007620450064470711","0.13008836231763207","0.9705803731807467","0.3267783905782078"
"0.0011020419514919378","-0.014540824157701302","0.005998419828778878","-0.0006872280394963638","-0.005065813718831213","-0.0014695725845301462","0.1476384612569428","0.9692382854170862","0.327883621417306"
"0.0012711556653258371","-0.01609431891960692","0.007220077087552112","-6.684405701851747e-05","-0.005164681243562253","2.120756433853633e-05","0.14115146193553596","0.9686934775130259","0.32849574926665276"
"0.0011009069601239073","-0.0160891406037339","0.006168878209417022","0.00047519554256297684","-0.0037778395102895726","0.00028857124456318063","0.13853654748039462","0.9704209172088268","0.3288868309481797"
"0.0009306582549219978","-0.015703356071194004","0.006860738695536545","0.0010105654170440195","-0.0060813244371400385","-0.0002453283645541432","0.14235834553021592","0.971125181084807","0.3284617421639112"
"0.0009306582549219978","-0.015312393222781094","0.005816535373378395","-0.00041257473274790773","-0.0055360122585261075","-0.0027238917695675386","0.13979371789151995","0.9704209172088268","0.3286657847803601"
"0.0009306582549219978","-0.016480103452146812","0.007904009276897765","0.0007601023073016797","-0.004735056908821916","-0.0037177452021466603","0.13969314425863036","0.971125181084807","0.3284277350611698"
"0.0012711556653258371","-0.016480103452146812","0.006870765659103496","4.136476662612614e-05","-0.005777403098129167","-0.0039812460428221355","0.13717880343637973","0.9723211008742074","0.32926090907833616"
"0.0009306582549219978","-0.016474925136273796","0.006684683870116847","-0.0005955442063991082","-0.005532417075808616","-0.0022228262966181534","0.13677650890481918","0.9709258611199069","0.330196104403727"
"0.0011020419514919378","-0.014543413315637813","0.006520987860256416","-0.0016616051929772945","-0.00405864896040228","-0.003943997232883718","0.13602220665814344","0.9714440930286472","0.3297200049653462"
"0.0011020419514919378","-0.013376997665240344","0.005130271332040423","-0.0005985306504739374","-0.005407998073906826","-0.0012262136929324823","0.12621627745136543","0.9714308050309871","0.32739051842755457"
"0.0012722906566938472","-0.013769772924208817","0.0061805374693785905","-0.0004233259314172927","-0.0058636874833489835","-0.0007364608215199501","0.12857975782428113","0.9714308050309871","0.3291928948728532"
"0.0007604095497200682","-0.016083962287860885","0.006157218949455452","0.0002875473065278774","-0.003993550473339115","0.0017879048238621665","0.1326027031398827","0.971111893087147","0.32611525207474884"
"0.0016116530757296964","-0.015708534387067024","0.006535911713007224","-0.00043019475278939983","-0.006198296274841308","0.0005037865908740399","0.1344633153483477","0.9709258611199069","0.3285977705748772"
"0.0005901608445181385","-0.017246494201353588","0.006845115287188041","0.00045239901945844763","-0.005352144342402927","0.004015935492400869","0.13843597384750506","0.971111893087147","0.32863177767761864"
"0.0012700206739578268","-0.016480103452146812","0.006522153786252573","-0.00042929881956695103","-0.003655988496043135","0.001542614512489918","0.13567019894302937","0.9697299413305064","0.3277475930063401"
