"AccX","AccY","AccZ","GyroX","GyroY","GyroZ","MagX","MagY","MagZ"
"0.001201921191877055","-0.015951915233098905","0.003567930497190136","6.42337095062485e-06","-0.00553267387457415","-0.0011351610464163495","0.11731551094059754","0.9723078128765477","0.3446321195174869"
"0.001203056183245065","-0.014791972477542712","0.003919107407232606","0.00036459756365847","-0.004835978823677236","-0.0006291290654751755","0.11872354180105778","0.9744073165068284","0.34235364363380755"
"0.001203056183245065","-0.013822850661907256","0.003224681883921536","0.0018111315253698927","-0.005423277600456168","-0.0026444276416989136","0.1163097746116973","0.9737030526308482","0.3432378283050862"
"0.00128818053584603","-0.014403598787066305","0.0028777023074652327","-0.0012435030225012107","-0.005552960977051429","-0.002626217112395687","0.11248797656187544","0.9716035490005671","0.34369692419209613"
"0.001373304888446995","-0.015180346168019113","0.003924004296416466","-0.0018992265931978682","-0.004118868270920277","0.003387948148550208","0.11927669678195325","0.9735303086612682","0.34461511596611627"
"0.0012870455444780199","-0.015954504391035414","0.004267486094884296","-0.00015693511994253076","-0.0049894160860845","-0.004371392837288231","0.11233711611253996","0.9729987887548678","0.34320382120234466"
"0.0009465481340741806","-0.016143512920400598","0.0037327924330467265","-0.0005330279770993509","-0.0044940512673671594","-0.0006145054586104631","0.11867325498461244","0.9752710363547289","0.3454652935346534"
"0.001203056183245065","-0.015177757010082605","0.0035697959787839863","-0.0016940578852571047","-0.003704266663963747","-0.0015967703725420772","0.12053386719307857","0.9766397001137094","0.34815185465123066"
"0.0010316724866751253","-0.015949326075162397","0.0035618676820101214","-0.0006290919281730225","-0.0062161437890460025","-0.00014047986250526303","0.11731551094059754","0.9766397001137094","0.3485599398841285"
"0.001201921191877055","-0.015563541542622503","0.0032204845503353693","-0.0001644012301296037","-0.003931790370227907","-0.00210942436413897","0.11404686787167116","0.9752577483570688","0.34541428288054116"
"0.0010316724866751253","-0.015946736917225885","0.0028651103067067383","0.0009063385188324814","-0.004141980159818442","-0.000620575635044872","0.11107994570141465","0.9752311723617489","0.34718265222309824"
"0.0012870455444780199","-0.015949326075162397","0.002873971344277532","-0.0016046636592838847","-0.0053196592985627275","-0.002120461048565168","0.11168338749875491","0.9762809241768892","0.34716564867172756"
"0.001201921191877055","-0.0153693546973843","0.003046528391708757","-0.00108203594618878","-0.0038981497319427994","0.0018899941548044972","0.11319199199210585","0.9738226446097882","0.35037931988079785"
"0.0013721698970789846","-0.015371943855320808","0.003226780550714619","-0.0003635970499207093","-0.0050509193904301735","0.001367683064334681","0.1096719148409544","0.9748591084272686","0.3498692133396755"
"0.001541283610912884","-0.016728662614051714","0.003229345587906163","-0.00034936166649735694","-0.005309900945472391","-0.0016320877627059105","0.10891761259427922","0.9748591084272686","0.3494101174526656"
"0.0012870455444780199","-0.015563541542622503","0.0032232827727261487","0.0010897061850269924","-0.004034124678293672","-0.001371897927358295","0.10484438046223231","0.9741681325489483","0.34893401801428475"
"0.0010328074780431556","-0.015175167852146095","0.003215354475952279","0.001079054534493435","-0.006440457510740972","-0.0004053602887340129","0.10926962030939441","0.9769586120575495","0.3484749221272747"
"0.001201921191877055","-0.016337699765638796","0.0030441965397164437","-0.000893392228795404","-0.0053018117843580325","-0.0006266458114792809","0.11228682929609572","0.9745269084857684","0.3494611281067777"
"0.0009476831254421909","-0.015177757010082605","0.003909313628864888","-0.0005195889787626195","-0.00486769347122083","-0.00361510403698302","0.1055986827089075","0.9748591084272686","0.349376110349924"
"0.0015424186022809142","-0.015180346168019113","0.0030588872072680215","-0.001415223556803888","-0.004183196361686837","-0.003605998772331407","0.10942048075872934","0.9753906283336689","0.3487299753978359"
"0.001201921191877055","-0.015566130700559011","0.003917241925638752","-0.0007087304368351338","-0.005890908152495711","-0.0021339809869872607","0.10519638817734807","0.9759088602424092","0.3477777765210742"
"0.001201921191877055","-0.016146102078337107","0.0035674641267916724","-0.0010789499539781231","-0.007604526314911895","-0.0006583762792045999","0.10942048075872934","0.9752178843640888","0.3487299753978359"
"0.001201921191877055","-0.015175167852146095","0.0028728054182813752","1.8667791657424446e-05","-0.003705422258408655","-0.002606902914649841","0.10393921776622275","0.9746863644576886","0.3477947800724451"
"0.001203056183245065","-0.014401009629129796","0.002874904085074456","-0.000539598154063975","-0.005635906978319288","0.0003636206986613265","0.11052679072052028","0.975576660300909","0.34784579072655725"
"0.001201921191877055","-0.015566130700559011","0.0037430525818129075","0.0010733802907512595","-0.0050437290249951885","0.0013599573852363428","0.11173367431520026","0.9748856844225886","0.3469786096066494"
"0.001201921191877055","-0.0157577283878607","0.003568396867588599","-0.0012480822367492818","-0.004620396260010462","-0.0013633444969279914","0.10806273671471334","0.9734771566706282","0.34808384044574764"
"0.0015378786368088534","-0.015586843964051085","0.00361573346303257","-1.4780381980662259e-05","-0.00619393069582721","0.0013536112916912788","0.11047650390407494","0.9746066364717286","0.3490870499766215"
"0.0010282675125710948","-0.015581665648178067","0.003598011387890985","-0.0008212198303203657","-0.004582518442094025","0.0016375299985552198","0.11545489873213141","0.9735701726542482","0.3502772985725734"
"0.0013676299316069237","-0.015195881115638174","0.0032624578861970197","0.0017821630178440496","-0.005259311588661963","0.0018555045159726288","0.12008128584507378","0.9760284522213492","0.34781178362381576"
"0.0013687649229749339","-0.015198470273574682","0.003959215261500402","-0.00037872836656651043","-0.005840447195068051","0.002361260579803148","0.11233711611253996","0.9751381563781288","0.3486449576409822"
"0.0013676299316069237","-0.016358413029130877","0.0037822276952837806","0.0002607688579902425","-0.005048351402774822","0.0006218791142343576","0.10937019394228399","0.9740884045629883","0.3470636273635031"
"0.0010271325212030846","-0.01596745018071796","0.003945457334745751","-0.0007152010656639303","-0.005308231753496412","-0.0021168741261266538","0.11012449618895918","0.9744338925021486","0.34752272325051314"
"0.0011985162177730244","-0.015193291957701664","0.0032563950710170052","0.0002633571095217611","-0.006207926228548877","-0.0003918403503119205","0.11138166660008506","0.9739156605934083","0.34709763446624453"
"0.001282505579005959","-0.015970039338654467","0.0036059396846648524","0.0010861224521371974","-0.0068106329312599195","-0.003650973261368163","0.1096719148409544","0.9734107166823279","0.3450572083017555"
"0.0012836405703739893","-0.015586843964051085","0.00430362980076516","-0.0007151015175281026","-0.00831547369729601","-0.0036603544431304314","0.1084147444298291","0.9741016925606484","0.3457033432538437"
"0.0011985162177730244","-0.014807507425161766","0.0036059396846648524","0.00035135766159339395","-0.005279855489904776","0.00036941495798508035","0.10479409364578751","0.9744206045044885","0.3474547090450302"
"0.001282505579005959","-0.015584254806114575","0.0036068724254617788","-0.0006254086471473998","-0.005538580246181459","-0.0021237720538930275","0.10755986855026321","0.9753109003477088","0.3449891940962726"
"0.001282505579005959","-0.015584254806114575","0.003781061769287624","-0.0007073367629335468","-0.006248500433503434","-0.004129965365465152","0.10901818622716936","0.9747793804413087","0.3486109505382406"
"0.0013676299316069237","-0.015584254806114575","0.003609903833051786","1.518383934835924e-07","-0.005991573268585497","-0.0016365024364763895","0.10590040360757791","0.9761746201956093","0.34675756343882974"
"0.0011985162177730244","-0.014807507425161766","0.0036059396846648524","-0.00018470904983844202","-0.0055197055369146245","-0.0003791481632217928","0.1076604421831539","0.973756204621488","0.34504020475038477"
"0.0013676299316069237","-0.015390067960876372","0.0032619915157985563","0.0003626066009419172","-0.0069197724066123656","-0.0026504978181333223","0.10836445761338374","0.9740751165653285","0.34840690792179174"
"0.0013676299316069237","-0.015584254806114575","0.003609903833051786","-0.0009032474942423404","-0.0049458886953262894","-0.00011785465943155732","0.11092908525207971","0.9751248683804687","0.3481858617539721"
"0.0011973812264050143","-0.01577326333547976","0.0030808066159957706","-9.113380216046137e-05","-0.005756345599355282","-0.0011312982068671805","0.10690613993647816","0.9742478605349082","0.34793080848341096"
"0.0013676299316069237","-0.015581665648178067","0.0032615251454000955","-0.0003665834939955385","-0.004590864401973918","0.0006320880473285906","0.10278262098798646","0.9758158442587892","0.3476247445587376"
"0.0011985162177730244","-0.014421722892621874","0.003258493737810086","-0.0003790270109739934","-0.006762739961487609","0.0020999670760129124","0.10383864413333206","0.9751248683804687","0.34631547110319044"
"0.0011985162177730244","-0.015390067960876372","0.003604307388270232","0.0003597197050029157","-0.006914636431301662","-0.0021494323451839376","0.10238032645642703","0.9742611485325683","0.34541428288054116"
"0.0015367436454408433","-0.017132571252147174","0.003612002499844869","-0.000361207894660846","-0.004833539235404653","-0.0006202997179342171","0.1084147444298291","0.9735568846565881","0.3486449576409822"
"0.0011133918651720597","-0.015387478802939863","0.003601509165879458","0.000343891551406321","-0.00584314358210617","0.0016104901217110354","0.10836445761338374","0.9728659087782677","0.34820286530534283"
"0.0011973812264050143","-0.015387478802939863","0.003255928700618542","0.00035683280906391413","-0.00413363419993855","-0.00011316406855042321","0.10952105439161948","0.9739156605934083","0.3477437694183328"
"0.001282505579005959","-0.01577585249341627","0.0036064060550633154","0.0014428034228076282","-0.005878838610515558","-0.002641944387703019","0.1120856820303149","0.9749654124085488","0.34730167708269355"
"0.0010282675125710948","-0.015581665648178067","0.003598011387890985","-0.002349084619002969","-0.005282680276325663","0.0013883768476338023","0.1134937128907757","0.9742744365302284","0.34755673035325463"
"0.001282505579005959","-0.015581665648178067","0.003258493737810086","-0.0008974737023643371","-0.005765205156766246","-0.0016260175862715018","0.11620920097880659","0.9739289485910684","0.34781178362381576"
"0.0010282675125710948","-0.015193291957701664","0.0035989441286879116","-0.0010922894041790268","-0.0036561168954259027","0.002401268560848115","0.1028329078044318","0.9751115803828087","0.34764174811010834"
"0.001282505579005959","-0.016164226183892672","0.003605473314266389","-0.0008943877101536805","-0.005309772546089624","-0.0021185296287905835","0.11243768974543066","0.9733974286846678","0.3486789647437236"
"0.0013676299316069237","-0.016164226183892672","0.003260126034204706","-0.0005401954428789409","-0.004603575940867908","-0.0006142295414998082","0.1120856820303149","0.9749654124085488","0.34730167708269355"
"0.0011973812264050143","-0.015579076490241556","0.0030812729863942336","0.0003600183494103986","-0.005989133680312913","-0.0016370542706976995","0.104944954095123","0.9746199244693885","0.3449891940962726"
"0.001282505579005959","-0.015195881115638174","0.0032594264786070123","-1.9060951821250733e-05","-0.00549068727640915","0.002614276570273735","0.10851531806271923","0.9745933484740685","0.3492910925930703"
"0.0013676299316069237","-0.015195881115638174","0.0032624578861970197","0.0003620093121269514","-0.006109572301348907","-0.002139775246311014","0.10931990712583865","0.9735701726542482","0.34662153502786386"
"0.0011973812264050143","-0.015581665648178067","0.003255462330220079","0.0008942931943973372","-0.005862018291373005","-0.0006404416670120282","0.10806273671471334","0.9739156605934083","0.3470636273635031"
"0.0011973812264050143","-0.015970039338654467","0.003951520149925765","0.0003428960700480447","-0.002489736902365165","0.0034047790923001603","0.10921933349294963","0.9751381563781288","0.3465875279251223"
"0.0010282675125710948","-0.015193291957701664","0.0034247547848620663","-0.0012760552629168483","-0.00549813444060967","0.00237588418666786","0.11052679072052028","0.9728791967759278","0.34599240362714634"
"0.0015390136281768637","-0.013844081756986634","0.0032715521089670438","0.00033503176731766114","-0.005710507019707255","0.003603439411971723","0.10579982997468777","0.9746332124670486","0.34298277503452496"
"0.0011973812264050143","-0.016164226183892672","0.0039508205943280745","-0.00035274630311549665","-0.005081606842911627","-0.0026171118477440742","0.10931990712583865","0.9735701726542482","0.34662153502786386"
"0.0009431431599701299","-0.015387478802939863","0.003944058223550362","0.00016122072216260348","-0.00641670362492897","0.0018549526817513186","0.10786158944893362","0.9742611485325683","0.3461454355894831"
"0.001282505579005959","-0.015390067960876372","0.003607338795860242","0.0003581269348296734","-0.005524456314077025","-0.0011321259581991451","0.10675527948714379","0.9718294449607873","0.3466385385792346"
"0.0010271325212030846","-0.01596745018071796","0.0035970786470940585","-0.0003473707037808042","-0.004975292153980066","-0.003612068948765816","0.10610155087335818","0.9728791967759278","0.3439179703599158"
"0.0011973812264050143","-0.015584254806114575","0.0037780303616976167","-0.0010909952784132675","-0.005162241655289669","0.0013795475000928437","0.11012449618895918","0.9739156605934083","0.34730167708269355"
"0.0012836405703739893","-0.015195881115638174","0.0036078051662587025","-0.0017001303215425907","-0.005088155211432773","-0.002609386168645736","0.11102965888497042","0.9742744365302284","0.3455163041887656"
"0.0011973812264050143","-0.016744197561670768","0.003949421483132685","-0.001779370637661391","-0.006150146506303464","-0.005367453606752593","0.11183424794808983","0.9730386527478481","0.34891701446291407"
"0.0010271325212030846","-0.016161637025956164","0.0035966122766955978","4.133763826589152e-06","-0.0036864191497590526","-0.001349824558505899","0.10615183768980296","0.9728659087782677","0.3472846735313228"
"0.0010271325212030846","-0.01577326333547976","0.0032491663298408317","-0.0007200789243194845","-0.004603319142102373","-0.0006095389506186741","0.10715757401870378","0.9742611485325683","0.3459073858702926"
"0.001282505579005959","-0.015193291957701664","0.0030852371347811648","-6.119694163657666e-06","-0.005746715645647714","-0.00013468560318150914","0.11047650390407494","0.973756204621488","0.3459583965244049"
"0.0012836405703739893","-0.015195881115638174","0.003781994510084548","0.00017237011337529906","-0.0059762937420361545","-0.00013910027695198827","0.10836445761338374","0.9753109003477088","0.34568633970247303"
"0.001282505579005959","-0.015581665648178067","0.0029101150501583957","-9.703427053452664e-06","-0.005276902304101122","0.0008704804309344655","0.11012449618895918","0.9751514443757886","0.34458110886337484"
"0.0013676299316069237","-0.015581665648178067","0.0030873358015742506","0.0003591224161879498","-0.002750901246914432","0.0001544755287848761","0.1100742093725144","0.9727064528063478","0.34687658829842494"
"0.0011985162177730244","-0.015584254806114575","0.003952452890722692","-0.00045279217962227385","-0.0052933374250953725","-0.0006230588890407667","0.10997363573962482","0.9733974286846678","0.3466385385792346"
"0.0010282675125710948","-0.01577585249341627","0.0037717343613183694","0.0002685336125847983","-0.0052939794220092104","-0.0011252280304327716","0.10876675214494429","0.9740884045629883","0.3472846735313228"
"0.0011985162177730244","-0.015195881115638174","0.0036050069438679283","-0.0007226671758510032","-0.005061961737348185","-0.00036866331301690485","0.10745929491737363","0.9737296286261682","0.3472846735313228"
"0.0011985162177730244","-0.015584254806114575","0.003952452890722692","-0.0010720811326060161","-0.0032343249230343874","-0.001587665107890464","0.10806273671471334","0.975842420254109","0.34430905204144296"
"0.0010282675125710948","-0.014421722892621874","0.003774998954107607","-0.00016071794910398104","-0.003948225491222157","-0.004597368950914634","0.11339313925788556","0.9725602848320877","0.3437819419489498"
"0.0011973812264050143","-0.016355823871194365","0.0036019755362779187","-0.0023314645989614773","-0.0040456806227427535","-0.0015904242789970134","0.11364457334011062","0.9737694926191481","0.34509121540449705"
"0.0011973812264050143","-0.016164226183892672","0.0039508205943280745","-0.000637254875310889","-0.005284734666449945","0.000376864719972764","0.10620212450624832","0.9742478605349082","0.3476927587642205"
"0.0013676299316069237","-0.015390067960876372","0.003610370203450249","-0.0014329431249812076","-0.004041957040642494","-0.001598701792316662","0.10781130263248827","0.9725337088367677","0.3455163041887656"
"0.001282505579005959","-0.015970039338654467","0.0036059396846648524","-0.0010688955922595316","-0.006245418848317012","-0.003628072141183802","0.11143195341652984","0.9728791967759278","0.34689359184979573"
"0.0013676299316069237","-0.015390067960876372","0.0034361808596244017","0.0003570319053355694","-0.005059650548458369","-0.0006271976457005909","0.10449237274711766","0.9745933484740685","0.3492400819389581"
"0.0013676299316069237","-0.015970039338654467","0.0034347817484290145","0.0003608147344970197","-0.0055294638900049604","-0.0016320877627059105","0.10489466727867765","0.9738757966004283","0.35083841576780783"
"0.0011973812264050143","-0.01596745018071796","0.002906150901771462","0.0009780131766283814","-0.007120332242495333","8.96350077809634e-05","0.10690613993647816","0.9735568846565881","0.34772676586696205"
"0.0013676299316069237","-0.015581665648178067","0.0030873358015742506","0.00016122072216260348","-0.0053748710331527885","0.002613724736052425","0.10836445761338374","0.9746066364717286","0.3486109505382406"
"0.0010271325212030846","-0.015579076490241556","0.00342382204406514","-0.0007191829910970358","-0.006223976151394825","-0.0016312600113739459","0.11037593027118425","0.9751514443757886","0.3457033432538437"
"0.0011973812264050143","-0.015581665648178067","0.0036038410178717718","-0.00045149805385651456","-0.006451114659510682","-0.001388452953997592","0.11183424794808983","0.973583460651908","0.34597540007577554"
"0.0010271325212030846","-0.016355823871194365","0.003944524593948825","0.00016082252961929295","-0.005606631919048278","0.0023651234193523174","0.10323520233599236","0.973583460651908","0.3429657714831543"
"0.0010294025039391049","-0.014033349202145466","0.003601742351078686","0.0003514572097292216","-0.006204716243979688","-0.0001413076138372279","0.10921933349294963","0.9741149805583081","0.34325483185645683"
"0.0015390136281768637","-0.014230125205320179","0.0032706193681701174","0.00015843337435942958","-0.004908139276792619","0.0033667025310297775","0.10564896952535284","0.9728791967759278","0.34480215503119443"
"0.0011985162177730244","-0.015195881115638174","0.0037791962876937736","-0.0005465665235719099","-0.005979375327222577","-0.0001333060176282344","0.10675527948714379","0.9734107166823279","0.3439179703599158"
"0.0008568838160011549","-0.01674160840373426","0.004286140910822807","-0.0014534500409617008","-0.006198681472989611","0.0013715459038838504","0.11123080615075014","0.9737960686144683","0.3401431819556111"
"0.0013676299316069237","-0.015778441651352778","0.0037836268064791677","0.0003545432019398784","-0.003899562125153243","0.00038790140439896187","0.10615183768980296","0.9751647323734487","0.3416224909248657"
"0.0011985162177730244","-0.014424312050558382","0.003955251113113469","-0.0010807418204230208","-0.0069169476201914794","-0.001640917110246869","0.11470059648545622","0.9741282685559682","0.3439859845653988"
"0.0009431431599701299","-0.014613320579923568","0.0035975450174925245","-0.0007887671380405556","-0.00464607613656398","-0.005101469512081224","0.10836445761338374","0.975337476343029","0.3425406826988857"
"0.0011985162177730244","-0.014419133734685365","0.0025615031773074727","-0.0012555483469363546","-0.00438080301176615","-0.0011042583300229954","0.10997363573962482","0.9746199244693885","0.34684258119568345"
"0.0013676299316069237","-0.015970039338654467","0.003260592404603169","-0.0014277666219181702","-0.006709967815170133","-0.003883019551428974","0.10846503124627388","0.975483644317289","0.3461284320381123"
"0.0011973812264050143","-0.016938384406908973","0.0042973338003859125","-0.0003675789753538149","-0.005053358978702757","0.00037852022263669356","0.10529696181023765","0.973756204621488","0.343441870921535"
"0.0011973812264050143","-0.016938384406908973","0.003948955112734222","0.00035892331991629455","-0.006104436326038205","-0.0016378820220296646","0.10700671356936885","0.9741016925606484","0.3452442473668338"
"0.0010282675125710948","-0.014807507425161766","0.003599876869484838","0.0011475436519428506","-0.006407458869369703","0.0023460851387171263","0.10972220165739975","0.9727064528063478","0.3453122615723166"
"0.0015378786368088534","-0.015201059431511193","0.003965044891481187","0.0005378113199985618","-0.004369118667934299","-0.000620575635044872","0.10942048075872934","0.9732379727127479","0.3439519774626573"
"0.0010282675125710948","-0.015193291957701664","0.0035989441286879116","-0.0010731761621001201","-0.004849460758867833","-0.0021083206956963507","0.10791187626537896","0.9732379727127479","0.34303378568863724"
"0.0016173280325697472","-0.01618493944738475","0.0034781541954860516","-0.0007284409677290063","-0.005984254503767745","-0.001128263118649976","0.10328548915243659","0.9738359326074483","0.3421666045687294"
"0.0011939762523009636","-0.014828220688653845","0.003989529337400482","-0.0010956740407971665","-0.004815049724286121","0.0008917260484548964","0.10866617851205415","0.9745401964834285","0.3426597075584809"
"0.0011088518996999986","-0.015405602908495433","0.003985098818615088","-0.002525782560097028","-0.005761096376517684","-0.0011075693353508546","0.10579982997468777","0.9759088602424092","0.3450572083017555"
"0.0015344736627048228","-0.014439846998177438","0.002956985275203903","-0.0011002532550452378","-0.003648412932459848","0.0026512494631014977","0.10393921776622275","0.9743408765185286","0.3453122615723166"
"0.0008534788418971245","-0.015985574286273528","0.0043232173575005976","0.0007158033868583803","-0.004603704340250676","-0.0021080447785856954","0.11002392255607016","0.9745269084857684","0.3458223681134389"
"0.0011939762523009636","-0.015408192066431941","0.00381370769718002","-0.0007302328341739037","-0.004362313500647618","-0.00010240330123488025","0.10740900810092883","0.9738226446097882","0.3458053645620682"
"0.0015333386713367926","-0.01637653713468644","0.0036490789465226593","-0.0005642860917492295","-0.005259568387427498","0.00237588418666786","0.10595069042402325","0.9765998361207296","0.34594139297303417"
"0.0009374682031300791","-0.01598298512833702","0.003455068860762146","0.0001760533944009217","-0.00529667580904733","-0.002115494540573379","0.10479409364578751","0.9739953885793682","0.34599240362714634"
"0.0015333386713367926","-0.015216594379130246","0.003826066512739281","0.0007003734258050963","-0.008504349189347126","-0.0006743794716225868","0.10987306210673412","0.9736631886378683","0.3449381834421604"
"0.0010248625384670642","-0.013084940650002088","0.003987897041005865","-9.013832080218498e-05","-0.004612692297044407","-0.0026049714948752564","0.1011734428617465","0.9741814205466084","0.3416905051303486"
"0.0011928412609329535","-0.01637394797674993","0.003985565189013549","-0.0003733527672318179","-0.004355893531509238","0.0003947993321653355","0.0997654120012857","0.9743541645161884","0.34145245541115815"
"0.0011939762523009636","-0.01559978975373363","0.003987430670607401","-0.0009025506572915468","-0.005302838979420174","-0.0021110798668028995","0.10172659784264197","0.9746863644576886","0.3443770662469258"
"0.0009386031944980893","-0.015214005221193738","0.004328114246684455","-0.0005439782720403912","-0.004375025039541608","-0.001598425875206007","0.10916904667650427","0.9726267248203878","0.3445130946578918"
"0.0012779656135339182","-0.01637394797674993","0.0036402179089518654","-0.0007204771168627951","-0.005537039453588247","-0.0026154563450801445","0.10243061327287181","0.9743408765185286","0.3443940697982967"
"0.0011939762523009636","-0.014437257840240927","0.00311928217386895","-0.0021737803518104967","-0.0051650664417105556","0.0008936574682294811","0.11480117011834635","0.9747129404530085","0.34631547110319044"
"0.0011928412609329535","-0.015985574286273528","0.0031155512106812466","-0.001812420618756167","-0.004357691122867984","0.0009035904842130592","0.10469352001289794","0.9725868608274075","0.34849192567864545"
"0.001363089966134883","-0.015985574286273528","0.0025988128091844953","-0.0001917769674822044","-0.005280497486818614","-0.00012088974764876174","0.09956426473550543","0.9748458204296085","0.346808574092942"
"0.0013642249575028932","-0.014828220688653845","0.003646980279729576","-0.0011030406028484118","-0.005031402684249501","0.0023841616999875086","0.1055986827089075","0.9764270921511493","0.3472846735313228"
"0.001276830622165908","-0.016371358818813422","0.002594848660797562","-0.001072379777013499","-0.004857293121216655","-0.0036015840985609278","0.10861589169560881","0.9738093566121281","0.34828788306219655"
"0.0010225925557310238","-0.01598298512833702","0.00310972158070046","-0.0003703663231569887","-0.0055153399579005264","-0.0006183682981596324","0.0997654120012857","0.9751780203711088","0.34770976231559136"
