"AccX","AccY","AccZ","GyroX","GyroY","GyroZ","MagX","MagY","MagZ"
"0.0018602161853244895","-0.01845045264183044","-0.0033586026607789663","0.004006566112912643","-0.0014787201624532045","0.0007096207554226309","0.6717779490633661","-0.714111834147788","-0.08238656783164501"
"0.00134606509561469","-0.01593120196960683","-0.003032143381855025","0.002489452522899424","-0.0015858052476813698","0.0019311058042920846","0.6665984069695299","-0.7148426740190884","-0.07422996423910001"
"0.00151858378355264","-0.01767111610294112","-0.004072149370427008","0.0010974709396215482","-0.003054950985308072","-0.001017068523056032","0.6725322513100418","-0.7166498417008492","-0.07168113188862578"
"0.0019442055465574441","-0.018831058858497313","-0.004755382004174973","0.00021238846397801","-0.0032820894934239295","-0.0007806075592247417","0.6753483130309629","-0.7175002735510896","-0.07185796882288151"
"0.0018590811939564792","-0.01883364801643382","-0.004407936057320204","-0.0007586040528847808","-0.003958240643078029","-0.0012775342755143029","0.6748454448665128","-0.7173806815721494","-0.07587250730151371"
"0.0019442055465574441","-0.01921684339103721","-0.004927939051606195","-0.0010933844336731308","-0.004637088179770248","-0.003723815378581069","0.6717779490633661","-0.716623265705529","-0.07792653630709936"
"0.0018602161853244895","-0.019219432548973722","-0.004757713856167287","-0.00013911600362938336","-0.007350167137649309","-0.0018164003926234157","0.6764546229927538","-0.7172610895932093","-0.07406673014594091"
"0.0016888324887545496","-0.01767370526087763","-0.0035404871161794486","-0.00023607588792550374","-0.0056529840962273765","-0.0008128898611713707","0.6721299567784819","-0.7170351936329893","-0.0754712234891642"
"0.0018590811939564792","-0.018062078951354033","-0.0033586026607789663","-4.763126680378312e-05","-0.005767644745038831","-0.0022760782989745586","0.6695150423233405","-0.7180849454481296","-0.0743965990425333"
"0.00168996748012258","-0.01845045264183044","-0.003365598216755907","0.00012976351124106958","-0.0057671311475077595","-0.0022769060503065237","0.6745437239678423","-0.7173009535861893","-0.07854886628726852"
"0.0019464755292934646","-0.01922461086484674","-0.0037037167556414168","-0.0006651283533426279","-0.002715591416653346","-0.001746317446517059","0.6742922898856173","-0.7160784578014687","-0.07966940032260043"
"0.0018613511766924996","-0.01883882633230684","-0.0031837137613554252","0.000564788864807852","-0.005768415141335435","-0.0013037464010265227","0.6705207786522408","-0.7158126978482686","-0.07661386214127806"
"0.002030464890526419","-0.01922202170691023","-0.004051162702496186","-0.000548159293745152","-0.0017000806983445199","-0.005139821990462261","0.6769574911572039","-0.7172345135978893","-0.07539470750799585"
"0.0016059781188896252","-0.01883882633230684","-0.003367930068748221","6.953688906534797e-05","-0.004863327892206733","-0.005672617931136965","0.6673024223997598","-0.7165169617242492","-0.07510394677955616"
"0.0016888324887545496","-0.01767370526087763","-0.003365598216755907","-0.0011411675388703975","-0.0035033216299324766","0.0021410787255004998","0.6664978333366391","-0.7173408175791693","-0.08179314388880612"
"0.002369827309562248","-0.019025245703735517","-0.00351250489227168","-0.0005673720839598864","-0.003961707426412754","-0.0032255090767382335","0.6710236468166909","-0.7167694336797892","-0.07860667836192906"
"0.0018590811939564792","-0.018445274325957422","-0.004058158258473127","-0.0016101388067544047","-0.003957983844312494","-0.005659097992714872","0.6759517548283032","-0.7171414976142694","-0.07808126862457311"
"0.00168996748012258","-0.01844786348389393","-0.0037153760156029897","-0.0014859027332415114","-0.005989775677226751","0.000640917394869549","0.6776112197709884","-0.7160385938084888","-0.08117591497404816"
"0.0018590811939564792","-0.018253676638655725","-0.003533491560202508","-0.001615116213545787","-0.004183709959217908","-0.00517486346351544","0.6705710654686861","-0.7169953296400092","-0.08239676996246746"
"0.0016911024714905902","-0.01883882633230684","-0.003190709317332366","-0.002010322312781514","-0.009379904580439287","-0.0008713842886302196","0.671677375430477","-0.7182709774153699","-0.07391709889387837"
"0.0018602161853244895","-0.01845045264183044","-0.0033586026607789663","-0.0011186696601733512","-0.004296316217905079","-0.000794403414757489","0.6646372211281741","-0.7190682572749701","-0.07536240076039144"
"0.0016048431275216151","-0.018064668109290548","-0.003020484121893457","-0.000774830399024686","-0.008364008663982157","-0.0003670078103529752","0.6726831117593773","-0.7170219056353292","-0.08214171669190631"
"0.0015208537662886605","-0.018453041799766947","-0.003197704873309312","-0.0017295965697475715","-0.004858833913809867","-0.002019751303176112","0.6773597856887633","-0.7159854418178488","-0.08318403439093282"
"0.0015219887576566706","-0.018458220115639967","-0.0023232603761916106","4.7437202911612114e-05","-0.0044096928728888565","-0.0029860130246897386","0.6725322513100418","-0.7163043537616889","-0.08303610349400736"
"0.0016922374628586003","-0.01884141549024335","-0.002666042619061747","-0.0017622483582990373","-0.004858448715661564","0.002118453522426794","0.6686601664437758","-0.7163575057523289","-0.0808715514045119"
"0.0015197187749206502","-0.017678883576750647","-0.002498149275615152","0.0009800041393449343","-0.004635804185942572","0.0021250755330825127","0.6707219259180216","-0.716370793749989","-0.08083924465690748"
"0.0015208537662886605","-0.018453041799766947","-0.0030228159738857705","-0.0002056141583622462","-0.005766232351828386","-0.004711046800504472","0.6744431503349527","-0.7139125141828877","-0.08345949192313884"
"0.0016945074455946207","-0.020009125719609076","-0.0024888218676458926","0.0017018276722311448","-0.004638628972363459","0.0006591279241727755","0.6747951580500674","-0.7173673935744895","-0.08210600923402778"
"0.0016922374628586003","-0.01884141549024335","-0.0030158204179088297","0.00038201848742830684","-0.0014719149951665225","0.0002215233866740284","0.6693138950575608","-0.7180317934574897","-0.08196828046792476"
"0.0019464755292934646","-0.01883882633230684","-0.0026543833591001795","0.002596864961457447","-0.0021551281108728396","-0.00027512741250487754","0.6653915233748494","-0.7168890256587291","-0.07958608292088379"
"0.002368692318194238","-0.018445274325957422","-0.003162727093424603","0.0013579884110824795","-0.0050941899824228495","-0.0008059919334049969","0.6753985998474082","-0.7171813616072494","-0.07675499161765523"
"0.0016876974973865394","-0.01767111610294112","-0.0037153760156029897","0.0003402082703806984","-0.0032820894934239295","-0.006133399505930728","0.6738397085376124","-0.7159588658225288","-0.07789592991463203"
"0.00151744879218463","-0.01728274241246472","-0.004424259021266404","0.00047798289036615077","-0.0016976411100719359","-0.0007527399310485921","0.6699676236713464","-0.7190283932819902","-0.07705765483205444"
"0.002030464890526419","-0.019411030236275408","-0.004750718300190346","0.000317710391683652","-0.0039615790270299866","-0.0029832538535831893","0.66750356966554","-0.7170883456236293","-0.07354132040858496"
"0.002201848587096359","-0.019610395397386633","-0.0033422796968327713","0.0004654398252518683","-0.003283245087868837","0.0006792698732505868","0.66710127513398","-0.7176597295230095","-0.07710696513102959"
"0.0016888324887545496","-0.018059489793417524","-0.0037153760156029897","-0.00020909834311621362","-0.0030544373877770016","-0.0036962236675155743","0.6616200121414735","-0.7179786414668496","-0.07697093672006365"
"0.0016888324887545496","-0.018059489793417524","-0.0037153760156029897","0.00119901003816574","-0.004638885771128995","-0.0029893240300175985","0.6680064378299901","-0.7183772813966499","-0.07575518279705559"
"0.00168996748012258","-0.017870481264052343","-0.002666042619061747","0.000658563208757488","-0.006219867371146263","-0.0022818725582983124","0.6721299567784819","-0.71905496927731","-0.07635540816044278"
"0.0016888324887545496","-0.017287920728337736","-0.002666042619061747","-0.0006583590801063484","-0.006444052693458465","-0.0037450609961015005","0.666447546520195","-0.7169953296400092","-0.07645232840325601"
"0.0020315998818944293","-0.01922461086484674","-0.0033516071048020255","-0.0019934986778266427","-0.00305289659518379","-0.0017515598716195029","0.6702190577535715","-0.7194270332117904","-0.07504953541516979"
"0.0016071131102576356","-0.01961298455532314","-0.0038925967670188394","-0.0005612000995385727","-0.003053666991480396","-0.003699810589954089","0.668056724646435","-0.71872276933581","-0.0755307359189618"
"0.0016048431275216151","-0.018253676638655725","-0.0038949286190111533","0.00048136752698429053","-0.005089054007112146","-0.0017794274997956527","0.6719790963291469","-0.7171680736095893","-0.0768094029820416"
"0.001856811211220459","-0.0176659377870681","-0.004585156808736059","-0.00031193156742616464","-0.005767516345656062","-0.0022760782989745586","0.6651903761090696","-0.7178457614902496","-0.07602383890871332"
"0.0016888324887545496","-0.018059489793417524","-0.0040651538144500675","0.0003054659709768524","-0.004298113809263825","-0.0017672871469268348","0.6734877008224979","-0.7178856254832295","-0.0758929115631586"
"0.0015219887576566706","-0.01883882633230684","-0.0035474826721563894","0.000635667137517131","-0.005088026812050004","0.0011411551164869692","0.668710453260221","-0.7172079376025693","-0.07508014180763713"
"0.0016876974973865394","-0.01767111610294112","-0.0037153760156029897","0.00037674243622944195","-0.005088668808963843","0.00016965096987089825","0.6654418101912947","-0.7177527455066296","-0.07379467332400902"
"0.0016888324887545496","-0.01767370526087763","-0.003365598216755907","-0.00023607588792550374","0.00011137779374056198","0.00024773551218624845","0.6709733600002467","-0.7194536092071102","-0.07459213988329684"
"0.001857946202588469","-0.018056900635481012","-0.004058158258473127","0.0011297245356297033","-0.006222820556949917","-0.005691656211772156","0.6637320584321635","-0.7176597295230095","-0.0764931369265458"
"0.00168996748012258","-0.01844786348389393","-0.0040651538144500675","-0.0013805808055358693","-0.0051993490769095","-0.0012951929705962194","0.6704704918357965","-0.7163043537616889","-0.07705765483205444"
"0.0018602161853244895","-0.018836237174370333","-0.0037083804596260437","-0.0012862091727712677","-0.006443924294075697","-0.0022884945689540313","0.6676041432984301","-0.7162644897687088","-0.07799455051258232"
"0.0017784968068275753","-0.01961557371325965","-0.003011156713924203","0.00041725852751129094","-0.00554281742581279","-0.0049538538578808265","0.6733871271896071","-0.7178590494879097","-0.07678559801012255"
"0.0016911024714905902","-0.018453041799766947","-0.0030158204179088297","-0.0009257453729393867","-0.004861273502082451","-0.0029937387037880774","0.6717276622469218","-0.7162777777663689","-0.07815098318519316"
"0.00168996748012258","-0.018064668109290548","-0.0030158204179088297","-0.00020969563193117945","-0.0028281976753405176","-0.00369263674507706","0.6663469728873048","-0.7181380974387698","-0.07800815335367892"
"0.0016911024714905902","-0.018453041799766947","-0.002666042619061747","0.0006580654680783497","-0.0042983706080293605","-0.0017672871469268348","0.6738899953540572","-0.7178191854949295","-0.07811187501704045"
"0.0018613511766924996","-0.01883882633230684","-0.003008824861931889","0.0006454228548282396","-0.005768286741952668","-0.00032975900041455717","0.6681572982793256","-0.7152280259512284","-0.07887873518386092"
"0.0019453405379254542","-0.018836237174370333","-0.0033539389567943394","0.0007305365109608709","-0.005768800339483738","0.0001569587827807706","0.6647880815775091","-0.7160784578014687","-0.0784842527920597"
"0.00168996748012258","-0.018064668109290548","-0.0030158204179088297","-0.0005537339893514999","-0.003958369042460797","-0.005170448789744961","0.6688613137095555","-0.7170750576259692","-0.07952997120136034"
"0.0018590811939564792","-0.018062078951354033","-0.003008824861931889","-0.0011220542967914908","-0.0033918709656902135","-0.0002927861075867942","0.6690624609753357","-0.7159588658225288","-0.0773042063269302"
"0.0016933724542266104","-0.01961816287119616","-0.0030134885659165163","-0.0002027272624232447","-0.001698283106985774","-0.0041658345898502955","0.6703699182029064","-0.7159322898272088","-0.07795204163415548"
"0.0018602161853244895","-0.018836237174370333","-0.003533491560202508","0.001022809837750819","-0.0030571337748151206","-0.0027238917695675386","0.6744934371513981","-0.7169554656470292","-0.07855056664240559"
"0.0018613511766924996","-0.019033013177545046","-0.0033586026607789663","0.0007656770029080275","-0.005317604908438446","-0.004219086592206701","0.6734374140060525","-0.7166897056938291","-0.07589801262856982"
"0.001857946202588469","-0.01767111610294112","-0.003883269359049585","-0.0003947556164347603","-0.003732899726320918","-0.002732169282887187","0.6668498410517549","-0.7152413139488885","-0.078009853708816"
"0.001603708136153605","-0.01767370526087763","-0.003720039719587617","-0.0006935991201893326","-0.005651314904251398","0.0011348090229419052","0.6739402821705026","-0.7179919294645097","-0.07788912849408372"
"0.002030464890526419","-0.019030424019608534","-0.0033516071048020255","0.0003818193911566515","-0.004864740285417175","-0.0003170668133244296","0.6735882744553874","-0.7184171453896298","-0.07522127128401429"
"0.0018613511766924996","-0.019227200022783247","-0.0033586026607789663","-1.8364114870457265e-05","-0.004751620429198934","-0.005672066096915656","0.6702190577535715","-0.7192675772398702","-0.0864028066654143"
"0.0016059781188896252","-0.018453041799766947","-0.0031930411693246795","-0.0009178810702090034","-0.0035048624225256886","-0.0037036734295032583","0.6720293831455911","-0.7148426740190884","-0.08661024999213736"
"0.00168996748012258","-0.01845045264183044","-0.003365598216755907","-0.0007670656444301302","-0.003278622710089204","-0.0002919583562548293","0.6727836853922669","-0.7178856254832295","-0.07590311369398105"
"0.0016888324887545496","-0.017867892106115835","-0.003365598216755907","-0.00022771384451598207","-0.005088155211432773","-0.0017785997484636876","0.6749460184994028","-0.7174072575674695","-0.08076782974115036"
"0.0018613511766924996","-0.01883882633230684","-0.0033586026607789663","-0.00021666400143911414","-0.006106875914310789","-0.003256687710242243","0.6751471657651832","-0.7156133778833688","-0.07809827217594387"
"0.00168996748012258","-0.01845045264183044","-0.003365598216755907","0.00027779158921676874","-0.0032796499051513444","0.0018993753365667654","0.6753985998474082","-0.7158392738435887","-0.07631459963715301"
"0.0017762268240915549","-0.01883882633230684","-0.003011156713924203","0.0003948601969500722","-0.004637601777301319","-0.0020169921320695628","0.6703699182029064","-0.7182975534106898","-0.07326926358665309"
"0.0018613511766924996","-0.01883882633230684","-0.0033586026607789663","0.00030228043063036794","-0.0023773874424435283","-0.0010096187610683482","0.6676544301148755","-0.716609977707869","-0.07799285015744525"
"0.00168996748012258","-0.018062078951354033","-0.003365598216755907","0.00014529302043018123","-0.0038461479819219277","-0.003951446994871401","0.6743928635185074","-0.7169421776493692","-0.07922050656641283"
"0.0018613511766924996","-0.01922461086484674","-0.0037083804596260437","4.853223240571615e-05","-0.005542175428898952","-0.0030058790566568953","0.677460359321654","-0.7178590494879097","-0.07738752372864684"
"0.0015197187749206502","-0.017484696731512445","-0.0028479270744622294","0.00011921140884333985","-0.005313496128189883","-0.0010501785763346256","0.666447546520195","-0.7156532418763487","-0.07578748954466"
"0.0020315998818944293","-0.019610395397386633","-0.003701384903649103","-0.0004075973259565257","-0.004637730176684086","-0.0010457639025641466","0.6746945844171778","-0.7161714737850888","-0.0765458479357951"
"0.0022007135957283486","-0.01922461086484674","-0.002994833749978002","0.000664337000635491","-0.0033972637397664523","-0.0022429682456959646","0.6752477393980733","-0.7161316097921088","-0.07787382529785006"
"0.0015208537662886605","-0.018258854954528746","-0.0030228159738857705","-9.205686374314475e-06","-0.0039587542406091","-0.006874788782260572","0.6747448712336231","-0.7163442177546689","-0.07610035488988166"
"0.0018602161853244895","-0.01845045264183044","-0.0033586026607789663","-0.00066841344182494","-0.004184223556748978","-0.00176645939559487","0.6676041432984301","-0.7167694336797892","-0.07821559668040198"
"0.0018590811939564792","-0.018062078951354033","-0.0033586026607789663","-0.0012730688188420192","-0.005653112495610144","-0.003979038705936896","0.6722305304113719","-0.7174072575674695","-0.07457853704220024"
"0.0018602161853244895","-0.01845045264183044","-0.0033586026607789663","-0.0021800518843676383","-0.0053118269362139045","-0.0010532136645518301","0.6760523284611927","-0.7159987298155088","-0.0765254436741502"
"0.0016922374628586003","-0.019033013177545046","-0.003365598216755907","0.002108979547766188","-0.004867308273072527","-0.006159611631442947","0.6745437239678423","-0.7159588658225288","-0.07766298126085285"
"0.002030464890526419","-0.01883364801643382","-0.003701384903649103","-0.0005927568585959343","-0.003054694186542537","0.000196966763825738","0.6783655220176636","-0.7125305624262472","-0.07894844974448095"
"0.0017773618154595652","-0.01961557371325965","-0.00336093451277128","4.295753679936836e-05","-0.002602728359200639","-0.001744937860963784","0.6660955388050798","-0.7155602258927285","-0.0786882954085086"
"0.0017750918327235246","-0.01845045264183044","-0.003011156713924203","-0.0005806119860249624","-0.004409949671654392","-0.0017694944838120745","0.6736385612718322","-0.7187626333287901","-0.0749968244059205"
"0.0016911024714905902","-0.018453041799766947","-0.0030158204179088297","-0.0005869830667179312","-0.004861273502082451","-0.0010457639025641466","0.6762534757269736","-0.7157063938669886","-0.07496451765831608"
"0.0017750918327235246","-0.018256265796592234","-0.0031883774653400526","0.00013026125192020774","-0.005089310805877681","-0.0022661452829909807","0.6768066307078678","-0.7165169617242492","-0.0762890943100969"
"0.00151858378355264","-0.017482107573575937","-0.003372593772732848","-0.0002991894060402269","-0.0035053760200567585","-0.0037014660926180183","0.6773094988723186","-0.7151350099676084","-0.07717497933651256"
"0.0016071131102576356","-0.01884141549024335","-0.0030181522699011436","-3.5287297961155894e-05","-0.003958369042460797","-0.0034677642998932777","0.6770077779736487","-0.7169023136563892","-0.0747264679391257"
"0.0016911024714905902","-0.01883882633230684","-0.003365598216755907","0.000645323306692412","-0.00621948217299796","-0.0003366569281809309","0.669665902772676","-0.7161050337967889","-0.07796224376497791"
"0.0016059781188896252","-0.018258854954528746","-0.003020484121893457","-0.0005700598836272326","-0.003505119221291223","-0.002972769003378302","0.666447546520195","-0.7161581857874287","-0.07600853571247965"
"0.0018602161853244895","-0.018256265796592234","-0.0031837137613554252","0.0004868426744548107","-0.005994783253154687","-0.0027666589217190556","0.6767563438914237","-0.7154937859044285","-0.07651694189846484"
"0.0015197187749206502","-0.018064668109290548","-0.003372593772732848","-0.0012837204693755765","-0.006442126702716951","-0.0027732809323747745","0.6752980262145175","-0.7156399538786886","-0.07698283920602317"
"0.0016048431275216151","-0.018062078951354033","-0.0033702619207405344","-0.0012780462256334012","-0.0037300749399000314","-0.0029760800087061607","0.6701687709371261","-0.7170617696283091","-0.074389797621985"
"0.0022007135957283486","-0.018836237174370333","-0.0031697226494015436","-0.0009270394987051461","-0.004864098288503338","-0.0027514834806330333","0.671275080898916","-0.7180185054598296","-0.0770406512806837"
"0.00168996748012258","-0.01845045264183044","-0.003365598216755907","0.00013125673327848413","-0.003280548700830718","-0.0019960224316597865","0.6710236468166909","-0.7169421776493692","-0.07860497800679198"
"0.0018613511766924996","-0.01922461086484674","-0.003533491560202508","-6.166755395548022e-05","-0.004523968323552007","-6.901733084563156e-05","0.6717276622469218","-0.7156000898857087","-0.0781543838954673"
"0.0018602161853244895","-0.01845045264183044","-0.0033586026607789663","-0.00023856459132119473","-0.005088797208346611","-0.00031899823309901424","0.6677550037477651","-0.7174869855534295","-0.07731950952316387"
"0.0016048431275216151","-0.01845045264183044","-0.003720039719587617","0.0001310576370068289","-0.00373225772940708","-0.0020029203594261603","0.6664978333366391","-0.7175002735510896","-0.07645062804811895"
"0.0018602161853244895","-0.01845045264183044","-0.003008824861931889","0.0020825992917718637","-0.0038498715640221874","-0.002734652536883081","0.6738899953540572","-0.7168092976727691","-0.07766978268140115"
"0.00168996748012258","-0.018062078951354033","-0.003365598216755907","0.0008280936840719572","-0.004185507550576654","-0.0007913683265402846","0.670319631386461","-0.7162644897687088","-0.07861858084788856"
"0.0018602161853244895","-0.018836237174370333","-0.0037083804596260437","-0.00022223869704546194","-0.0035070452120327367","-0.002000713022540921","0.6730854062909367","-0.7150951459746283","-0.07791123311086569"
"0.0018613511766924996","-0.019033013177545046","-0.0031837137613554252","0.0012982595295858961","-0.003962092624561056","-0.004198668726018234","0.6731356931073821","-0.7147762340307882","-0.07746574006495224"
"0.0018602161853244895","-0.01845045264183044","-0.0033586026607789663","-4.792991121126605e-05","-0.0035071736114155047","-0.001756250462500637","0.6698167632220109","-0.7154672099091086","-0.07662576462723758"
"0.0016014381534175644","-0.01689695787992482","-0.003720039719587617","-0.00024772301981733754","-0.003956699850484818","0.0009184900081884265","0.6707722127344659","-0.7182311134223898","-0.07548822704053493"
"0.0018602161853244895","-0.01845045264183044","-0.0033586026607789663","-0.0012922816090567535","-0.0046351621890287345","-0.001286363623055261","0.6650898024761795","-0.7169953296400092","-0.07625168649708126"
"0.0021995786043603185","-0.01883364801643382","-0.003694389347672162","-0.0005752363866902699","-0.004186534745638794","-0.0022545567643434726","0.6713756545318067","-0.7173673935744895","-0.0759269186659001"
"0.0016888324887545496","-0.018059489793417524","-0.0037153760156029897","-0.0003044654572390917","-0.003958240643078029","-0.00297939101403402","0.670068197304236","-0.7188955133053901","-0.07594392221727082"
"0.0018488662716443676","-0.018077613898973093","-0.0033516071048020255","-0.0007369025592743556","-0.001598773585340896","-0.004619166402656375","0.6793712583465644","-0.7168624496634092","-0.07536750182580267"
"0.0018511362543803878","-0.018854361279925902","-0.0033516071048020255","0.0001288675780186208","-0.005103434737982115","-0.0027255472722314683","0.6639834925143886","-0.716609977707869","-0.07650333905736825"
"0.0015957631965775136","-0.01808279221484611","-0.002838599666492975","-0.00033691814951890205","-0.00713484137274807","-0.00031927415020966917","0.6663972597037502","-0.7161980497804088","-0.0791371891646962"
"0.001679752557810448","-0.018463398431512984","-0.003883269359049585","-0.0012911865795626495","-0.005552190580754823","-0.0022448996654705496","0.6719288095127022","-0.7163840817476491","-0.07949596409861885"
"0.0018500012630123777","-0.018465987589449492","-0.0031767182053784844","0.00010497602541998745","-0.0026159534956257","0.0007212092740701388","0.6701184841206813","-0.7181248094411098","-0.07773609653174704"
"0.0016808875491784784","-0.018471165905322513","-0.0026590470630848064","-0.0004126742808837353","-0.0035187295558645874","-0.001239733631354575","0.668056724646435","-0.7159322898272088","-0.07688591896320994"
"0.0016808875491784784","-0.018468576747386004","-0.003008824861931889","0.0001254829414004811","-0.004198090690087877","-0.002223654047950118","0.6695150423233405","-0.716623265705529","-0.0766376671131971"
"0.0016820225405464885","-0.01885695043786241","-0.0031837137613554252","0.00012996260751272485","-0.005554630169027407","-0.002975528174484851","0.6686601664437758","-0.7175932895347095","-0.0782070949047166"
"0.001678617566442438","-0.017689240208496684","-0.00336093451277128","0.000638952225999443","-0.005554630169027407","-0.0002947175273613788","0.6725322513100418","-0.7150287059863283","-0.07926641615511384"
"0.0015117738353445588","-0.018471165905322513","-0.0030158204179088297","-4.2753408148228826e-05","-0.0019367207607851782","-0.0029200688352432063","0.668056724646435","-0.7157728338552887","-0.07666317244025322"
"0.0020202499682143073","-0.018465987589449492","-0.002994833749978002","0.0006587623050291432","-0.0025055300264455777","-0.0021985455908805182","0.6702190577535715","-0.7164638097336089","-0.07618197193646122"
"0.0017660119017794231","-0.01885177212198939","-0.00370604860763373","0.0011950281127326345","-0.003748692850401331","-0.002948488297640666","0.6695653291397858","-0.7166365537031891","-0.07619217406728367"
"0.0016808875491784784","-0.018854361279925902","-0.0037083804596260437","-0.0014829162891666823","-0.0053253088714045015","-0.00029444161025072386","0.6681070114628803","-0.716450521735949","-0.07666147208511616"
"0.0018488662716443676","-0.01807502474103658","-0.003701384903649103","0.001370232831789279","-0.003071129307536788","-0.0026932649702848394","0.6696156159562306","-0.7168092976727691","-0.07596772718918987"
"0.0017648769104114128","-0.018465987589449492","-0.003356270808786653","-0.000384103965901203","-0.005554886967792942","-0.005166034115974481","0.6682578719122152","-0.716317641759349","-0.07532329259223874"
"0.0016808875491784784","-0.018465987589449492","-0.0033586026607789663","-0.0012686887008656032","-0.00532697806338048","-0.005162723110646622","0.6702693445700157","-0.7163043537616889","-0.0759592254135045"
"0.0015095038526085386","-0.017691829366433192","-0.0031930411693246795","0.00014867765704832097","-0.0035198851503094953","-0.005133475896917197","0.6752980262145175","-0.7153609059278284","-0.08545740920920104"
