"AccX","AccY","AccZ","GyroX","GyroY","GyroZ","MagX","MagY","MagZ"
"0.0021348840963835974","-0.019801993084688326","-0.003878605655064958","0.0019256118815716772","-0.006999380023928269","-0.0006202997179342171","0.6619720198565875","-0.7150951459746283","-0.062235659102178535"
"0.001966905373917708","-0.020192955933101237","-0.0035358234121948212","0.0006978847224094054","-0.004284118276542159","-0.0015542791375012153","0.6637823452486089","-0.7143643061033279","-0.058404758978350346"
"0.0017092623333787933","-0.01922202170691023","-0.00424703826985055","0.00025399958475396306","-0.0038299696596932123","-0.001302090898362593","0.6596588263001177","-0.7157063938669886","-0.05891486551947261"
"0.0017898467205076972","-0.017277564096591695","-0.004419595317281777","-0.0007215721463568992","-0.00269838589936249","-0.001037762306355153","0.658502229521882","-0.7150818579769684","-0.056471455187496966"
"0.001621867998041808","-0.01824849832278271","-0.004951257571529337","0.0015539986905271008","-0.0015701405229837243","0.0026291760942491024","0.6667995542353096","-0.7152678899442084","-0.05119185248688154"
"0.0016184630239377575","-0.0168917795640518","-0.0046038116246745675","0.001244204891831488","-0.002701339085166144","-0.003471351222331792","0.6590553845027769","-0.7158924258342286","-0.052208664858851915"
"0.001961230417077637","-0.018437506852147893","-0.005287044258422532","2.7400899250022044e-06","-0.0036055275386154746","-0.0030022921342183805","0.6634303375334942","-0.7142712901197079","-0.05550055240422759"
"0.0019635003998136574","-0.019605217081513613","-0.004934934607583141","-0.0011511223524531616","-0.003829584461544909","-0.002521092693236152","0.6610165703441326","-0.7160385938084888","-0.053519638669536136"
"0.0017092623333787933","-0.018836237174370333","-0.0038972604710034667","0.00015674105605035973","-0.004055438975833091","-0.00033058675174652203","0.6634806243499385","-0.714284578117368","-0.055276105526133795"
"0.0021303441309115365","-0.018049133161671487","-0.004930270903598509","0.0005078473311144425","-0.005188691928139791","-0.0001032310525668451","0.6622737407552579","-0.7150021299910083","-0.05394982851921592"
"0.0016207330066737979","-0.018054311477544504","-0.004951257571529337","0.0004557836560765873","-0.003604757142318869","-0.004461617732472399","0.6629777561854883","-0.7146566420518482","-0.053941326743530534"
"0.001696777428330641","-0.01807502474103658","-0.0038925967670188394","-0.0009072294196754458","-0.004745328859443322","-0.0010405214774617023","0.6709230731838013","-0.7175268495464094","-0.05537812683435824"
"0.0019521504861335355","-0.018846593806116373","-0.004580493104751431","-9.879900861918958e-05","-0.005652855696844609","-0.002517229853686983","0.6617708725908078","-0.7151084339722884","-0.055082265040507325"
"0.0019532854775015456","-0.01942656518389447","-0.004755382004174973","-2.2246492167735183e-05","-0.005200504671354409","-0.0008073715189582717","0.6623240275717033","-0.7155735138903886","-0.05641534346797352"
"0.001696777428330641","-0.018072435583100073","-0.004242374565865922","-9.979448997746596e-05","-0.0054253319905804495","-0.0025117115114738835","0.661066857160578","-0.7140852581524679","-0.054873121358647206"
"0.0016127880670977065","-0.018463398431512984","-0.004244706417858236","1.31926441869043e-05","-0.0045216571346621895","-0.005420429691998342","0.6669504146846451","-0.7175667135393894","-0.053648865659953776"
"0.0019521504861335355","-0.018460809273576476","-0.0038809375070572717","-0.001611432932520164","-0.0022591316109145834","-0.0010043763359659044","0.6652406629255139","-0.7147629460331281","-0.055252300554214755"
"0.0019623654084456473","-0.018831058858497313","-0.004412599761304831","0.0005327343650713523","-0.0051885635287570245","-0.0032696558144430254","0.6657938179064093","-0.7160253058108287","-0.0543392098456059"
"0.0019623654084456473","-0.018831058858497313","-0.004412599761304831","0.00017336559473357546","-0.00496181021878947","-0.0025359922172115195","0.6612680044263577","-0.7145902020635482","-0.05620619978611339"
"0.001621867998041808","-0.01824849832278271","-0.004951257571529337","-0.0006801601218526013","-0.004281550288886807","-0.006420077383901219","0.6590553845027769","-0.7170750576259692","-0.06428968810776418"
"0.0016207330066737979","-0.017860124632306306","-0.004951257571529337","-4.726020262070718e-06","-0.0026990278962763276","-0.0020131292925203935","0.6618211594072532","-0.7157329698623087","-0.06380338653856096"
"0.0019623654084456473","-0.018828469700560804","-0.004587488660728372","0.0006959933078286802","-0.005640529356098921","-0.001572213749693787","0.6615194385085827","-0.7173408175791693","-0.05574540354396629"
"0.0017921167032437177","-0.0184400960100844","-0.004944262015552396","-0.0004694167183054896","-0.004054796978919252","0.0006434006488654435","0.6655423838241843","-0.7156266658810285","-0.056134784870356266"
"0.0014527542842078887","-0.01844786348389393","-0.004433586429235659","-0.00019575889291530995","-0.004618727068034484","-0.0005819472395531794","0.6613182912428031","-0.7167827216774493","-0.057093785167666125"
"0.0017921167032437177","-0.018636872013259115","-0.004419595317281777","0.0010568553002038715","-0.0058665122697698704","-0.0025486844043016467","0.6611674307934681","-0.7155602258927285","-0.05217635811124751"
"0.0019623654084456473","-0.018831058858497313","-0.004237710861881295","-0.0008722880239999446","-0.006769031531243222","-0.004997724678474963","0.6632794770841581","-0.716423945740629","-0.05213895029823187"
"0.001794386685979758","-0.01922202170691023","-0.004242374565865922","0.0001566415079145321","-0.003377875432968547","-7.812259549724485e-05","0.6621228803059236","-0.7146167780588683","-0.05507376326482196"
"0.001961230417077637","-0.0184400960100844","-0.004937266459575455","0.0003364254412192481","-0.0041704848227928455","-0.0005758770631187705","0.6591056713192223","-0.7133809942764876","-0.05624360759912902"
"0.0019521504861335355","-0.018846593806116373","-0.004580493104751431","-0.0010755653173599835","-0.0024863985184132077","-0.0014960606271530214","0.6658441047228547","-0.7145769140658881","-0.055915439057673696"
"0.0019521504861335355","-0.018846593806116373","-0.004580493104751431","-0.00017435604371236757","-0.004522941128489866","-0.003961104093744325","0.6606142758125726","-0.7173541055768294","-0.05419978072436581"
"0.001783036772299616","-0.018846593806116373","-0.004937266459575455","-0.0009120077301951726","-0.004293748230249727","-6.239532018991282e-05","0.6598096867494526","-0.7156266658810285","-0.05444123115383036"
"0.0019544204688695557","-0.019237556654529284","-0.0038809375070572717","0.0003265701757723119","-0.0038444787899459486","-5.577330953419408e-05","0.6624748880210382","-0.716796009675109","-0.05573860212341798"
"0.001783036772299616","-0.018846593806116373","-0.004587488660728372","6.722015358107764e-06","-0.002940033537731084","-0.004180458196715008","0.6609662835276873","-0.7171016336212893","-0.05710398729848857"
"0.0017819017809316059","-0.018072435583100073","-0.004237710861881295","-2.354061793349449e-05","-0.0018085781767831293","-0.0002662980649639192","0.6637320584321635","-0.7150685699793083","-0.05639493920632862"
"0.0019623654084456473","-0.018828469700560804","-0.0047623775601519135","0.00032019909507934296","-0.005074031279328338","0.001357750048351103","0.6588542372369972","-0.7158392738435887","-0.05400253952846521"
"0.0014504843014718682","-0.01728015325452821","-0.0046084753286592","0.0003422987812330788","-0.004280779892590202","-0.0015482089610668066","0.6598599735658974","-0.7169421776493692","-0.057563083185498604"
"0.0019623654084456473","-0.018828469700560804","-0.005112155358998991","-0.0004409459514587848","-0.0017963802354202083","-0.0024890863084001784","0.6570941986614217","-0.7149091140073882","-0.05649526015941601"
"0.0019646353911816675","-0.01960780623945012","-0.004235379009888981","-5.920597892002383e-06","-0.004283219480862786","-0.002040445086475233","0.6641846397801694","-0.7169820416423491","-0.056600682177914606"
"0.0019635003998136574","-0.01883364801643382","-0.0038879330630342125","0.0005269605731933492","-0.004736212503266823","-0.00253212937766235","0.6587033767876617","-0.7179919294645097","-0.05646125305667452"
"0.0017921167032437177","-0.01844268516802091","-0.004419595317281777","-0.001047592291192417","-0.005411593256624318","-0.004976479060954532","0.6531718269787098","-0.7156266658810285","-0.054764298629874454"
"0.0019510154947655254","-0.018069846425163565","-0.004405604205327891","-0.00045458404606717136","-0.004747896847098674","-0.002258419603892642","0.6658441047228547","-0.7162777777663689","-0.05635753139331299"
"0.0017819017809316059","-0.018458220115639967","-0.004937266459575455","-0.0010906966340057847","-0.005197551485550755","-7.508750728004041e-05","0.6605639889961278","-0.7169953296400092","-0.054648674480553404"
"0.001783036772299616","-0.018846593806116373","-0.004937266459575455","0.00034319471445552757","-0.006330932837240223","-0.0025271628696705607","0.6682578719122152","-0.7171946496049093","-0.05452624891068407"
"0.0017853067550356566","-0.01943174349976749","-0.004235379009888981","-0.0008857270223366759","-0.0042946470259291","-0.0034716271394424473","0.6645869343117289","-0.7152811779418685","-0.0550380558069434"
"0.001783036772299616","-0.01865499611881468","-0.004412599761304831","-0.0002009353959783472","-0.0055381950480331565","-0.0008104066071754762","0.6549318655542852","-0.7159455778248687","-0.054742194013092486"
"0.001783036772299616","-0.018846593806116373","-0.004937266459575455","-0.0006875266839038467","-0.002939519940200013","-0.005885074106341275","0.659709113116562","-0.7145902020635482","-0.05466907874219829"
"0.0019521504861335355","-0.018846593806116373","-0.004580493104751431","0.0003530499799024639","-0.004297600211732755","-0.0034705234709998273","0.6617708725908078","-0.7154406339137885","-0.05530501156346405"
"0.0019510154947655254","-0.018067257267227056","-0.004930270903598509","-0.00021845586788401161","-0.0030519977995044174","0.0019057214301118292","0.6601114076481225","-0.7146965060448283","-0.05712609191527053"
"0.0017807667895635957","-0.01768147273468716","-0.004587488660728372","0.00023389086131677994","-0.003617211882447325","0.0004378424014275074","0.6619217330401432","-0.7176730175206696","-0.05507206290968488"
"0.0016979124196986513","-0.018460809273576476","-0.004592152364713","0.00023528453521836688","-0.003164732457574357","0.0004428089094192965","0.6633297639006035","-0.7171680736095893","-0.05482891212508328"
"0.0016093830929936558","-0.01710150135690906","-0.004596816068697627","0.0003296561679829687","-0.003390586971862538","-0.000531178491192669","0.6564907568640809","-0.7163309297570088","-0.05359615465070447"
"0.0017819017809316059","-0.019421386868021452","-0.006511266554387311","-0.00020193087733662356","-0.004634391792732129","-6.956916506694146e-05","0.6607148494454622","-0.7170351936329893","-0.053303693567127705"
"0.002048624752414622","-0.02350966724976973","-0.003871610099088017","0.0009812982651106936","-0.006334142821809413","-0.004484794769767415","0.6677047169313208","-0.7169023136563892","-0.052968723605124085"
"0.0016116530757296964","-0.01788083789579838","-0.004244706417858236","0.0005128247379058245","-0.0047473832495676035","-0.0015269633435463755","0.6576473536423172","-0.7156000898857087","-0.055146878535716155"
"0.0019521504861335355","-0.018458220115639967","-0.004405604205327891","-0.0007392917145342189","-0.0038425527992044352","0.00043232405921440843","0.6603628417303475","-0.7181380974387698","-0.06248391095219137"
"0.0017807667895635957","-0.018069846425163565","-0.0047623775601519135","-0.0005571186259696395","-0.005650672907337561","-0.0005675995497991221","0.6566919041298607","-0.7173939695698094","-0.0638867039402776"
"0.0017807667895635957","-0.017686651050560175","-0.0038879330630342125","-0.0016015776670732283","-0.005649388913509884","-0.0030011884657757614","0.6519146565675844","-0.7177394575089696","-0.057246817130002806"
"0.0016945074455946207","-0.01768147273468716","-0.005116819062983618","0.0006866357830608822","-0.004974264958917925","-0.001043556565678907","0.6632291902677134","-0.7184968733755899","-0.05616879197309775"
"0.0019544204688695557","-0.01962334118706918","-0.004228383453912035","0.0006991788481751645","-0.004750079636605723","-0.00250481358370751","0.6576473536423172","-0.7173009535861893","-0.055813417749449236"
"0.0019521504861335355","-0.018460809273576476","-0.0038809375070572717","-0.0010959726852046495","-0.0024854997227338345","0.0009400115428195121","0.6644360738623944","-0.7194668972047703","-0.05256573943763749"
"0.0015276637144967418","-0.018072435583100073","-0.004424259021266404","-0.00027758746056562924","-0.0033895597768003973","-0.001994091011885202","0.6596085394836724","-0.7155868018880486","-0.056010658945349845"
"0.0016127880670977065","-0.018463398431512984","-0.004244706417858236","0.0014246856620869976","-0.004975934150893904","-0.004940058002348078","0.6602622680974575","-0.7180982334457897","-0.057784129353318246"
"0.0019532854775015456","-0.018846593806116373","-0.004405604205327891","0.000337022730034214","-0.00474918084092635","-0.00152944659754227","0.6620223066730329","-0.7165036737265891","-0.05395662993976421"
"0.0017819017809316059","-0.018458220115639967","-0.004587488660728372","-1.7468181648008514e-05","-0.004973622962004087","-0.0015322057686488193","0.6632291902677134","-0.716477097731269","-0.05527950623640795"
"0.0019521504861335355","-0.018458220115639967","-0.004580493104751431","0.0008763745299483622","-0.004072130895592877","-0.0024923973137280374","0.6543787105733908","-0.7180052174621697","-0.06011701660138408"
"0.0016082481016256457","-0.016904725353734346","-0.00494659386754471","-3.100672812056742e-05","-0.0029377223488412673","0.00044943092007501516","0.6536746951431599","-0.716317641759349","-0.0594623798736105"
"0.0016922374628586003","-0.01593638028547985","-0.004244706417858236","0.0012801417688652658","-0.0022614427998044","0.002410097908389074","0.6564404700476356","-0.7178324734925895","-0.054711587620625154"
"0.0021246691740714856","-0.020009125719609076","-0.004571165696782177","0.000881650581147227","-0.005542689026430022","-0.0032484101969225943","0.6543787105733908","-0.7196927931649905","-0.05541043358196266"
"0.0014402693791597564","-0.017298277360083773","-0.004428922725251031","-0.0007091286293784444","-0.0031626780674500754","-0.003449829687700706","0.6618714462236985","-0.7181646734340897","-0.055968150066922996"
"0.0021201292085994247","-0.018064668109290548","-0.00509816424704511","-0.00020820240989376484","-0.004070590102999665","0.00042956488810785896","0.6553844469022911","-0.7189220893007101","-0.05248752310133208"
"0.002121264199967435","-0.01845563095770346","-0.004923275347621568","-0.0007211739538135885","-0.00497452175768346","-0.002019751303176112","0.6486963003151034","-0.7196529291720104","-0.050351877049166875"
"0.00203500485599846","-0.018067257267227056","-0.004927939051606195","-0.0018490543327407383","-0.0048599895082547745","-0.0049386784167948046","0.6600108340152323","-0.7190682572749701","-0.054203181434639966"
"0.0016945074455946207","-0.017295688202147264","-0.004592152364713","-0.0009048402644155825","-0.0030500718087629036","-0.0010137575177281725","0.6615194385085827","-0.7190948332702901","-0.05328328930548282"
"0.0019532854775015456","-0.018846593806116373","-0.004230715305904354","0.0005251687067484517","-0.004749822837840188","-0.002990151781349563","0.6614188648756931","-0.7192277132468902","-0.05440552369595179"
"0.0016127880670977065","-0.01865499611881468","-0.004419595317281777","-0.0009040438793289615","-0.003388789380503792","-0.001021759113937166","0.6604131285467929","-0.716796009675109","-0.061591224505227415"
"0.0017807667895635957","-0.01768147273468716","-0.004587488660728372","-0.00011333303645002488","-0.007007725983808162","-0.0010739074478509512","0.6624246012045935","-0.7167827216774493","-0.06200611115867353"
"0.0019532854775015456","-0.018846593806116373","-0.004230715305904354","-0.001066605985135496","-0.00395605785357098","-0.0029785632627020555","0.6540769896747204","-0.7174205455651292","-0.0567656166262108"
"0.0016127880670977065","-0.018463398431512984","-0.004244706417858236","0.0004975938731241956","-0.005198963878761198","0.0004127339443579072","0.660664562629018","-0.7182045374270698","-0.054196380014091675"
"0.0016956424369626308","-0.017684061892623667","-0.004592152364713","-0.00036499072382229625","-0.0038425527992044352","-0.00224379599702793","0.659306818585002","-0.7185500253662298","-0.05421678427573656"
"0.001949880503397515","-0.017293099044210756","-0.004230715305904354","0.0020337211570804928","-0.0033959797459387764","-0.003453140693028566","0.6575970668258718","-0.7186297533521899","-0.05111023544030197"
"0.0016127880670977065","-0.018458220115639967","-0.004944262015552396","0.00033194577510700434","-0.005877426217305115","-0.001058732006764929","0.6604634153632372","-0.7195067611977504","-0.05083647826323304"
"0.001696777428330641","-0.018072435583100073","-0.004592152364713","0.00035533958702649955","-0.004861401901465219","-0.0039641391819615285","0.6563901832311914","-0.7191745612562503","-0.05560427406758912"
"0.0020372748387345","-0.018844004648179858","-0.004925607199613881","0.0002596738284961385","-0.004071745697444573","-0.002737135790878976","0.6590553845027769","-0.716796009675109","-0.05556856660971055"
"0.0016933724542266104","-0.016907314511670858","-0.004592152364713","-0.0007311287673963525","-0.00519780828431629","-0.0010452120683428366","0.6613182912428031","-0.7178590494879097","-0.054635071639456814"
"0.0017796317981955854","-0.01768147273468716","-0.004937266459575455","-0.001451857270788459","-0.004292464236422051","0.0009140753344179472","0.6545295710227252","-0.7180583694528097","-0.0587703353328213"
"0.0019532854775015456","-0.019234967496592776","-0.004405604205327891","0.0004906255036162608","-0.004070333304234131","0.0016449797605429038","0.6546804314720601","-0.7180716574504697","-0.05787424817558319"
"0.0017796317981955854","-0.017678883576750647","-0.005289376110414846","-0.0007237622053451072","-0.003842424399821668","-0.001513995239345593","0.658099934990322","-0.71858988935921","-0.058263629501973176"
"0.0021201292085994247","-0.018256265796592234","-0.005622830945315728","-0.0010880088343384383","-0.0037303317386655666","-5.329005553829955e-05","0.6591559581356676","-0.7169953296400092","-0.05467077909733537"
"0.0015322036799687824","-0.01963369781881522","-0.0028479270744622294","0.0009450627436694329","-0.003842937997352738","-5.549739242353913e-05","0.6583513690725471","-0.7179653534691895","-0.056248708664540244"
"0.002109914286287313","-0.015333106486273167","-0.007901050341806376","0.0037834787405229033","-0.003399703328039037","-0.0005292470714180844","0.649752323460449","-0.7200781450971305","-0.0534686280154239"
"0.0012802355962699386","-0.019646643608497764","-0.0007578881337513155","0.002099323378590907","-0.007460077009298361","-0.0015689027443659275","0.6506071993400143","-0.7191081212679502","-0.05166795192526232"
"0.0019476105206614747","-0.016902136195797838","-0.004932602755590823","-3.630990767966695e-06","-0.0052011466682682465","-0.0034801805698727504","0.6533226874280452","-0.7184304333872898","-0.051849889924929254"
"0.0017819017809316059","-0.018264033270401762","-0.004937266459575455","-0.0008923967474371277","-0.003390201773714235","-0.002482188380633804","0.6448242154488374","-0.7193605932234903","-0.053772991584960184"
"0.0016139230584657166","-0.01885177212198939","-0.004244706417858236","-0.0010696919773461528","-0.0033889177798865594","-0.0024830161319657697","0.6531718269787098","-0.71905496927731","-0.053642064239405485"
"0.001949880503397515","-0.01768147273468716","-0.004580493104751431","-1.9757788772044212e-05","-0.003279007908237507","-0.0010181721914986517","0.6508586334222394","-0.7186696173451701","-0.04920243697650471"
"0.0016922374628586003","-0.016127977972781538","-0.004944262015552396","0.0013971108284627418","-0.0031669152470814054","-0.0012562886579938716","0.6564907568640809","-0.7192011372515702","-0.048886170921008915"
"0.0016933724542266104","-0.016907314511670858","-0.004592152364713","-0.0004885299603843963","-0.00519729468678522","0.0018764742163824048","0.648646013498658","-0.7198123851439304","-0.050800770805354466"
"0.0016979124196986513","-0.018460809273576476","-0.004592152364713","0.0002579815101870686","-0.006104307926655437","-0.0030097418962060645","0.6507580597893493","-0.7189619532936901","-0.05054571753479334"
"0.00203613984736647","-0.018067257267227056","-0.004578161252759118","-0.0003738505079109561","-0.0036179822787439303","-0.0010242423679330606","0.646785401290193","-0.7190151052843301","-0.048593709837432136"
"0.0016116530757296964","-0.018072435583100073","-0.004594484216705313","-0.00045080121690572105","-0.002146653751610179","-0.0022192393741796396","0.652316951099145","-0.7190151052843301","-0.04895418512649186"
"0.0016933724542266104","-0.016904725353734346","-0.004941930163560082","0.0007075408915846863","-0.002827427279043912","-0.003444311345487607","0.6536746951431599","-0.7200249931064907","-0.04982476695667387"
"0.0019487455120294848","-0.017096323041036043","-0.004757713856167287","-0.001081239561102159","-0.0040685357128753845","-0.0012725677675225135","0.6561890359654106","-0.7189619532936901","-0.051579533458134465"
"0.0017796317981955854","-0.017295688202147264","-0.0040628219624577536","-0.0009594921909849563","-0.002938621144520641","-0.005394493483596778","0.6516632224853588","-0.7175135615487495","-0.047848954287393636"
"0.001696777428330641","-0.018072435583100073","-0.004592152364713","-0.00025986789238830946","-0.004521528735279422","-0.004445890457165068","0.6553844469022911","-0.7172478015955494","-0.051372090131411405"
"0.002121264199967435","-0.018458220115639967","-0.004223719749927408","0.0013247393337160482","-0.00497824533978372","-0.0034796287356514406","0.6533729742444906","-0.7194536092071102","-0.051846489214655116"
"0.0016945074455946207","-0.017293099044210756","-0.004941930163560082","0.0007166993200808291","-0.0033928981607523542","-0.00467076290234885","0.6558370282502959","-0.71869619334049","-0.0486753268840117"
"0.001949880503397515","-0.01787307042198885","-0.004930270903598509","0.00033503176731766114","-0.0031666584483158703","-0.001017068523056032","0.658502229521882","-0.7180052174621697","-0.049081711761772444"
"0.0016956424369626308","-0.01768147273468716","-0.00476704126413654","0.002737725573653556","-0.004299911400622572","-0.00298049468247664","0.648646013498658","-0.7177793215019498","-0.04991148506866465"
"0.001949880503397515","-0.017678883576750647","-0.004930270903598509","-0.0005414895686447003","-0.005199991073823339","-0.0025081245890353696","0.6532221137951545","-0.7190682572749701","-0.04737285484901286"
"0.0017807667895635957","-0.018069846425163565","-0.004587488660728372","0.0003429956181838723","-0.0055396074412436","-0.0025133670141378136","0.6557867414338511","-0.7193605932234903","-0.04934526680801895"
"0.0019521504861335355","-0.018458220115639967","-0.004580493104751431","-0.00018381311661599327","-0.005539864240009135","-0.003001464382886416","0.6540769896747204","-0.7179387774738697","-0.0509436006368687"
"0.0019510154947655254","-0.018067257267227056","-0.004930270903598509","-2.3142425390183934e-05","-0.0036181106781266975","-0.0005372486676270778","0.6550827260036207","-0.7192011372515702","-0.04913272241588467"
"0.0017807667895635957","-0.01787565957992536","-0.004937266459575455","0.00015345596756804764","-0.0037304601380483337","-0.0005383523360696978","0.6577479272752063","-0.7201977370760707","-0.05043009338547228"
"0.0016945074455946207","-0.017290509886274247","-0.00529170796240716","-0.0007473551135362577","-0.0040669949202821725","0.001405207791383754","0.6478917112519829","-0.7184437213849499","-0.05059332747863142"
"0.002121264199967435","-0.018069846425163565","-0.004223719749927408","-0.001964331074029144","-0.0042940050290152625","-0.0015214450013332763","0.6469362617395275","-0.7171946496049093","-0.05799837410058961"
"0.0014414043705277668","-0.017878248737861868","-0.004601479772682254","-0.0011535115077130247","-0.005196524290488614","-0.0034818360725366797","0.6552335864529556","-0.7178723374855697","-0.05898458008009264"
"0.0019521504861335355","-0.018458220115639967","-0.004230715305904354","-0.001087809738066783","-0.005198578680612895","-0.0005618052904753681","0.6618714462236985","-0.7179919294645097","-0.050147834432717975"
"0.0021223991913354653","-0.01864981780294166","-0.00439860864935095","-0.0009015551759332704","-0.004295931019756776","-0.0015225486697758963","0.6571444854778665","-0.7178457614902496","-0.054476938611708915"
"0.0017807667895635957","-0.018069846425163565","-0.004587488660728372","1.2197162828627912e-05","-0.002488196109771954","-0.0049025332752990055","0.6525180983649247","-0.7167029936914892","-0.0518668934763"
"0.0017819017809316059","-0.018264033270401762","-0.004937266459575455","0.00017167327642450558","-0.003279007908237507","-0.0027236158524568837","0.6491991684795535","-0.71874934533113","-0.05751037217624931"
"0.0020372748387345","-0.01864981780294166","-0.004575829400766804","0.00019357386630658617","-0.0024899937011306997","-0.005390906561158263","0.6598096867494526","-0.7181646734340897","-0.05577771029157069"
"0.0016116530757296964","-0.01807502474103658","-0.004244706417858236","0.0003280633978097264","-0.004972852565707482","-0.0005568387824835792","0.6578987877245422","-0.7171946496049093","-0.05357064932364836"
"0.0017807667895635957","-0.018069846425163565","-0.004937266459575455","-3.538684609698353e-05","-0.007007469185042626","0.00038569406751372227","0.6540267028582751","-0.7192675772398702","-0.05228348048488318"
"0.0019521504861335355","-0.01864981780294166","-0.004755382004174973","0.0007003734258050963","-0.003619779870102676","-0.002486051220182974","0.6552335864529556","-0.7168624496634092","-0.052720471755111256"
"0.001949880503397515","-0.017678883576750647","-0.004930270903598509","-0.00038679176556854925","-0.0020346894898368457","0.0009480131390285059","0.6511100675044644","-0.7176995935159894","-0.05278338489518299"
