"AccX","AccY","AccZ","GyroX","GyroY","GyroZ","MagX","MagY","MagZ"
"0.0020826744934550083","-0.018906144438656087","-0.005072513875129654","9.56185006521894e-05","-0.004349858760519161","0.003949439468733027","0.6582005086232116","-0.7180052174621697","-0.04507227434855147"
"0.0019112907968850683","-0.017937799370401585","-0.004904620531683059","-0.00094246945975843","-0.005478232536280694","0.0005261358768370906","0.6607148494454622","-0.7179387774738697","-0.04167156407440304"
"0.0019112907968850683","-0.017937799370401585","-0.004904620531683059","0.00021726632263356426","-0.0028808414222752272","-0.00016503648535355338","0.6519649433840292","-0.7173142415838494","-0.04450095502249452"
"0.0019135607796210887","-0.018717135909290902","-0.004554842732835977","-0.0012814308622515406","-0.003104641546439127","-0.0009006315023596439","0.6562393227818558","-0.7170086176376693","-0.043538554014910504"
"0.0016559177390821941","-0.017360417150559998","-0.00456650199279755","0.0005771328336504792","-0.004801567789095524","-0.001409422654407368","0.6560381755160761","-0.7181513854364296","-0.039952505030821005"
"0.0019124257882530786","-0.018522949064052698","-0.00437995383341244","-0.001284715950733853","-0.00525199282384421","-0.0009323619700849629","0.6559376018831854","-0.716423945740629","-0.040183753329463105"
"0.0016581877218182143","-0.018911322754529107","-0.005088836839075855","0.0005582186878432278","-0.0077397308649661605","0.0007339014611602662","0.6591559581356676","-0.7173939695698094","-0.04259485691383433"
"0.0017433120744191793","-0.018717135909290902","-0.0045618382888129175","-0.000492710982089157","-0.003217761402657369","7.170039558839179e-05","0.6495511761946687","-0.7170617696283091","-0.04118016143978857"
"0.001742177083051169","-0.018522949064052698","-0.00491161608766","0.00031392756252220176","-0.004349730361136394","-0.0014055598148581985","0.6562896095983012","-0.7168491616657491","-0.04308966025872291"
"0.0016593227131862245","-0.018913911912465615","-0.004564170140805237","0.0004914218887028821","-0.003897379335646194","-0.0013992137213131347","0.6634303375334942","-0.7184437213849499","-0.04252344199807721"
"0.0017433120744191793","-0.018717135909290902","-0.0045618382888129175","-0.0002190531566989775","-0.004235711709238779","-0.00116082133770726","0.659558252667227","-0.7176597295230095","-0.03945090026538411"
"0.0019124257882530786","-0.01852035990611619","-0.004904620531683059","0.0005425896305182885","-0.004126829032651868","-0.007975973970884467","0.659306818585002","-0.7191214092656101","-0.042139161737098446"
"0.0019124257882530786","-0.01852035990611619","-0.004904620531683059","-0.0007492465281169829","-0.005253148418289119","-0.0014193556703909458","0.6522163774662543","-0.7188955133053901","-0.04314917268852052"
"0.0019112907968850683","-0.018131986215639787","-0.005254398330530137","-5.589376207747716e-05","-0.004801696188478291","0.0005357929757100138","0.6594576790343368","-0.7194934732000904","-0.04123967386958617"
"0.0019112907968850683","-0.01852035990611619","-0.005254398330530137","0.0006752872955765312","-0.00344733949904581","-0.0021226683854504076","0.6535741215102703","-0.7182178254247297","-0.04895418512649186"
"0.0019112907968850683","-0.018711957593417886","-0.005604176129377219","0.0010391357320265518","-0.003674478007161667","-0.003343877517209206","0.6534735478773802","-0.7176863055183296","-0.04940477923781653"
"0.0019101558055170582","-0.01774361252516338","-0.0050795094311066","-0.0009260440173468696","-0.003218275000188439","-0.0011439903939573079","0.6554850205351807","-0.716317641759349","-0.04355215685600711"
"0.001996415149486033","-0.01852035990611619","-0.004899956827698432","-2.9613054218980464e-05","-0.005029091495359684","-0.00287674984887038","0.6568930513956415","-0.716663129698509","-0.043977245640275664"
"0.0017433120744191793","-0.018522949064052698","-0.0045618382888129175","5.3410091061270454e-05","-0.0059317391562158026","-0.0024030001698758345","0.6525683851813701","-0.7173009535861893","-0.04516409352595346"
"0.0016581877218182143","-0.018522949064052698","-0.0049139479396523135","0.00024484115625782025","-0.006836441207196203","-0.004364494909521857","0.651210641137354","-0.7172876655885292","-0.045186198142735425"
"0.001742177083051169","-0.018522949064052698","-0.00491161608766","0.0006025176082865272","-0.0027686203617363586","-0.004059882419358796","0.6547307182885055","-0.7176464415253495","-0.04490563954511818"
"0.001742177083051169","-0.0181345753735763","-0.0045618382888129175","-0.0005573177222412948","-0.003444514712624923","-0.003095276200509098","0.6590050976863321","-0.7181912494294097","-0.04438703122831053"
"0.0017410420916831588","-0.01774361252516338","-0.005086504987083541","0.0006636401636846976","-0.004237124102449223","-0.0009152551092243562","0.6519649433840292","-0.7184968733755899","-0.04494644806840797"
"0.0019124257882530786","-0.018522949064052698","-0.004554842732835977","-0.0003881854394701361","-0.003897507735028962","-0.0021292903961061265","0.6563901832311914","-0.7185633133638899","-0.043307305716268424"
"0.0019124257882530786","-0.01852035990611619","-0.004904620531683059","0.0008572612878694554","-0.0036738360102478293","-0.002856331982681914","0.6485454398657685","-0.7193340172281703","-0.03939648890099775"
"0.0016581877218182143","-0.01852553822198921","-0.004564170140805237","0.0009332165155059439","-0.004124132645613748","-0.0014016969753090293","0.6543787105733908","-0.71874934533113","-0.03684085512997519"
"0.0015719283778492393","-0.017940388528338094","-0.0049186116436369404","0.0006634410674130422","-0.004349216763605324","-0.0009171865289989409","0.6550324391871759","-0.7180583694528097","-0.04265777005390608"
"0.0019135607796210887","-0.019297107287068998","-0.004902288679690746","0.0007046539956456848","-0.003109392323601528","-0.005771120339640781","0.6529706797129294","-0.7177261695113095","-0.04202013687750325"
"0.0017433120744191793","-0.018717135909290902","-0.0045618382888129175","-4.265386001240118e-05","-0.00321878859771951","-0.0009020110879129188","0.6513112147702448","-0.71882907331709","-0.039353980022570886"
"0.0019112907968850683","-0.018131986215639787","-0.004904620531683059","-0.0009171842332582097","-0.0038967373387323563","-0.0023720974534824804","0.6530209665293748","-0.7202774650620307","-0.03708230555943975"
"0.0017410420916831588","-0.018131986215639787","-0.005086504987083541","0.0003327421601936255","-0.004350500757432999","-0.003839424647945492","0.6538758424089407","-0.7177793215019498","-0.04043710624488717"
"0.001742177083051169","-0.0181345753735763","-0.00491161608766","-0.0007265495531482811","-0.005026908705852635","-0.004336627281345707","0.6568427645791967","-0.7176597295230095","-0.03904621574276045"
"0.0019124257882530786","-0.01852035990611619","-0.0050795094311066","0.0005054581758545791","-0.005029733492273522","-0.003363743549176363","0.6594576790343368","-0.7169554656470292","-0.03990149437670877"
"0.0017433120744191793","-0.018717135909290902","-0.00491161608766","-0.0011023437658976185","-0.004686521942135769","-0.0014113540741819525","0.658099934990322","-0.7162910657640288","-0.0392536590694835"
"0.0015730633692172496","-0.018522949064052698","-0.0049186116436369404","-0.0009143968854550359","-0.004912248057041182","-0.0028748184290957953","0.6584016558889924","-0.7177128815136495","-0.04887766914532354"
"0.0019112907968850683","-0.018131986215639787","-0.004904620531683059","0.00032746610899476064","-0.005255331207796168","-0.003366226803172257","0.6543787105733908","-0.7180716574504697","-0.047821748605200456"
"0.0019124257882530786","-0.01852035990611619","-0.0050795094311066","0.0010518778934124897","-0.0034487518922562536","-0.0050440787530649945","0.6544792842062804","-0.7192808652375302","-0.04199123084017299"
"0.001742177083051169","-0.0181345753735763","-0.00491161608766","-0.00040769687409235333","-0.005704343849334411","3.555525409259362e-05","0.6542278501240554","-0.7175268495464094","-0.043120266651190266"
"0.0019112907968850683","-0.018131986215639787","-0.005254398330530137","-0.0007641787484911287","-0.0050265235077043315","0.0005322060532714994","0.6556861678009603","-0.7194137452141303","-0.043540254370047604"
"0.0019124257882530786","-0.0189087335965926","-0.005254398330530137","0.0010264931187764417","-0.00435204155002621","-0.0018936571836068012","0.6481934321506533","-0.7206096650035309","-0.03693437466251428"
"0.0016570527304502042","-0.018137164531512807","-0.004564170140805237","0.0006762827769348077","-0.005932509552512408","-0.0028888902017391973","0.6534232610609348","-0.7176730175206696","-0.03842898682800251"
"0.0019112907968850683","-0.017937799370401585","-0.004904620531683059","-0.0007350111446936304","-0.004123362249317143","-0.0031054851336033314","0.6511100675044644","-0.7191214092656101","-0.04114955504732124"
"0.0017433120744191793","-0.018522949064052698","-0.0045618382888129175","0.00012687661530206805","-0.0029926772846657936","7.583915224821602e-05","0.658753663604107","-0.7191479852609302","-0.04102712947745189"
"0.0015707933864812292","-0.01774620168309989","-0.0049186116436369404","0.0003143257550655123","-0.003444514712624923","-0.0013901084566615212","0.6536746951431599","-0.7182444014200497","-0.04223098091450045"
"0.001996415149486033","-0.018711957593417886","-0.005599512425392592","0.0002018363615802802","-0.00570652663884146","0.0014946049352359571","0.6494003157453333","-0.7198921131298905","-0.038037905146475454"
"0.0015719283778492393","-0.017940388528338094","-0.005093500543060482","0.00021985457416508287","-0.002540069460410058","-0.00040315295184877335","0.6572450591107561","-0.7202907530596908","-0.037015991709093844"
"0.0015707933864812292","-0.01774620168309989","-0.0052683894424840234","-0.0011985072651071178","-0.004346006779036134","-0.00043019282869295814","0.6527192456307044","-0.71851016137325","-0.038884682004738394"
"0.0017387721089471182","-0.01735264967675047","-0.005788392436770015","-0.00023328854012232987","-0.0050265235077043315","0.0005338615559354292","0.6610165703441326","-0.7188556493124101","-0.03964814146128471"
"0.0017410420916831588","-0.017940388528338094","-0.00491161608766","-0.00109467855943889","-0.0054779757375151596","-0.002638909299485815","0.6514620752195791","-0.7209020009520509","-0.03889828484583499"
"0.0019124257882530786","-0.018906144438656087","-0.005604176129377219","-0.001286906009722061","-0.005478232536280694","-0.0004503347777707693","0.651210641137354","-0.7167827216774493","-0.03913803492016244"
"0.0017410420916831588","-0.018131986215639787","-0.0052613938865070774","0.0011199688183185948","-0.005707810632669136","-0.002885855113521993","0.6528701060800405","-0.71905496927731","-0.03798519413722613"
"0.0019112907968850683","-0.01852035990611619","-0.005254398330530137","-0.001910674628818047","-0.006607119909573298","-0.0002229790785910924","0.6489980212137733","-0.7172610895932093","-0.04029257605823584"
"0.001995280158118023","-0.01774361252516338","-0.0050771775791142865","-0.0007140064880339986","-0.005480928923318813","-0.006047313367406384","0.6557364546174057","-0.7178989134808896","-0.042423121044989826"
"0.0017455820571551995","-0.01949388329024371","-0.004559506436820609","-0.0007377984924968043","-0.005591609191264471","-0.002887234699075268","0.6566416173134164","-0.7203173290550107","-0.04195382302715735"
"0.0019112907968850683","-0.0181345753735763","-0.004554842732835977","-0.0019814533533914986","-0.005251222427547605","-0.002392515319670947","0.6518140829346949","-0.7186297533521899","-0.040692159515448294"
"0.0015730633692172496","-0.01852553822198921","-0.004393944945366322","0.00023000848401950205","-0.006044088616137439","-0.0024043797554291093","0.6574462063765364","-0.7195067611977504","-0.040598639982909204"
"0.0020826744934550083","-0.018522949064052698","-0.0043729582774355","0.001205082474451226","-0.003449008691021789","-0.002122116551229098","0.6557867414338511","-0.7179122014785497","-0.04197422728880225"
"0.0016593227131862245","-0.018913911912465615","-0.004389281241381695","0.0013739161128149017","-0.002768491962353591","-0.0008951131601465451","0.6502049048084538","-0.7180583694528097","-0.04228709263402391"
"0.0016570527304502042","-0.017940388528338094","-0.004916279791644627","0.00031512214015213337","-0.0016366514032573334","-0.0011199856053303275","0.6507077729729039","-0.7190283932819902","-0.03846639464101814"
"0.0019135607796210887","-0.019297107287068998","-0.004902288679690746","0.0006549794758676929","-0.0032205861890782558","0.0005573145103410997","0.6506574861564586","-0.7201977370760707","-0.03936078144311918"
"0.001569658395113219","-0.01735782799262349","-0.0052683894424840234","0.0004883358964922252","-0.0028796858278303194","-0.0008940094917039253","0.650556912523569","-0.7191612732585903","-0.03981307590958091"
"0.0015707933864812292","-0.01774620168309989","-0.0049186116436369404","-0.0010887056712892318","-0.005138102571329363","-0.0033634676320657077","0.6556358809845162","-0.7183772813966499","-0.037718238380705496"
"0.002081539502086998","-0.01852035990611619","-0.004897624975706118","-3.0508987441429225e-05","-0.005707682233286368","-0.002886958781964613","0.6528701060800405","-0.7199054011275506","-0.038206240305045804"
"0.0019124257882530786","-0.0189087335965926","-0.005254398330530137","-0.0022446586245197762","-0.004798871402057404","-0.0023878247287898125","0.6547307182885055","-0.7191745612562503","-0.03974676205923502"
"0.0019112907968850683","-0.01852035990611619","-0.005254398330530137","0.00038699589421968875","-0.004802466584774897","0.0005349652243780491","0.6548815787378409","-0.7214069448631312","-0.0453392301050721"
"0.0017410420916831588","-0.018131986215639787","-0.0052613938865070774","-0.0003038681684241259","-0.0031055403421185006","-0.0013865215342230073","0.6492494552959983","-0.7215531128373913","-0.045876542328387546"
"0.0015719283778492393","-0.0181345753735763","-0.005093500543060482","-0.0005610010032669174","-0.00525199282384421","-0.0028792331028662742","0.651210641137354","-0.7198256731415905","-0.0404728137027657"
"0.001742177083051169","-0.0181345753735763","-0.00491161608766","-0.0011816836301522466","-0.004573658884683062","-0.0026256652781743777","0.653926129225385","-0.7191346972632702","-0.04088089893566351"
"0.0019124257882530786","-0.0189087335965926","-0.0050795094311066","-0.0010934839818089585","-0.004122720252403305","-0.002377339878584925","0.6481934321506533","-0.7197592331532905","-0.04231429831621709"
"0.0019124257882530786","-0.0189087335965926","-0.005254398330530137","-4.1857474925780055e-05","-0.003445927105835367","-0.0009064257616833979","0.6542278501240554","-0.7182045374270698","-0.03774204335262454"
"0.001742177083051169","-0.0181345753735763","-0.00491161608766","-8.645503977656235e-05","-0.004573402085917526","0.004435053583485735","0.6540267028582751","-0.7184968733755899","-0.03953591802223782"
"0.0019124257882530786","-0.0183287622188145","-0.004729731632259518","0.0002784884261675622","-0.0020887456299819984","0.0034980390757015324","0.6498528970933392","-0.7188157853194299","-0.03982667875067752"
"0.0015730633692172496","-0.018522949064052698","-0.0049186116436369404","0.0012150372880339899","-0.003672680415802921","-0.0033427738487665864","0.6526186719978154","-0.71882907331709","-0.039780769161976516"
"0.002249518224552887","-0.01774361252516338","-0.004540851620882095","0.0012071729853036063","-0.005710507019707255","-0.002885027362190028","0.6568427645791967","-0.7195333371930706","-0.039712754956493526"
"0.0021587189151118713","-0.015408192066431941","-0.005772069472823814","-0.0011106062611713125","-0.002088874029364766","-0.0001487573758249115","0.6502551916248991","-0.7190815452726301","-0.03645827522413349"
"0.0017433120744191793","-0.019297107287068998","-0.00561117168535416","0.0005768341892429963","-0.007515031945122887","-0.001454948977665434","0.6554850205351807","-0.7198655371345705","-0.03973315921813842"
"0.0019078858227810378","-0.01735006051881396","-0.0059562857802166105","0.0006597577863874197","-0.0048032369810715025","-0.00043653892223802194","0.6561387491489663","-0.7186696173451701","-0.03950191091949635"
"0.0019101558055170582","-0.018129397057703278","-0.005604176129377219","-0.0007282418714573509","-0.004123747447465445","-0.003836665476838943","0.6491488816631082","-0.7178058974972696","-0.0391686413126298"
"0.001742177083051169","-0.0181345753735763","-0.00491161608766","0.00021218936770635465","-0.0025405830579411284","0.0005700066974312274","0.6534735478773802","-0.7188689373100702","-0.038648332640685075"
"0.0019101558055170582","-0.01774361252516338","-0.004904620531683059","-0.0007252554273825218","-0.003784644677576255","-0.004317313083599862","0.6531718269787098","-0.7187892093241101","-0.04089280142162304"
"0.0017433120744191793","-0.018717135909290902","-0.00491161608766","-0.0017933073766772606","-0.003442717121266177","-0.003340566511881347","0.6546301446556159","-0.7194934732000904","-0.040642849216473126"
"0.0015741983605852597","-0.018911322754529107","-0.0049186116436369404","0.000923560346330663","-0.0034452851089215287","6.811347314987748e-05","0.6539764160418303","-0.7181380974387698","-0.039986512133562475"
"0.0014005446812792996","-0.01735782799262349","-0.005275384998460964","0.00030457003775440365","-0.005025753111407726","-0.00043929809334457146","0.6514117884031337","-0.7202243130713906","-0.03889998520097206"
"0.0019124257882530786","-0.018714546751354394","-0.004904620531683059","-0.0003738505079109561","-0.005028449498445845","-0.004094647975301319","0.6561387491489663","-0.7190151052843301","-0.03950021056435925"
"0.0015719283778492393","-0.0181345753735763","-0.0049186116436369404","-0.00021397620177176789","-0.004574044082831364","-0.0018950367691600756","0.6526186719978154","-0.7179786414668496","-0.03955972299415686"
"0.0019112907968850683","-0.018131986215639787","-0.005254398330530137","0.00014379979839276665","-0.002090158023192442","-0.0018580638763323128","0.6452767967968421","-0.71853673736857","-0.03721153254985738"
"0.0019124257882530786","-0.0189087335965926","-0.005254398330530137","0.0005090419087443741","-0.005595075974599196","-0.003860118431244613","0.6534735478773802","-0.7193738812211503","-0.038646632285548"
"0.0019101558055170582","-0.017937799370401585","-0.0050795094311066","-5.798427292985759e-05","-0.006044859012434045","0.0005175824464067872","0.6403989756016752","-0.7181779614317498","-0.037065302008069"
"0.002081539502086998","-0.018709368435481374","-0.005597180573400278","-0.00022323417840373834","-0.006837211603492809","-0.0009571945100439083","0.6569433382120863","-0.7200515691018106","-0.03926046049003179"
"0.0019124257882530786","-0.01852035990611619","-0.004904620531683059","0.00032368327983331034","-0.004125031441293122","-0.002619595101739968","0.650003757542674","-0.7193605932234903","-0.03892549052802817"
"0.0016547827477141636","-0.01735782799262349","-0.004916279791644627","-0.0005620960327610214","-0.0052522496226097455","-0.0028775776002023445","0.650003757542674","-0.7190151052843301","-0.03870274400507146"
"0.0019112907968850683","-0.017937799370401585","-0.004904620531683059","-0.00022154186009466846","-0.004349601961753626","-0.0009174624461095958","0.6519649433840292","-0.7190018172866701","-0.03956822476984224"
"0.0019124257882530786","-0.01852035990611619","-0.004904620531683059","-0.00018162305762778523","-0.0034469543008975073","-0.005774707262079295","0.6448242154488374","-0.7177527455066296","-0.04035718955344467"
"0.0019135607796210887","-0.018911322754529107","-0.004554842732835977","0.000337022730034214","-0.004125416639441424","-0.00432448692847689","0.6526689588142597","-0.7190018172866701","-0.03955632228388271"
"0.0019135607796210887","-0.0189087335965926","-0.004904620531683059","-3.707916440605339e-05","-0.005254432412116795","-0.0019071771220288934","0.6486963003151034","-0.71870948133815","-0.043429731286137765"
"0.001914695770989119","-0.019299696445005506","-0.004202733081996586","-0.0007367034630027003","-0.004349216763605324","-0.0028679205013294215","0.6576473536423172","-0.71870948133815","-0.04418298861186165"
"0.0014868040252482746","-0.017940388528338094","-0.00509816424704511","-0.0009037452349214786","-0.005251350826930372","-0.004339662369562913","0.6521660906498095","-0.7180317934574897","-0.043377020276888466"
"0.0019124257882530786","-0.018522949064052698","-0.004554842732835977","0.00031950225812854945","-0.004124774642527586","-0.002132601401433986","0.6548815787378409","-0.7176995935159894","-0.043557257921418326"
"0.0020838094848230184","-0.019297107287068998","-0.004895293123713805","0.0019088877947526339","-0.003450164285466697","-0.0013936953791000356","0.6538758424089407","-0.7188024973217702","-0.040882599290800584"
"0.0017433120744191793","-0.018717135909290902","-0.0045618382888129175","0.0004975938731241956","-0.003446055505218134","-0.0021226683854504076","0.6546804314720601","-0.7184968733755899","-0.051176549290647876"
"0.001742177083051169","-0.01852035990611619","-0.005086504987083541","0.0002344881501317458","-0.0034457987064525995","-0.0023660272770480717","0.6584016558889924","-0.7190682572749701","-0.049545908714193704"
"0.002080404510718988","-0.018129397057703278","-0.005247402774553196","0.0006561740534976246","-0.004577896064314392","5.2386197842545436e-05","0.6572450591107561","-0.7181115214434497","-0.04150322891583269"
"0.001996415149486033","-0.01852035990611619","-0.005074845727121968","0.00023737504607074732","-0.004125416639441424","-0.002863229910448287","0.6572953459272014","-0.7182842654130297","-0.04127708168260181"
"0.0019112907968850683","-0.01851777074817968","-0.005429287229953678","0.0009481487358800898","-0.005143495345405601","-0.0033653990518402923","0.6502049048084538","-0.716716281689149","-0.04139440618705994"
"0.0019101558055170582","-0.017937799370401585","-0.0050795094311066","-4.713352612464493e-05","-0.0036716532207407802","-0.000420535729820035","0.6529706797129294","-0.7204236330362909","-0.043581062893337366"
"0.0019124257882530786","-0.01852035990611619","-0.004904620531683059","-0.0005003761885478853","-0.003444514712624923","0.001042376790872498","0.6498026102768938","-0.7199984171111705","-0.046320335019163925"
"0.0016581877218182143","-0.018522949064052698","-0.0049139479396523135","-0.0011089139428622425","-0.0037815630923898327","-0.0004232949009265844","0.6508586334222394","-0.7178856254832295","-0.042501337381295246"
"0.0017433120744191793","-0.018911322754529107","-0.00491161608766","0.0002276193287596387","-0.0029933192815796315","-0.0013859697000016971","0.650959207055129","-0.7202641770643707","-0.042940029006660385"
"0.001742177083051169","-0.018522949064052698","-0.00491161608766","0.00015086771603652904","-0.003897892933177264","-0.003103001879607437","0.6592062449521118","-0.7182444014200497","-0.042815903081653964"
"0.0019135607796210887","-0.0189087335965926","-0.004904620531683059","-0.0005858880372238272","-0.004348703166074253","0.0005410354008124579","0.6499031839097834","-0.7193340172281703","-0.045424247861925816"
"0.0019124257882530786","-0.018714546751354394","-0.005254398330530137","0.0006421377663459276","-0.004124261044996516","0.0020056034241689204","0.6546804314720601","-0.7184835853779299","-0.04557557946912542"
"0.0017433120744191793","-0.018911322754529107","-0.00491161608766","0.00046583801779517884","-0.0034448999107732263","0.0020158123572631536","0.6482940057835435","-0.7201180090901106","-0.04186370420489242"
"0.0019135607796210887","-0.018911322754529107","-0.004554842732835977","-0.0011645613507898927","-0.004801182590947221","-0.004821965478987762","0.6523672379155904","-0.7194403212094505","-0.0422479844658712"
"0.0019135607796210887","-0.0189087335965926","-0.004904620531683059","0.0008534784587080051","-0.003899818923918778","-0.0023734770390357552","0.649350028928889","-0.7175135615487495","-0.043198482987495665"
"0.0016581877218182143","-0.01852553822198921","-0.004564170140805237","-0.0007520338759201567","-0.004121307859192862","-0.0009152551092243562","0.6503054784413439","-0.7182576894177098","-0.04721472182126495"
"0.0016570527304502042","-0.018131986215639787","-0.0052660575904917096","0.000857360836005283","-0.005028834696594149","-0.003119280989136079","0.6518643697511397","-0.7179520654715296","-0.045845935935920214"
"0.0017433120744191793","-0.018911322754529107","-0.00491161608766","-0.001274462492743606","-0.005477590539366857","-0.002154122936065072","0.6514620752195791","-0.71870948133815","-0.04360996893066763"
"0.0019124257882530786","-0.01852035990611619","-0.004904620531683059","-7.214723657761689e-06","-0.0011866115666569498","-0.00501041686556509","0.6599102603823428","-0.7204502090316107","-0.04369328633238427"
"0.0019124257882530786","-0.0183287622188145","-0.004554842732835977","0.0003476743805677713","-0.0042387932944252015","-0.005785743946505494","0.6513615015866895","-0.7195333371930706","-0.04472880261086245"
"0.0019124257882530786","-0.018714546751354394","-0.004904620531683059","0.0006905181603581601","-0.0018654591033491687","-0.0038035554235603497","0.6500540443591188","-0.7197060811626506","-0.04430031311631975"
"0.0019135607796210887","-0.019297107287068998","-0.004902288679690746","-2.4038358612632685e-05","-0.0043507575561985345","-0.003355190118746059","0.6524678115484793","-0.7179387774738697","-0.04650907443937916"
"0.0019124257882530786","-0.01852035990611619","-0.004904620531683059","0.0003187058730419284","-0.0050289630959769165","-0.002146397256966733","0.6576473536423172","-0.7193871692188104","-0.04462848165777509"
"0.0015719283778492393","-0.01852035990611619","-0.00544327834190756","-4.7432170532127843e-05","-0.004687163939049606","-0.00043709075645933187","0.6506574861564586","-0.7179919294645097","-0.04429691240604561"
"0.0015730633692172496","-0.018522949064052698","-0.0052683894424840234","-0.0003659862051805726","-0.0036706260256786395","-0.004804030866795189","0.650556912523569","-0.7183108414083499","-0.045192999563283716"
"0.001996415149486033","-0.01851777074817968","-0.00524973462654551","0.0005142184118074114","-0.004352298348791746","-0.004327522016694094","0.6503557652577893","-0.7177660335042897","-0.046543081542120654"
