"AccX","AccY","AccZ","GyroX","GyroY","GyroZ","MagX","MagY","MagZ"
"0.0010532373226673792","-0.016912492827543875","0.005424551053470435","-0.0016744469024990597","-0.005339304404126168","-0.0034007164420041254","0.06979446940005565","0.964241998296924","0.35121249389796416"
"0.001138361675268344","-0.016912492827543875","0.004904781244383674","-0.0005940509843616935","-0.004643893347056931","-0.0033990609393401957","0.07437056969655156","0.9653050381097243","0.35078740511369566"
"0.0010532373226673792","-0.016526708295003984","0.005077105106615671","-0.0011324073029175654","-0.002105052351593482","-0.002359957100613662","0.07175565524141081","0.9661687579576248","0.3514165365144131"
"0.0012234860278693088","-0.016718305982305677","0.0043857109908946095","-0.000244836123878336","-0.005083661233035907","-0.0014124577426245723","0.07311339928542569","0.9642552862945838","0.351025454832886"
"0.0008829886174654495","-0.016521529979130964","0.004374284916132272","-0.0009770126628906208","-0.005522658722718279","0.0010856957772453248","0.06929160123560496","0.9656372380512246","0.35231772473706247"
"0.0010532373226673792","-0.016909903669607367","0.0047275604929678215","0.0005678748570185088","-0.0041635512561233965","-0.0019016587798157943","0.06692812086268926","0.9659827259903847","0.35070238735684195"
"0.001138361675268344","-0.015358998065638263","0.003340808113138766","-0.0006139606115272214","-0.0055262539054357716","0.0005804915476361154","0.07130307389340602","0.9649462621729042","0.3521306856719843"
"0.001138361675268344","-0.016135745446591073","0.004384078694499989","-0.0006136619671197385","-0.005991573268585497","7.52873180269061e-05","0.07175565524141081","0.9642287102992639","0.35395006566865367"
"0.0012234860278693088","-0.016526708295003984","0.004734556048944762","-9.153199470377192e-05","-0.006881766189313161","0.0030529847762151016","0.06748127584358418","0.9631789584841236","0.3525727780076236"
"0.0012234860278693088","-0.016526708295003984","0.004734556048944762","0.00046772943237590397","-0.005531261481363707","-0.000425502237811824","0.07472257741166677","0.964241998296924","0.3521816963260965"
"0.0012234860278693088","-0.016526708295003984","0.004734556048944762","-6.833727905593204e-05","-0.0036901427318593123","-0.00014572228760770703","0.07502429831033718","0.9635510224186036","0.3503963234321686"
"0.0010543723140353893","-0.015749960914051172","0.004904781244383674","0.00101096360958733","-0.004612307098896104","-0.0009135996065604265","0.07854437546148861","0.9633915664466837","0.3511104725897397"
"0.001224621019237319","-0.015755139229924192","0.005433178905841996","-7.620158178631552e-05","-0.006219867371146263","6.72857218179126e-05","0.07009619029872495","0.9626740145730434","0.3490020322197678"
"0.0012234860278693088","-0.01691508198548039","0.005082001995799529","-7.28169451681758e-05","-0.005994269655623616","-0.0004282614089183735","0.07361626744987583","0.962155782664303","0.34973318492870953"
"0.0010543723140353893","-0.015752550071987684","0.005427349275861212","9.133793081160092e-05","-0.0061948294915065835","0.0025640596561345348","0.07261053112097557","0.9633915664466837","0.3485599398841285"
"0.0010532373226673792","-0.016526708295003984","0.005077105106615671","-0.0016920669225405514","-0.006806909349159659","-0.00042715774047575374","0.07135336070985025","0.962155782664303","0.34857694343549916"
"0.0010543723140353893","-0.01613833460452758","0.0050780378474125955","0.0007173961570316227","-0.005491714471471291","0.0035681220218078897","0.07708605778458302","0.9648000941986441","0.3478968013806695"
"0.0010543723140353893","-0.015749960914051172","0.004904781244383674","-0.0007055448964886493","-0.003445927105835367","0.0016104901217110354","0.07723691823391796","0.9640958303226639","0.34837290081905026"
"0.0010532373226673792","-0.016135745446591073","0.004381047286909982","0.0006415404775309617","-0.003437067548424404","0.0018510898422021494","0.0735156938169868","0.9646140622314039","0.34990322044241706"
"0.001138361675268344","-0.01613833460452758","0.005080836069803372","-0.0006262050322340209","-0.006893578932527779","0.002058855426525325","0.07648261598724221","0.9627005905683632","0.34770976231559136"
"0.0009692479614344245","-0.01613833460452758","0.005075006439822585","-0.0007934459004244544","-0.004606400727288795","0.0005973224913860672","0.0779409336641478","0.9625278465987832","0.3481858617539721"
"0.0010543723140353893","-0.014975802691034873","0.004558268038325837","-0.0005949469175841424","-0.005103819936130418","-0.0034056829499959146","0.07442085651299636","0.9628733345379432","0.3474547090450302"
"0.0012234860278693088","-0.016140923762464083","0.004909678133567534","-0.0009690488120244099","-0.0050778832608113665","-0.00040922312828318215","0.07623118190501714","0.9646140622314039","0.3499202239937878"
"0.0010532373226673792","-0.01613833460452758","0.004729659159760905","-8.068124789855927e-05","-0.0052842210689188745","0.001580139239538991","0.07597974782279208","0.964627350229064","0.34879798960331876"
"0.0012234860278693088","-0.016140923762464083","0.004909678133567534","0.0008174420335383999","-0.0043552515345954","0.0020845157178162356","0.07582888737345772","0.9623551026292029","0.34770976231559136"
"0.001224621019237319","-0.015752550071987684","0.005084800218190306","0.0010057871065242928","-0.005759041986393401","-0.0004326760826888527","0.07703577096813768","0.963936374350744","0.3474547090450302"
"0.0010532373226673792","-0.015944147759289377","0.004730125530159369","-0.0006052999237102167","-0.005315165320165862","-0.0014116299912926072","0.0704984848302855","0.9635643104162637","0.34808384044574764"
"0.0010532373226673792","-0.016912492827543875","0.005424551053470435","3.4396397118191406e-05","-0.005103434737982115","-0.003658423023355847","0.08528280886512052","0.962195646657283","0.3480498333430062"
"0.0010543723140353893","-0.015749960914051172","0.004730591900557829","-0.0011483350046499875","-0.004385296990163015","-0.00014682595605032683","0.07789064684770244","0.9637503423835038","0.34815185465123066"
"0.0010532373226673792","-0.01633252144976578","0.004903382133188287","-0.0003312439057767266","-0.004860631505168613","-0.0021555025216183463","0.06712926812846898","0.9644413182618239","0.34507421185312626"
"0.0010532373226673792","-0.016526708295003984","0.005077105106615671","-0.0003467734149658383","-0.005755446803675909","0.000577180542308256","0.07577860055701237","0.9630460785075233","0.3476927587642205"
"0.001224621019237319","-0.015364176381511281","0.004737354271335539","-0.00042820379007284704","-0.004384783392631945","-0.0004034288689594283","0.07944953815749817","0.9644678942571441","0.346349478205932"
"0.0010543723140353893","-0.014587429000558472","0.004385011435296916","0.00010786292135898897","-0.005762508769728126","-0.0004252263207011691","0.080052979954839","0.9630593665051834","0.3488660038088018"
"0.0010543723140353893","-0.015361587223574771","0.0043831459537030625","-0.0009887593429182822","-0.006425049584808863","0.003066780631747849","0.07411913561432651","0.964109118320324","0.3462984675518197"
"0.001138361675268344","-0.015749960914051172","0.004385011435296916","0.0001037814477900558","-0.007604012717380823","-0.00045199028043469905","0.08156158444818937","0.9616508387532227","0.3491550641821044"
"0.0010532373226673792","-0.016526708295003984","0.005425483794267362","-9.143244656794429e-05","-0.00595844622783146","0.0033175892853331964","0.07748835231614302","0.9618235827228027","0.34910405352799223"
"0.0011394966666363542","-0.016140923762464083","0.005603637286480141","0.00039048007897365613","-0.003824448486234206","-0.0023961022421094607","0.08080728220151419","0.9627005905683632","0.34912105707936286"
"0.0010543723140353893","-0.015364176381511281","0.0050799033290064455","-0.0018712535670303019","-0.00599991922846539","-0.00016531240246420834","0.08322104939087467","0.962368390626863","0.3477947800724451"
"0.0007989992562324949","-0.01632993229182927","0.005068710439443341","-0.0025756561761466753","-0.003949894683198136","-0.0021243238881143377","0.08125986354951896","0.9623418146315431","0.3511614832438519"
"0.0010532373226673792","-0.016526708295003984","0.005077105106615671","-0.0015038213976904865","-0.004163936454271699","-0.0008895948179334461","0.07396827516499158","0.9654910700769644","0.34896802511702624"
"0.0013937347330712183","-0.01613833460452758","0.004218750388244936","0.0007362107547030464","-0.004139925769694162","0.0005887690609557639","0.0721579497729708","0.9635377344209435","0.35262378866173577"
"0.0008829886174654495","-0.01671571682436917","0.0047221972333854985","-0.0016841030716743407","-0.005549879391865006","-0.0014055598148581985","0.0792986777081638","0.9626873025707031","0.3513655258603009"
"0.0010532373226673792","-0.016135745446591073","0.004381047286909982","2.4142939127944593e-05","-0.00473428651252531","-0.0011580621666007103","0.07809179411348328","0.9654777820793043","0.3526407922131065"
"0.0010532373226673792","-0.015749960914051172","0.004381980027706906","-0.001134696910041601","-0.003370685067533562","-0.002378443547027544","0.07587917418990195","0.9642552862945838","0.35128050810344724"
"0.0008829886174654495","-0.016521529979130964","0.004374284916132272","-0.000965066886591304","-0.007164501630167382","-0.0021822664813518763","0.07723691823391796","0.9616375507555629","0.3509064299732908"
"0.0010543723140353893","-0.015364176381511281","0.004731524641354753","0.0011734261672580368","-0.004808501355764974","0.002576200009003352","0.0806564217521787","0.9623418146315431","0.3513825294116716"
"0.0010543723140353893","-0.015364176381511281","0.004731524641354753","0.0010111627058589853","-0.004612307098896104","-0.0009135996065604265","0.08151129763174403","0.9627005905683632","0.34912105707936286"
"0.0008829886174654495","-0.017298277360083773","0.005069176809841802","-0.0004391540850138873","-0.0036695988306164992","0.0021071409208899407","0.07376712789921186","0.9637237663881836","0.3508214122164371"
"0.0012234860278693088","-0.016140923762464083","0.00508386747739338","-8.068124789855927e-05","-0.006210237417438694","0.0010658297452781685","0.07763921276547739","0.9647868062009842","0.35037931988079785"
"0.0013937347330712183","-0.015944147759289377","0.004045027414817553","-0.00041556117682273685","-0.003483291326220734","-0.002388652480121777","0.07789064684770244","0.9618102947251429","0.35092343352466154"
"0.0008841236088334597","-0.014973213533098365","0.004378015879319975","0.0015483244467849253","-0.0055297206887704965","-0.0009287750476464486","0.0792986777081638","0.964454606259484","0.3486109505382406"
"0.0007138749036315502","-0.015361587223574771","0.004893821540019799","9.409815025454018e-06","-0.0065557601564662634","0.0008158488430247858","0.0817124448975243","0.9649728381682244","0.3506513767027297"
"0.0015628484469051378","-0.01691767114341689","0.004745282568109407","-0.0018517421324080845","-0.005806678157400176","-0.003910887179605124","0.07326425973476174","0.9644413182618239","0.34876398250057733"
"0.0010532373226673792","-0.01613833460452758","0.004729659159760905","-0.0014861018295131666","-0.003966715002340689","-0.004381049936161155","0.07693519733524755","0.9633915664466837","0.34995423109652923"
"0.0008829886174654495","-0.016904725353734346","0.003850784143857807","0.0006741922660824272","-0.005811172135797041","-0.005917356408287903","0.07618089508857236","0.9647868062009842","0.3499202239937878"
"0.0010532373226673792","-0.01613315628865456","0.003335911223954906","-0.0002557864188193763","-0.005521888326421673","0.0008290928643362233","0.07266081793742092","0.9644413182618239","0.348985028668397"
"0.0010543723140353893","-0.014973213533098365","0.0036870881339973755","-0.0004256155385413284","-0.0057743215129427445","-0.0014199075046122556","0.07683462370235797","0.9616375507555629","0.34910405352799223"
"0.0011394966666363542","-0.01459001815849498","0.004387809657687693","0.0012040869930929497","-0.005330444846715204","-0.0039213720298100115","0.07442085651299636","0.9618235827228027","0.34725066642858127"
"0.0008841236088334597","-0.01633252144976578","0.005420120534685038","0.0004632497662636602","-0.005986052095126491","7.087264425642693e-05","0.08221531306197442","0.9634314304396636","0.34640048886004415"
"0.0008841236088334597","-0.016135745446591073","0.005071975032232579","0.0014476812814631821","-0.005741579670337011","0.0010658297452781685","0.08221531306197442","0.9632719744677434","0.34345887447290585"
"0.0010543723140353893","-0.01633252144976578","0.005425950164665822","0.0001071660844081955","-0.005647719721533906","-0.0004227430667052746","0.0779409336641478","0.9637902063764838","0.34226862587695384"
"0.0007989992562324949","-0.015364176381511281","0.0054194209790873445","0.0004600642259171757","-0.00574851323700646","0.0008235745221231243","0.0806564217521787","0.9636174624069035","0.3425406826988857"
"0.001224621019237319","-0.0153693546973843","0.005434111646638922","-0.0014384182724517275","-0.004579693655673138","0.0038434872982415274","0.07965068542327845","0.9641356943156438","0.34408800587362326"
"0.0008001342476005251","-0.014204233625955088","0.005422219201478121","-2.8346056813455802e-06","-0.004799256600205708","0.0040840870187326414","0.08769657605448102","0.9645077582501241","0.34417302363047697"
"0.0012268910019733394","-0.012078017128493594","0.004919705097134485","9.482211556556829e-05","-0.0027334389308580403","0.0036084059199635115","0.0981059470586004","0.9610395908608625","0.3421155939146172"
"0.00088525860020149","-0.013429039739764184","0.005078737403010289","-0.0007967309889067665","-0.002750772847531664","0.0021212126935333435","0.0874954287887013","0.9622355106502629","0.34264270400711017"
"0.0011406316580043643","-0.012655399348335181","0.004392706546871553","0.000802211168756771","-0.003168584439057384","0.0058444381847112085","0.0912669400220778","0.9603087509895621","0.34430905204144296"
"0.0010532373226673792","-0.01730086651802028","0.0054236183126735085","-0.00042053858361411876","-0.003360541516294923","-0.0016337432653698403","0.09252411043320312","0.960295462991902","0.34704662381213236"
"0.0008818536260974393","-0.019237556654529284","0.006458261041663171","-0.0016801211462412352","-0.004174080005510338","-0.001883448250512568","0.0953904589705695","0.960468206961482","0.3479648155861525"
"0.0010498323485633486","-0.021943226698181568","0.005412192237911174","-0.003111026050627718","-0.005578512454222178","-0.003641592079605895","0.0896074750793925","0.9614780947836427","0.3521816963260965"
"0.00071273991226354","-0.018069846425163565","0.0054098603859188575","-0.0013355850481417766","-0.005759041986393401","0.000588217226734454","0.09443500945811403","0.9618634467157827","0.3499712346479"
"0.0008841236088334597","-0.016135745446591073","0.004723596344580888","-0.0007898621675346595","-0.005305920564606596","-0.000410050879615147","0.0874954287887013","0.9618501587181228","0.34876398250057733"
"0.001138361675268344","-0.01633252144976578","0.004731991011753219","9.880404099867384e-05","-0.006439173516913297","0.001062242822839654","0.08865202556693703","0.9632586864700836","0.34828788306219655"
"0.0007138749036315502","-0.015747371756114664","0.004718699455397028","-0.0005762318680485462","-0.0062961366045102074","-0.007910857532769901","0.09182009500297271","0.9623949666221832","0.3471996557744691"
"0.0013948697244392284","-0.014978391848971383","0.004395737954461557","0.0003818193911566515","-0.005539350642478065","-0.001176272695903937","0.08533309568156587","0.9623949666221832","0.3451082189558678"
"0.001138361675268344","-0.016912492827543875","0.00507897058820952","0.0002912305875535","-0.00553909384371253","-0.0011718580221334576","0.08347248347309974","0.9615046707789628","0.34555031129150704"
"0.0013948697244392284","-0.014595196474368","0.005093661255761097","0.00011433355018778553","-0.006933639539951265","-0.0024421803995888372","0.076130608272127","0.9628866225356033","0.3461284320381123"
"0.001224621019237319","-0.01459260731643149","0.0050875984405810825","-0.00024951488626223504","-0.004614233089637618","-0.00040811945984056236","0.08221531306197442","0.9622222226526028","0.34303378568863724"
"0.0008841236088334597","-0.015752550071987684","0.0057698983335321185","-0.0002389627838645053","-0.0033640082996296483","-0.0021328773185446404","0.07914781725882832","0.9632586864700836","0.34456410531200404"
"0.0013948697244392284","-0.01536676553944779","0.004743183901316323","-5.3703703089269114e-05","-0.004181783968476394","-0.003399612773561506","0.08467936706778026","0.9625677105917632","0.3453122615723166"
"0.0008841236088334597","-0.016135745446591073","0.0048977856884067335","-0.0015013326942947952","-0.005208593832468767","-0.0019011069455944847","0.08347248347309974","0.9622089346549431","0.34577135745932674"
"0.0008001342476005251","-0.015364176381511281","0.005767799666739038","-0.0006064945013401485","-0.004736854500180662","-0.0011511642388343367","0.08407592527044055","0.9625544225941031","0.3455333077401363"
"0.0013937347330712183","-0.015752550071987684","0.0043938724728677095","-0.0020393903684431847","-0.005097528366374807","-0.0019016587798157943","0.08387477800466028","0.9625411345964433","0.3477947800724451"
"0.0013937347330712183","-0.016140923762464083","0.004741318419722473","-0.0020453632565928426","-0.00439300095312907","-0.00039404768719716003","0.08095814265084911","0.9635908864115835","0.34684258119568345"
"0.0012234860278693088","-0.015752550071987684","0.004562232186712768","-0.001317865479964457","-0.0048682070687519","-0.00240051691587994","0.07789064684770244","0.9614648067859826","0.35070238735684195"
"0.0013086103804702534","-0.01691508198548039","0.005085033403389536","-0.0002548904855969275","-0.00390983407577465","0.0010994916327780719","0.07200708932363586","0.9642552862945838","0.348985028668397"
"0.001138361675268344","-0.016526708295003984","0.0050799033290064455","-0.0014243819853000305","-0.00553061948444987","0.0005868376411811792","0.08362334392243521","0.9619830386947229","0.35255577445625286"
"0.0013925997417032082","-0.01691508198548039","0.004739452938128622","-0.0011554029222937499","-0.003909448877626347","0.0016038681110553162","0.07965068542327845","0.9640958303226639","0.3501922808157197"
"0.0010532373226673792","-0.016135745446591073","0.004381047286909982","-0.0011483350046499875","-0.005078011660194134","-0.00040618804006597775","0.08528280886512052","0.964109118320324","0.3513995329630423"
"0.0012234860278693088","-0.015946736917225885","0.004735955160140152","-0.000785581597694071","-0.00508404643118421","-0.0011594417521539851","0.08186330534685977","0.962368390626863","0.3477777765210742"
"0.0010532373226673792","-0.01633252144976578","0.0050775714770141325","-7.440971534141802e-05","-0.005065942118213981","0.0003354771533745218","0.08070670856862404","0.9616508387532227","0.34845791857590397"
"0.0013948697244392284","-0.01536676553944779","0.004743183901316323","0.001013750957390504","-0.004618085071120646","-0.0014165964992843962","0.08412621208688535","0.9627138785660233","0.34893401801428475"
"0.0013937347330712183","-0.016140923762464083","0.004915507763548319","-0.0008093736021568767","-0.006425434782957165","0.0030623659579773702","0.0856851033966805","0.9616774147485428","0.34670655278471757"
"0.001224621019237319","-0.015752550071987684","0.004910610874364459","0.0008327724464558562","-0.007159750853004981","-0.0024479746589125906","0.08246674714419948","0.9627138785660233","0.34755673035325463"
"0.0010543723140353893","-0.015752550071987684","0.00507897058820952","0.0011701410787757246","-0.005034099071287619","0.003072298973960948","0.08206445261263949","0.9609731508725624","0.3453292651236875"
"0.0011394966666363542","-0.01536676553944779","0.005082934736596456","-0.0004350726114449541","-0.0050656853194484455","0.0005862858069598692","0.08880288601627197","0.9609997268678826","0.3453972793291703"
"0.001224621019237319","-0.014978391848971383","0.004738287012132466","-0.001166651861642273","-0.005505966802958492","0.0030791969017273215","0.0838244911882155","0.9620361906853631","0.3444110733496673"
"0.001224621019237319","-0.015752550071987684","0.005084800218190306","-0.0007948395743260415","-0.004720034181038109","0.0008423368856476607","0.08840059148471197","0.9618634467157827","0.3467235563360883"
"0.0008841236088334597","-0.016135745446591073","0.005071975032232579","-0.0013403633586615033","-0.004824679677993689","0.002096380153574398","0.08467936706778026","0.9616641267508828","0.3480498333430062"
"0.0010543723140353893","-0.015749960914051172","0.004904781244383674","0.0003669867189183333","-0.004817104114410401","0.002082860215152306","0.08638911882691147","0.9613452148070426","0.34356089578113025"
"0.0010543723140353893","-0.01536676553944779","0.005428282016658136","-0.0024741170776024835","-0.006632799786126814","-0.005910182563410875","0.08432735935266562","0.962022902687703","0.34668954923334677"
"0.0012234860278693088","-0.016335110607702288","0.0050834011069949185","0.00010975433593971414","-0.004727609744621396","-0.00041143046516842175","0.07980154587261393","0.9616774147485428","0.34415602007910623"
"0.0013937347330712183","-0.016529297452940492","0.004914575022751392","0.0010251989930106823","-0.00487193065085216","-0.003915577770486258","0.08060613493573447","0.9625411345964433","0.3482198688567136"
"0.0012234860278693088","-0.015752550071987684","0.004736421530538613","0.0003856022203181018","-0.005315807317079701","-0.001919317474897711","0.08965776189583785","0.9620494786830232","0.3465195137196394"
"0.0011394966666363542","-0.015752550071987684","0.004733390122948606","-0.0006241145213816406","-0.006665670028115317","0.001812461446710457","0.08186330534685977","0.9609598628749023","0.3473526877368057"
"0.0011394966666363542","-0.015172578694209586","0.0050834011069949185","0.00046981994322828444","-0.004380417813617847","-0.00040839537695121735","0.08417649890333014","0.9615046707789628","0.3457883610106975"
"0.0010543723140353893","-0.014978391848971383","0.005080836069803372","-0.0003530449475229796","-0.005280882684966917","0.002080652878267066","0.0868919869913616","0.9609864388702225","0.34583937166480966"
"0.0008841236088334597","-0.016526708295003984","0.005768032851938268","-0.0009730307374575152","-0.0036842363602520036","0.000862754751836127","0.08875259919982662","0.9606276629334023","0.3481178475484891"
"0.0010543723140353893","-0.015752550071987684","0.00507897058820952","-0.0003257687583062065","-0.005565415717179885","-0.0036631136142369807","0.08709313425714131","0.9604549189638223","0.34675756343882974"
"0.0010543723140353893","-0.015752550071987684","0.005427349275861212","-0.0005974356209798333","-0.005794608615420023","-0.0034150641317581827","0.09091493230696315","0.9625677105917632","0.34628146400044896"
"0.0010543723140353893","-0.01536676553944779","0.005428282016658136","-6.027388005389329e-05","-0.0034762293601685165","-0.001888138841393702","0.0864394056433557","0.9634447184373237","0.3444110733496673"
"0.0010543723140353893","-0.01459001815849498","0.0045592007791227605","-0.002398460494373478","-0.0057934530209751145","-0.002405207506761074","0.08301990212509495","0.9630726545028435","0.34709763446624453"
"0.001138361675268344","-0.01613833460452758","0.005080836069803372","-0.0017773796749448385","-0.004851258350226579","-0.00039956602941025897","0.08804858376959677","0.9630726545028435","0.3485089292300162"
"0.0013086103804702534","-0.016140923762464083","0.004738287012132466","-6.634631633937926e-05","-0.004387993377201134","-0.0009055980103514331","0.08291932849220426","0.9634314304396636","0.3466385385792346"
"0.0008841236088334597","-0.014973213533098365","0.004029637191668282","-0.00026116201815406875","-0.00481928690391745","0.002088378557365405","0.0905629245918474","0.9625411345964433","0.35080440866506635"
"0.001138361675268344","-0.015944147759289377","0.004907113096375988","-0.0002584742184867225","-0.005982970509940069","0.0008216431023485397","0.08573539021312586","0.9632321104747634","0.35029430212394413"
"0.0008841236088334597","-0.015747371756114664","0.004724529085377812","0.0008249081437254728","-0.0052935942238609085","7.804648913345556e-05","0.08970804871228208","0.962195646657283","0.34990322044241706"
"0.0008841236088334597","-0.015361587223574771","0.004377083138523046","-0.0007085313405634784","-0.004363469095092526","0.0018486065882062552","0.08136043718240965","0.9618368707204628","0.3482368724080844"
"0.0010543723140353893","-0.015752550071987684","0.00507897058820952","0.0010971722952140654","-0.005067611310189959","-0.0004213634811519998","0.08669083972558077","0.9641224063179837","0.34869596829509436"
"0.0010532373226673792","-0.016524119137067472","0.004902915762789823","-0.0006060963087968379","-0.005082634037973766","-0.0011583380837113654","0.08241646032775414","0.9616641267508828","0.34689359184979573"
"0.001224621019237319","-0.014398420471193286","0.004913875467153701","0.00011144665424878399","-0.0061179182612288","-0.0014306682719277986","0.08040498766995363","0.9622089346549431","0.3439179703599158"
"0.0011394966666363542","-0.015755139229924192","0.005430380683451222","-1.0427392364480722e-06","-0.005728097735146414","0.0033192447879971266","0.08638911882691147","0.9620361906853631","0.3469275989525371"
"0.0007138749036315502","-0.015944147759289377","0.005763369147953638","-0.0006132637745764279","-0.0050700508984625435","9.322193021947772e-05","0.08830001785182183","0.9624082546198433","0.34332284606193986"
"0.001224621019237319","-0.014980981006907892","0.005086665699784157","-0.0010396284403262057","-0.003960680231350613","-0.0038871583080887983","0.08880288601627197","0.9615179587766226","0.34561832549699"
"0.00088525860020149","-0.014978391848971383","0.005597574471300124","-0.0009587953540341629","-0.004405455693257525","-0.0023927912367816013","0.09041206414251303","0.9638167823718037","0.34422403428458914"
