"AccX","AccY","AccZ","GyroX","GyroY","GyroZ","MagX","MagY","MagZ"
"0.001224621019237319","-0.01459260731643149","0.00473921975292939","-0.0017585650772734144","-0.004194110309222082","-0.0038857787225355235","0.08483022751711575","0.9623816786245231","0.3460094071785172"
"0.0007150098949995603","-0.014587429000558472","0.0047214976777878075","-0.0036486855322327965","-0.005467190189362682","-0.0038855028054248686","0.08900403328205167","0.9615179587766226","0.3465195137196394"
"0.0012234860278693088","-0.016718305982305677","0.004734089678546299","-0.0018692626043137492","-0.0038067293714122794","0.0006136016009147091","0.08970804871228208","0.9628999105332634","0.34988621689104626"
"0.0010486973571953385","-0.01653965408468653","0.004415325511196995","-0.0016853971974400998","-0.0050926491898296376","-0.002392515319670947","0.08513194841578615","0.9634978704279635","0.34947813165814845"
"0.001218946062397248","-0.016542243242623038","0.004421155141177779","-0.0006342684312360598","-0.005266245155331412","0.0030863707466043506","0.07914781725882832","0.9603220389872222","0.3490360393225092"
"0.0012200810537652581","-0.015770674177543253","0.0051200111832742454","0.0006272055459717817","-0.005500188830733952","0.0020759622873859317","0.08830001785182183","0.9599765510480619","0.35094043707603234"
"0.0008795836433614189","-0.014991337638653934","0.004761605532055605","0.0011631727092677902","-0.006877400610299063","0.0020558203383081205","0.08286904167576004","0.9629663505215633","0.3481008439971184"
"0.0010498323485633486","-0.015765495861670233","0.004417190992790848","0.0008166456484517788","-0.005747614441327087","7.639098646952589e-05","0.08256732077708963","0.9613983667976826","0.34633247465456113"
"0.0008795836433614189","-0.016153869552146635","0.005107185997316518","0.00134574399037568","-0.0054955664529543185","0.0020748586189433126","0.09428414900877856","0.962301950638563","0.3482368724080844"
"0.0010532373226673792","-0.01633252144976578","0.0050775714770141325","0.0006485088470388964","-0.004839574006394729","-0.00041474147049628114","0.08327133620732002","0.9616907027462026","0.34487016923667735"
"0.0010543723140353893","-0.014975802691034873","0.004732457382151682","0.0006546808314602101","-0.0064694757712464475","-0.0024355583889331183","0.07502429831033718","0.962195646657283","0.3438669597058036"
"0.0012234860278693088","-0.016529297452940492","0.005779692111899836","-0.00023129757740577707","-0.004882331000856334","-0.0044042269734561705","0.08850116511760155","0.9596044871135819","0.3436119064352424"
"0.00088525860020149","-0.014978391848971383","0.005423385127474279","0.0010996609986097562","-0.0069225971930332525","-0.0019438740977460013","0.08452850661844534","0.9609864388702225","0.34422403428458914"
"0.0011406316580043643","-0.014401009629129796","0.005433645276240459","0.0010142486980696422","-0.003464416616953899","-0.0011481291506171324","0.08799829695315142","0.9606675269263822","0.3415544767193826"
"0.0011394966666363542","-0.016140923762464083","0.005603637286480141","-6.893456787089786e-05","-0.005078268458959668","-0.0009133236894497715","0.0909652191234074","0.9595911991159218","0.3459073858702926"
"0.001224621019237319","-0.014980981006907892","0.005086665699784157","-0.0016787274723396482","-0.005215270600372681","-0.0024032760869864894","0.08714342107358666","0.960295462991902","0.34381594905169144"
"0.0007093349381594893","-0.015768085019606744","0.005799046483436041","-0.0010707870068402568","-0.005295520214602422","9.95680237645415e-05","0.08794801013670607","0.9605346469497822","0.34640048886004415"
"0.001218946062397248","-0.01596486102278145","0.0051195448128757825","-0.0016855962937117554","-0.004863327892206733","-0.002391411651228327","0.08261760759353497","0.9621026306736629","0.34675756343882974"
"0.001133821709796283","-0.016156458710083144","0.004767668347235619","-0.0007879707529539344","-0.004856265926154515","-0.002146673174077388","0.08025412722061871","0.9636839023952036","0.34556731484287784"
"0.0010498323485633486","-0.015185524483892132","0.0044185901039862354","-0.0007832919905700354","-0.003477256555230657","-0.002376236210142305","0.08513194841578615","0.9627936065519833","0.34925708549032886"
"0.0008795836433614189","-0.015765495861670233","0.004759740050461752","-0.0023988586869167884","-0.004644663743353536","-0.0033780912389304195","0.08015355358772858","0.9636573263998838","0.34828788306219655"
"0.0013891947675991776","-0.015770674177543253","0.004254894094125801","-0.0018647829382015058","-0.005094575180571152","-0.002395550407888151","0.08347248347309974","0.9633251264583835","0.3478797978292988"
"0.001138361675268344","-0.01632993229182927","0.004383612324101526","0.00010109364812270953","-0.006673887588612441","0.0005597977643369944","0.08317076257442932","0.9616508387532227","0.35053235184313447"
"0.0010543723140353893","-0.015361587223574771","0.0043831459537030625","0.00048017294935435886","-0.004398778925353611","-0.0024043797554291093","0.085835963846016","0.9625544225941031","0.34759073745599606"
"0.0008841236088334597","-0.015749960914051172","0.005073140958228735","0.0017168594407411181","-0.0037745011263376157","0.002090309977139989","0.08427707253622027","0.9623816786245231","0.34645149951415644"
"0.0010543723140353893","-0.015364176381511281","0.004731524641354753","0.0019064986394927701","-0.0043707878599102785","-0.0001675197393494479","0.0864394056433557","0.9627271665636832","0.3471486451203568"
"0.0010543723140353893","-0.015749960914051172","0.004730591900557829","0.0006440291809266526","-0.00482994405268716","0.0005832507187426649","0.08970804871228208","0.9627271665636832","0.34988621689104626"
"0.0008841236088334597","-0.015364176381511281","0.005422452386677352","0.0003631043416210554","-0.006197782677310238","0.0020646496858490794","0.09146808728785752","0.9617039907438627","0.34541428288054116"
"0.0012234860278693088","-0.015752550071987684","0.004736421530538613","-0.00043188707109846966","-0.005995938847599595","-0.00042632998914378893","0.08573539021312586","0.9623949666221832","0.34396898101402806"
"0.0010498323485633486","-0.015768085019606744","0.0051141815532934586","0.0015335913226824345","-0.006204716243979688","6.480246782201808e-05","0.07768949958192273","0.9626208625824033","0.3457883610106975"
"0.0010498323485633486","-0.015379711329130335","0.004766502421239462","-0.0006995720083389908","-0.0033500127669079814","-0.0011268835330967013","0.08533309568156587","0.9619564626994027","0.34384995615443287"
"0.0009647079959623838","-0.015382300487066845","0.005112082886500378","-0.0009782072405205527","-0.00553061948444987","-0.00040673987428728757","0.08493080115000533","0.962288662640903","0.3451932367127215"
"0.0012200810537652581","-0.015384889645003353","0.00512094392407117","-0.0009676551381228228","-0.004164706850568305","-0.0018873110900617374","0.08814915740248691","0.9619298867040829","0.3475057196991424"
"0.0010498323485633486","-0.016156458710083144","0.005113248812496535","-0.000795237766869352","-0.006230010922384902","-0.0014168724163950513","0.08950690144650181","0.962288662640903","0.3477437694183328"
"0.0010498323485633486","-0.015962271864844942","0.004765103310044075","0.0006636401636846976","-0.0034894544965935782","-0.004382153604603775","0.08588625066246135","0.9629929265168832","0.34655352082238083"
"0.0010498323485633486","-0.014993926796590442","0.004767668347235619","-0.0013443452840946088","-0.005981044519198555","0.000835990792102597","0.08125986354951896","0.9608668468912825","0.34655352082238083"
"0.0010498323485633486","-0.016156458710083144","0.005113248812496535","8.912074346315822e-06","-0.005061191341051581","9.184234466620296e-05","0.08125986354951896","0.9629663505215633","0.34696160605527865"
"0.0009635730045943736","-0.016542243242623038","0.005109284664109601","-0.0006174447962811888","-0.005993884457475314","-0.0009144273578923914","0.08115928991662882","0.9636573263998838","0.3496481671718559"
"0.0010498323485633486","-0.015379711329130335","0.004418123733587772","-0.0004341766782225054","-0.005305021768927223","-0.0011569584981580908","0.07909753044238353","0.9632985504630636","0.3494101174526656"
"0.0010498323485633486","-0.015379711329130335","0.004766502421239462","-0.000615155189157153","-0.0062289837273227615","-0.001418252001948326","0.08483022751711575","0.9624746946081432","0.34473414082571147"
"0.0008795836433614189","-0.016156458710083144","0.005629987213993286","-0.0013435488990079876","-0.0067934274139690625","7.804648913345556e-05","0.08719370789003089","0.961770430732163","0.3461454355894831"
"0.0011349567011642932","-0.015768085019606744","0.004768601088032546","0.00028286854414397833","-0.004374254643245003","-0.0004003937807422238","0.07864494909437764","0.9622620866455831","0.34716564867172756"
"0.0008795836433614189","-0.016156458710083144","0.0054555646849682084","-0.0004424391734961994","-0.005753264014168861","8.68758366744139e-05","0.08623825837757598","0.9613983667976826","0.34794781203478164"
"0.0008795836433614189","-0.015765495861670233","0.004759740050461752","-0.001334290922376017","-0.005306434162137666","-0.0008989759996957143","0.09041206414251303","0.9612521988234225","0.3455163041887656"
"0.0013891947675991776","-0.01596486102278145","0.004951185099030721","-0.0013357841444134318","-0.00391779483750624","0.00011363979640794381","0.09041206414251303","0.9633517024537034","0.3459073858702926"
"0.0008795836433614189","-0.015768085019606744","0.0051081187381134445","-0.0006072908864267696","-0.004741990475491365","-0.0023933430710029115","0.08608739792824106","0.9628201825473032","0.3445130946578918"
"0.0008795836433614189","-0.015762906703733717","0.0042371720189842135","-0.00024742437540985456","-0.004392358956215232","-0.002141154831864289","0.08125986354951896","0.9650791421495043","0.3473526877368057"
"0.0010486973571953385","-0.016542243242623038","0.0051123160716996085","-0.001875832781278373","-0.0051898475225846995","-0.00039597910697174464","0.08754571560514665","0.9622753746432432","0.34794781203478164"
"0.001133821709796283","-0.016156458710083144","0.005116047034887312","-0.0015160658183972862","-0.005073389282414501","-0.0003979105267463293","0.08548395613090023","0.9633251264583835","0.3478968013806695"
"0.0013891947675991776","-0.016544832400559546","0.004775596644009486","-8.764961740649401e-05","-0.005048351402774822","0.0015864853330840548","0.07180594205785615","0.9638300703694638","0.34682557764431265"
"0.0008795836433614189","-0.015765495861670233","0.004759740050461752","0.0006464183361865161","-0.005651828501782469","-0.001915730552459197","0.07748835231614302","0.962248798647923","0.3478287871751865"
"0.0008795836433614189","-0.014991337638653934","0.004239037500578067","-0.0006281959949505738","-0.005739653679595496","0.00158510574753078","0.08025412722061871","0.9621026306736629","0.3451592296099801"
"0.0010486973571953385","-0.016156458710083144","0.004939059468670687","-0.0006284946393580567","-0.006665798427498084","0.0010713480874912674","0.08598682429535093","0.9621026306736629","0.3467915705415712"
"0.001133821709796283","-0.016156458710083144","0.004941857691061467","0.000997425063114771","-0.005056697362654715","8.439258267851937e-05","0.08352277028954508","0.9620893426760028","0.3478968013806695"
"0.0008795836433614189","-0.015379711329130335","0.004760672791258678","0.00010855975830978245","-0.005078910455873507","-0.001904142033811689","0.07779007321481288","0.9634845824303034","0.34645149951415644"
"0.0010498323485633486","-0.014996515954526952","0.005116047034887312","0.0006466174324581712","-0.006462799003342532","-0.0024286604611667446","0.08493080115000533","0.9624614066104831","0.3451932367127215"
"0.0007955942821284643","-0.015382300487066845","0.00562882128799713","-0.0016902750560956541","-0.0060105763772351","-0.0021535711018437617","0.08432735935266562","0.9624614066104831","0.34541428288054116"
"0.0012200810537652581","-0.015384889645003353","0.00512094392407117","-0.0013377751071299846","-0.00460781312049924","0.0001053622830882954","0.09046235095895726","0.962501270603463","0.34299977858589575"
"0.0007944592907604541","-0.015765495861670233","0.005105320515722668","-0.0011538101521205077","-0.00530784655534811","-0.001148956901949097","0.09131722683852259","0.9640426783320237","0.347267669979952"
"0.0010498323485633486","-0.01518811364182864","0.004767201976837156","-0.0004365658334823687","-0.004607556321733704","-0.00039818644385698423","0.08191359216330402","0.9634978704279635","0.34694460250390796"
"0.0010498323485633486","-0.015770674177543253","0.005462560240945152","-0.0014992421834424151","-0.004413544854371884","-0.0036322108978436266","0.08704284744069653","0.9633251264583835","0.3490360393225092"
"0.0012200810537652581","-0.015382300487066845","0.004772565236419479","-0.0017790719932539078","-0.005549365794333937","-0.0019016587798157943","0.08261760759353497","0.9640293903343636","0.34716564867172756"
"0.0010498323485633486","-0.014993926796590442","0.004419056474384696","-0.0015010340498873124","-0.003020411551343591","-0.002364647691494797","0.08573539021312586","0.9645476222431041","0.349444124555407"
"0.0008784486519934088","-0.016537064926750018","0.004409495881216211","-0.0007912558414362465","-0.004270379542586027","-0.001137092466190934","0.08618797156113064","0.9622620866455831","0.35087242287054937"
"0.001218946062397248","-0.016544832400559546","0.004943956357854547","-0.00025718009272096326","-0.005762893967876429","-0.000916358777666976","0.08055584811928912","0.9615578227696027","0.3494611281067777"
"0.0010498323485633486","-0.015765495861670233","0.004417190992790848","-0.00023229305876405347","-0.00569432869747854","-0.005905216055419086","0.07648261598724221","0.9634712944326436","0.3498352062369341"
"0.0010498323485633486","-0.015768085019606744","0.004765569680442538","-0.00043706357416150687","-0.004837776415035982","-0.0004012215320741887","0.08387477800466028","0.9627670305566635","0.3526407922131065"
"0.0010498323485633486","-0.015768085019606744","0.004765569680442538","-6.020146027830024e-06","-0.0064183728169049485","0.002567922495683704","0.08327133620732002","0.9631258064934832","0.3501412701616074"
"0.0010498323485633486","-0.016156458710083144","0.005113248812496535","-0.00026803083952617584","-0.004585600027280447","0.0018475029197636353","0.08241646032775414","0.9652385981214244","0.3496311636204852"
"0.001218946062397248","-0.015770674177543253","0.004771632495622556","0.0003754483104636826","-0.005304251372630618","-0.0014135614110671918","0.08955718826294715","0.9626341505800631","0.3479648155861525"
"0.0010498323485633486","-0.014993926796590442","0.004767668347235619","0.000449810767926929","-0.00666066245218738","0.0010636224083929288","0.08648969245980105","0.9613983667976826","0.3490870499766215"
"0.0008795836433614189","-0.016156458710083144","0.0054555646849682084","0.0008191343518474697","-0.004136202187593902","0.00010149944353912615","0.0867411265420261","0.9635111584256236","0.34767575521284977"
"0.0010509673399313588","-0.014608142264050545","0.005116979775684235","0.00011224303933540512","-0.004393899748808444","-0.002395550407888151","0.08538338249801122","0.9621026306736629","0.34725066642858127"
"0.0010498323485633486","-0.016353234713257857","0.006157918505053148","-0.001066307340728013","-0.0038031341886947873","-0.00013192643207495964","0.08286904167576004","0.9613983667976826","0.3476927587642205"
"0.0010498323485633486","-0.014996515954526952","0.005464425722539002","-0.0008044957435013224","-0.004825578473673062","0.001098663881446107","0.08462908025133603","0.9619298867040829","0.3467915705415712"
"0.0011349567011642932","-0.014993926796590442","0.004770466569626398","-0.0009887593429182822","-0.005047067408947145","0.0020938968995785037","0.08664055290913653","0.9617571427345029","0.346808574092942"
"0.0008795836433614189","-0.015768085019606744","0.0051081187381134445","-0.0015220387065469443","-0.005986052095126491","0.0003401677442556559","0.08447821980199999","0.9628068945496434","0.34631547110319044"
"0.0012200810537652581","-0.015379711329130335","0.004249997204941941","-0.0017067004985072151","-0.0038950681467563772","0.002613724736052425","0.07839351501215258","0.9615445347719428","0.34876398250057733"
"0.0013891947675991776","-0.016544832400559546","0.004775596644009486","-0.0013235397237066323","-0.00602226072106695","-0.003410373540877049","0.08085756901795953","0.9622620866455831","0.3481008439971184"
"0.0008784486519934088","-0.01634546723944833","0.004758340939266365","-0.0002590715073016884","-0.005526767502966841","-0.00041032679672580195","0.08739485515581172","0.9645476222431041","0.3508214122164371"
"0.001133821709796283","-0.016153869552146635","0.004245100315758084","8.735600537849536e-05","-0.006192646701999535","0.0020704439451728327","0.0877971496873717","0.9619298867040829","0.3490870499766215"
"0.0011349567011642932","-0.015768085019606744","0.004768601088032546","-0.00027768700870145686","-0.005259696786810266","0.0035838492971152214","0.08301990212509495","0.9622620866455831","0.34879798960331876"
"0.0010486973571953385","-0.016542243242623038","0.004937893542674531","0.0008177406779458827","-0.0050572109601857845","8.659991956375896e-05","0.08865202556693703","0.9605213589521224","0.349580152966373"
"0.0010498323485633486","-0.015962271864844942","0.005113715182894998","8.00889914630777e-05","-0.005255459607178936","0.00383189877959402","0.08724399470647623","0.9603486149825421","0.34912105707936286"
"0.0008795836433614189","-0.014993926796590442","0.005110217404906528","0.001530803974879261","-0.005274077517680236","0.0010779700981469861","0.08432735935266562","0.9594716071369819","0.3479818191375232"
"0.0010498323485633486","-0.014996515954526952","0.005116047034887312","0.0019722999572748395","-0.006528924685467839","0.0020533370843122266","0.08633883201046612","0.962115918671323","0.3454482899832826"
"0.0008807186347294291","-0.014996515954526952","0.005632785436384063","-0.0007924504190661781","-0.004733516116228704","-0.0013939712962106907","0.0899091959780629","0.9612389108257624","0.34617944269222456"
"0.0007955942821284643","-0.014219768573574142","0.005457430166562061","0.001108620330834244","-0.0038272732726550925","-0.0038888138107527285","0.08970804871228208","0.9608934228866024","0.3452782544695752"
"0.0012200810537652581","-0.015770674177543253","0.0051200111832742454","-0.0014241828890283752","-0.00577085472960802","-0.0011583380837113654","0.09518931170478978","0.9610794548538425","0.3457883610106975"
"0.0007944592907604541","-0.015379711329130335","0.0051062532565195945","0.00010358235151840051","-0.003913814456640445","-0.0003890811792053709","0.08759600242159143","0.9612256228281026","0.3479648155861525"
"0.0010498323485633486","-0.015185524483892132","0.0044185901039862354","-0.00041157925138963125","-0.004424587201289896","-0.005387043721609094","0.08327133620732002","0.9626208625824033","0.3469786096066494"
"0.0010498323485633486","-0.014993926796590442","0.004767668347235619","-0.0015154685295823201","-0.006461129811366554","-0.001166063762809704","0.0909652191234074","0.9624614066104831","0.34842391147316254"
"0.0010498323485633486","-0.014217179415637634","0.004246732612152704","-0.0007904594563496253","-0.003463004223743455","-0.0008788340506179032","0.07980154587261393","0.9620893426760028","0.34628146400044896"
"0.0008784486519934088","-0.01653965408468653","0.004757874568867901","-0.002230323692960596","-0.005315422118931397","-0.001391763959325451","0.08734456833936638","0.9634978704279635","0.3503963234321686"
"0.0013891947675991776","-0.016544832400559546","0.004775596644009486","-0.0006052999237102167","-0.004168045234520262","-0.0023903079827857074","0.08337190984021016","0.9610263028632025","0.3499712346479"
"0.001218946062397248","-0.016153869552146635","0.004073709194323015","0.00046364795880697075","-0.005298858598554379","-0.0009149791921137013","0.0864394056433557","0.9627936065519833","0.34905304287387995"
"0.0010486973571953385","-0.016151280394210127","0.004242068908168074","0.0008163470040442958","-0.005977706135246599","7.30799811416665e-05","0.08699256062425118","0.9628068945496434","0.3485939469868699"
"0.0010498323485633486","-0.014993926796590442","0.004419056474384696","-0.0009710397747409624","-0.004849589158250601","-0.0013964545502065853","0.07965068542327845","0.9615578227696027","0.34832189016493803"
"0.0010498323485633486","-0.016156458710083144","0.005113248812496535","-0.00026315298087062155","-0.006675941978736723","-0.00017910825799695573","0.07975125905616859","0.9627803185543232","0.3492060748362166"
"0.0010498323485633486","-0.016156458710083144","0.005113248812496535","0.0006407440924443405","-0.004832768839108047","-0.00040839537695121735","0.0806564217521787","0.9627936065519833","0.34718265222309824"
"0.0012200810537652581","-0.014416544576748855","0.004949086432237638","-0.0003507553403989439","-0.005756217199972514","-0.00016779565646010285","0.08191359216330402","0.9621026306736629","0.34675756343882974"
"0.0008795836433614189","-0.014993926796590442","0.005110217404906528","-0.0002697231578352457","-0.004697692688436549","0.002096931987795708","0.08301990212509495","0.9620893426760028","0.34857694343549916"
"0.0013903297589671878","-0.014613320579923568","0.005128872220845036","-0.00034428471157014735","-0.005538580246181459","-0.001414389162399157","0.0867914133584709","0.9608801348889423","0.3472846735313228"
"0.0008795836433614189","-0.015379711329130335","0.004760672791258678","-9.043696520966789e-05","-0.00504205983301921","0.002090861811361299","0.08563481658023628","0.9621026306736629","0.34837290081905026"
"0.0007093349381594893","-0.01653965408468653","0.00510042362653881","-0.0009567048431817824","-0.006150018106920696","-0.005154169680216317","0.07849408864504327","0.9631258064934832","0.3496311636204852"
"0.0008795836433614189","-0.016153869552146635","0.004758807309664828","-0.0006179425369603269","-0.0052983450010233085","-0.00040453253740204803","0.08558452976379094","0.9617438547368428","0.34793080848341096"
"0.0010498323485633486","-0.015379711329130335","0.00459254626261285","-0.000786676627188175","-0.004858320316278796","-0.0023958263249988054","0.08824973103537649","0.9603486149825421","0.3477777765210742"
"0.0010498323485633486","-0.015379711329130335","0.004418123733587772","-0.0009764153740756551","-0.005070307697228078","-0.0004012215320741887","0.08422678571977492","0.9620893426760028","0.3481348510998599"
"0.0007093349381594893","-0.015377122171193826","0.004406464473626201","-0.0013429516101930215","-0.0039012313171292216","0.0016184917179200287","0.08799829695315142","0.9631656704864635","0.3470296202607617"
"0.0010498323485633486","-0.015377122171193826","0.004069745045936082","-0.0006171461518737058","-0.005298730199171611","-0.00040673987428728757","0.08407592527044055","0.9621026306736629","0.3474547090450302"
"0.001218946062397248","-0.016153869552146635","0.004422321067173936","-0.0004408464033229572","-0.004598568364939973","0.000598702076939342","0.08578567702957064","0.960335326984882","0.3486449576409822"
"0.0010498323485633486","-0.015768085019606744","0.0051141815532934586","-0.0016899764116881716","-0.005663512845614319","-0.0019019346969264496","0.07965068542327845","0.9638300703694638","0.3489510215656555"
"0.0008795836433614189","-0.015379711329130335","0.005109051478910371","-0.0007916540339795569","-0.004618341869886181","-0.001392039876436106","0.08402563845399522","0.9612123348304425","0.3499712346479"
"0.0011349567011642932","-0.01518811364182864","0.004770000199227933","0.0001038809959258834","-0.005070307697228078","-0.0009086330985686375","0.0803547008535094","0.9618900227111029","0.3517226004390865"
"0.0010486973571953385","-0.01595968270690843","0.00459091396621823","-0.0006211280773068114","-0.003673579211482294","0.0011141152396427843","0.08739485515581172","0.9615843987649229","0.34704662381213236"
"0.0010498323485633486","-0.014993926796590442","0.004941857691061467","0.0008461118966567599","-0.005344183580671336","-0.005907975226525635","0.08105871628373924","0.9627803185543232","0.348985028668397"
"0.0008795836433614189","-0.015377122171193826","0.004412294103606988","-0.0004483125135100301","-0.006664129235522105","0.0010716240046019225","0.0867914133584709","0.9628068945496434","0.3476927587642205"
"0.0008795836433614189","-0.015185524483892132","0.004935328505482986","0.0008259036250837491","-0.005651058105485863","-0.0019171101380124715","0.08477994070067095","0.9629796385192234","0.34767575521284977"
"0.0012200810537652581","-0.015382300487066845","0.004424186548767789","-0.0008143510089482586","-0.004341769599404804","0.0035993006553118987","0.08432735935266562","0.9626208625824033","0.34857694343549916"
"0.0009647079959623838","-0.015768085019606744","0.005111150145703452","-0.0003594160282159485","-0.0057388832832988915","0.0015828984106455405","0.0779409336641478","0.9617305667391827","0.3467235563360883"
"0.0013903297589671878","-0.014613320579923568","0.005128872220845036","-0.0013448430247737467","-0.006097374359985986","0.000830472449889498","0.08075699538506884","0.9605080709544623","0.3472336628772105"
"0.0010498323485633486","-0.015768085019606744","0.004765569680442538","8.685826469935716e-05","-0.006655141278728374","0.0018152206178170063","0.08176273171396908","0.9615711107672628","0.34585637521618046"
"0.0008807186347294291","-0.014605553106114035","0.004762538272852529","-0.0007880703010897619","-0.0053181185059695164","-0.0024007928329905946","0.08236617351130991","0.9627803185543232","0.3490020322197678"
"0.0010498323485633486","-0.014605553106114035","0.004420222400380852","-0.0007819978648042759","-0.0029018989210491115","-0.0023682346139333108","0.08744514197225595","0.9617571427345029","0.347267669979952"
"0.0010498323485633486","-0.015379711329130335","0.004766502421239462","-7.371287839062455e-05","-0.00623116651682981","-0.0019212488946722958","0.09091493230696315","0.9633384144560436","0.3481858617539721"
