"AccX","AccY","AccZ","GyroX","GyroY","GyroZ","MagX","MagY","MagZ"
"0.0019022108659409668","-0.01853589485373525","-0.004897624975706118","-0.0009268404024334907","-0.006848767547941892","-0.0023878247287898125","0.6500540443591188","-0.7152014499559085","-0.05059332747863142"
"0.001903345857308977","-0.018541073169608267","-0.004198069378011958","0.001119072885096146","-0.0068523627306593836","-0.0038479780783757956","0.6618714462236985","-0.7179387774738697","-0.04636284389759077"
"0.001903345857308977","-0.01892685770214816","-0.004547847176859036","-0.0007612918525521271","-0.0068486391485591235","-0.0009276713792038288","0.65206551701692","-0.7170617696283091","-0.046072083169151096"
"0.0019022108659409668","-0.018538484011671758","-0.004547847176859036","-0.0001787361616887837","-0.005042958628698583","-0.00722989410367349","0.6582005086232116","-0.7170484816306494","-0.04732014383976355"
"0.0019022108659409668","-0.018346886324370065","-0.004198069378011958","0.0019289965181898169","-0.005271766328790418","-0.005284402556445453","0.6642349265966137","-0.7176863055183296","-0.03825895131429508"
"0.0017342321434750776","-0.01892944686008467","-0.004205064933988899","0.0006512961948420703","-0.006171589203225651","-0.00043019282869295814","0.6625754616539283","-0.7160917457991288","-0.03963453862018813"
"0.001735367134843088","-0.01931782055056108","-0.004554842732835977","-0.00022024773432890914","-0.0025539365937489573","-0.0013509282269485187","0.6577479272752063","-0.716423945740629","-0.04508757754478511"
"0.001903345857308977","-0.01892685770214816","-0.0043729582774355","0.0010091717431424325","-0.003460693034853639","-0.00038963301342668084","0.6620725934894782","-0.7180052174621697","-0.04456556851770334"
"0.0019010758745729567","-0.01795333431802064","-0.004897624975706118","-0.00032875520238103567","-0.0025539365937489573","0.0010862476114666345","0.6561890359654106","-0.7145237620752481","-0.045567077693440046"
"0.0019022108659409668","-0.01853589485373525","-0.005247402774553196","0.0010020042773628425","-0.00368654754914182","0.0005813192989680803","0.6567924777627513","-0.7170351936329893","-0.041739578279886"
"0.0018988058918369363","-0.017368184624369523","-0.005599512425392592","0.00022931164706870857","-0.005268556344221229","-0.00284888222069423","0.6567924777627513","-0.7168624496634092","-0.04174127863502307"
"0.0017319621607390372","-0.01853589485373525","-0.005254398330530137","0.0005094401012876847","-0.0034601794373225686","-0.004284754864542578","0.6519649433840292","-0.7168624496634092","-0.04114445398191002"
"0.001904480848676987","-0.01931264223468805","-0.005072513875129654","0.0010121581872172616","-0.005043343826846886","-0.0009014592536916089","0.6575970668258718","-0.7182576894177098","-0.04127538132746474"
"0.0017308271693710269","-0.01775914747278244","-0.005254398330530137","-0.00038061978114723556","-0.003797613015235781","-0.0038013480866751093","0.6575467800094266","-0.7184171453896298","-0.04172257472851526"
"0.0017319621607390372","-0.01853589485373525","-0.005254398330530137","-0.0014688800020149853","-0.004134019398086852","-0.00039956602941025897","0.6576976404587614","-0.7157462578599688","-0.03926386120030594"
"0.0018999408832049464","-0.01775914747278244","-0.005072513875129654","-0.0011162805049134876","-0.0043614147049682445","-0.0004014974491848436","0.6633800507170489","-0.7171282096166093","-0.03917034166776686"
"0.0017319621607390372","-0.017955923475957147","-0.004904620531683059","-0.0007491469799811552","-0.005943937097578724","-0.002372925204814445","0.6560884623325215","-0.7171946496049093","-0.04197422728880225"
"0.0019022108659409668","-0.01853589485373525","-0.004897624975706118","-0.0014210968968177183","-0.005040775839191534","-0.006743452237588817","0.6601616944645678","-0.7182045374270698","-0.04325119399674497"
"0.001903345857308977","-0.01892685770214816","-0.004547847176859036","-0.001100750995724376","-0.004588039615553032","-0.002354714675511219","0.6559376018831854","-0.7168225856704291","-0.04287541551145157"
"0.0017330971521070675","-0.018735260014846464","-0.004554842732835977","-0.0011927334732291146","-0.0056040639313929275","-0.0021259793907782666","0.6629777561854883","-0.7168757376610693","-0.04231429831621709"
"0.001903345857308977","-0.018924268544211652","-0.004897624975706118","-0.0018878781057135178","-0.006395517726772318","-0.0038430115703840073","0.6614188648756931","-0.71851016137325","-0.04457577064852578"
"0.0017330971521070675","-0.01815269947913186","-0.004205064933988899","-0.00020820240989376484","-0.0036844931590175388","-0.003312974800815852","0.6553341600858458","-0.7180185054598296","-0.04288051657686279"
"0.0017330971521070675","-0.018346886324370065","-0.00437995383341244","0.0004815666232559458","-0.006171589203225651","-0.0014028006437516488","0.6619720198565875","-0.7171282096166093","-0.045017862984165075"
"0.001989605201277952","-0.01931782055056108","-0.0038436278751802487","-0.0003076509975855762","-0.005267657548541856","-0.002121840634118443","0.6648383683939545","-0.7161448977897689","-0.043854820070406315"
"0.001735367134843088","-0.01931782055056108","-0.004554842732835977","0.0013695359948384855","-0.003460564635470871","-0.0011208133566622922","0.6595079658507822","-0.7178723374855697","-0.0428142027265169"
"0.0017319621607390372","-0.01815269947913186","-0.004554842732835977","0.00010746472881567843","-0.004135816989445598","0.0015495124402562918","0.655133012820066","-0.7174736975557694","-0.044006151677605916"
"0.0019022108659409668","-0.018150110321195352","-0.0043729582774355","0.00023100396537777845","-0.003460051037939801","-0.0028226700951820096","0.6517135093018042","-0.7156133778833688","-0.0429468304272087"
"0.001903345857308977","-0.018730081698973448","-0.004897624975706118","0.00021856044839932355","-0.002329366073288452","-0.0008595198528720568","0.6609662835276873","-0.7177261695113095","-0.04189431059735975"
"0.0019010758745729567","-0.018147521163258844","-0.004897624975706118","0.0001012927443943648","-0.003458381845963823","0.0025331569397411807","0.6596085394836724","-0.7182444014200497","-0.04191471485900464"
"0.0017308271693710269","-0.018147521163258844","-0.005604176129377219","0.00048136752698429053","-0.00594573468893747","-0.0011561307468261257","0.6567924777627513","-0.7183905693943099","-0.042407817848756156"
"0.0019022108659409668","-0.018344297166433557","-0.004547847176859036","-0.000731526959939663","-0.004136972583890506","-0.004294411963415502","0.6571444854778665","-0.7173009535861893","-0.04464718556428291"
"0.0016491077908741129","-0.018735260014846464","-0.004557174584828291","-0.00022711655570101623","-0.004361543104351012","-0.000889870735044101","0.6571444854778665","-0.7154273459161284","-0.04375619947245602"
"0.0016468378081380924","-0.018344297166433557","-0.0052590620345147636","-0.0011124976757520375","-0.00503833625091895","-0.0008995278339170242","0.6607148494454622","-0.716477097731269","-0.04369668704265842"
"0.0019022108659409668","-0.018538484011671758","-0.004722736076282577","-0.0005951460138557977","-0.003457611449667217","0.0010716240046019225","0.6607148494454622","-0.7178324734925895","-0.04414047973343479"
"0.0017330971521070675","-0.018541073169608267","-0.004205064933988899","-0.0016291525006974835","-0.004812224937865234","-0.002843915712702441","0.6501546179920085","-0.7165966897102092","-0.0501393326570326"
"0.001903345857308977","-0.018538484011671758","-0.0043729582774355","5.669517954358254e-05","-0.004590094005677312","-0.003327322490569909","0.6584519427054366","-0.7165966897102092","-0.050902792113578926"
"0.001903345857308977","-0.018924268544211652","-0.004897624975706118","0.0006719026589583916","-0.0057212925678597325","-0.0028585393195671533","0.6576976404587614","-0.7170883456236293","-0.045759217823929436"
"0.0017342321434750776","-0.01892685770214816","-0.004904620531683059","-0.0009338087719414254","-0.0039089352800952765","-0.0008838005586096922","0.6619217330401432","-0.7174471215604494","-0.045691203618446474"
"0.0015628484469051378","-0.01815269947913186","-0.00491161608766","0.0010553620781664568","-0.0030084704087462067","-0.006224452152446861","0.662776608919708","-0.7186696173451701","-0.04500085943279434"
"0.0017330971521070675","-0.018538484011671758","-0.004729731632259518","0.00010995343221136942","-0.002779662708654371","0.001568826638002138","0.6532221137951545","-0.7175135615487495","-0.04269177715664756"
"0.001903345857308977","-0.018924268544211652","-0.005072513875129654","-0.0002237319190828765","-0.0039111180696023255","-0.0011274353673180113","0.6554347337187353","-0.7168757376610693","-0.04131448949561745"
"0.0016479727995061025","-0.01815269947913186","-0.004559506436820609","-0.00011323348831419723","-0.0048147929255205855","-0.004303793145177769","0.6559376018831854","-0.7151350099676084","-0.0419827290644876"
"0.0016468378081380924","-0.018150110321195352","-0.004909284235667687","0.000803007553843392","-0.0052663735547141795","0.0029933866803136333","0.6488471607644389","-0.7167694336797892","-0.04410817298583037"
"0.0017330971521070675","-0.018538484011671758","-0.004904620531683059","0.0003246787611915867","-0.0032334261273550143","-0.003307180541492098","0.6605639889961278","-0.7154273459161284","-0.04437342838721396"
"0.0019010758745729567","-0.018147521163258844","-0.004897624975706118","-0.00021765948279739054","-0.007076034455440516","-0.0026339427914940255","0.6576976404587614","-0.7186031773568698","-0.04082478721614007"
"0.0019022108659409668","-0.01853589485373525","-0.004897624975706118","-6.893456787089786e-05","-0.004362570299413153","0.0015448218493751575","0.6568427645791967","-0.7178989134808896","-0.04173617756961186"
"0.0016468378081380924","-0.018150110321195352","-0.004909284235667687","-0.0003861944767535834","-0.005040133842277696","-0.003333668584114973","0.6592565317685571","-0.7173142415838494","-0.04438873158344761"
"0.0019010758745729567","-0.018147521163258844","-0.005072513875129654","-0.000735409337236941","-0.005945349490789167","-0.0040778170315513675","0.6592062449521118","-0.7183108414083499","-0.04528311838554867"
"0.0019022108659409668","-0.018538484011671758","-0.004547847176859036","-0.00022542423739194638","-0.005719366577118219","-0.0013967304673172401","0.6553844469022911","-0.7183772813966499","-0.042654369343631926"
"0.0020724595711428965","-0.018730081698973448","-0.004890629419729177","0.0008492974370032444","-0.0024447971183965103","-0.002322156456453935","0.6570941986614217","-0.7172876655885292","-0.0448716324423767"
"0.0017342321434750776","-0.01892944686008467","-0.004554842732835977","0.0006792692210096367","-0.002781973897544187","-0.0033011103650576893","0.6555855941680708","-0.716570113714889","-0.045794925281807994"
"0.001903345857308977","-0.018541073169608267","-0.003848291579164876","-0.0005666752470090929","-0.004136715785124971","-0.0028334308624975526","0.6569936250285311","-0.7172478015955494","-0.045993866832845676"
"0.0019022108659409668","-0.01853589485373525","-0.004897624975706118","-0.0008323692215330614","-0.005266758752862483","-0.0028510895575794694","0.6520152302004746","-0.7162113377780689","-0.04607548387942524"
"0.001903345857308977","-0.018732670856909956","-0.004547847176859036","-0.000805988965538737","-0.003911374868367861","-0.005995992784824564","0.6610165703441326","-0.7174072575674695","-0.04144711719630923"
"0.0019022108659409668","-0.018341708008497045","-0.004897624975706118","0.0004969965843092299","-0.002330264868967825","-0.002563032094055704","0.6578987877245422","-0.7156266658810285","-0.04329540323030889"
"0.0019873352185419317","-0.018924268544211652","-0.005242739070568569","0.0009590990308211302","-0.004027704709155293","-0.005267847529806157","0.6532221137951545","-0.7171680736095893","-0.042693477511784636"
"0.0019010758745729567","-0.018147521163258844","-0.004897624975706118","-0.0003198954182923758","-0.004588810011849636","-0.0004053602887340129","0.6552335864529556","-0.716490385728929","-0.04266287111931729"
"0.0019022108659409668","-0.01853589485373525","-0.005247402774553196","-0.0007560158013532622","-0.0033450051909800454","-0.0008746952939580789","0.659306818585002","-0.7174869855534295","-0.043938137472122954"
"0.0019022108659409668","-0.018730081698973448","-0.005247402774553196","-0.0008570571592183159","-0.0070743652634645375","4.2729098969622256e-05","0.6587033767876617","-0.7181912494294097","-0.04349774549162074"
"0.0017319621607390372","-0.01815269947913186","-0.004554842732835977","-0.0011934303101799081","-0.007073338068402397","-0.0023903079827857074","0.655133012820066","-0.7184968733755899","-0.050277061423135615"
"0.0019022108659409668","-0.01853589485373525","-0.004897624975706118","0.0003162171696462374","-0.005268556344221229","-0.0026074547488711504","0.6568427645791967","-0.716370793749989","-0.05249772523215454"
"0.0020724595711428965","-0.018538484011671758","-0.004365962721458554","-0.0017726013644251118","-0.004136972583890506","-0.006973015273653734","0.6527695324471497","-0.7170617696283091","-0.046061881038328645"
"0.001563983438273148","-0.018541073169608267","-0.0045618382888129175","-0.0012754579741018825","-0.0053770538226598375","-0.0028524691431327446","0.6597593999330073","-0.716410657742969","-0.045728611431462084"
"0.0016491077908741129","-0.01892944686008467","-0.004732063484251831","-2.682570641580658e-05","-0.004362827098178687","-0.003811832936879997","0.6583513690725471","-0.7167561456821291","-0.04574901569310698"
"0.0017342321434750776","-0.018735260014846464","-0.004205064933988899","-0.0009235553139511787","-0.003909192078860812","-0.00234367799108502","0.6573456327436468","-0.7175002735510896","-0.043298803940583046"
"0.001903345857308977","-0.018538484011671758","-0.0043729582774355","0.00013404408108165806","-0.00436372589385806","-0.0018633063014347566","0.6604131285467929","-0.7186031773568698","-0.04122947173876374"
"0.001903345857308977","-0.018732670856909956","-0.004722736076282577","0.0008461118966567599","-0.0045912496001222205","-0.0023541628412899088","0.6613685780592483","-0.7186696173451701","-0.0450229640495763"
"0.001903345857308977","-0.018538484011671758","-0.0043729582774355","0.0008334692834066497","-0.006399112909489811","-0.0011633045917031543","0.6585525163383268","-0.7174736975557694","-0.04462338059236385"
"0.001903345857308977","-0.01892685770214816","-0.0043729582774355","0.0019007248476147676","-0.004253559223443473","-0.0013752089326861542","0.6598599735658974","-0.7160917457991288","-0.04483082391908691"
"0.0016479727995061025","-0.018346886324370065","-0.004382285685404754","-0.0009103154118861027","-0.003909192078860812","-0.004047190232268668","0.6574462063765364","-0.7185500253662298","-0.04284480911898424"
"0.0016457028167700621","-0.01776173663071895","-0.004909284235667687","-0.00038589583234610044","-0.004588039615553032","-0.0033259429050166347","0.6540769896747204","-0.7167029936914892","-0.04088770035621182"
"0.0016479727995061025","-0.018538484011671758","-0.004906952383675373","0.00030447048961857603","-0.0054927416665334315","-0.0011497846532810619","0.6591056713192223","-0.7179387774738697","-0.046182606253060914"
"0.0016468378081380924","-0.018150110321195352","-0.0052590620345147636","0.0006754863918481865","-0.00560714551657935","-0.0033419460974346217","0.6603125549139027","-0.7180716574504697","-0.0416800658500884"
"0.001903345857308977","-0.018730081698973448","-0.004897624975706118","-0.0004180498802184278","-0.0036841079608692356","0.0010677611650527531","0.6574462063765364","-0.7185500253662298","-0.04284480911898424"
"0.0015617134555371277","-0.01776173663071895","-0.005086504987083541","-0.00039176917235993116","-0.0034570978521361465","-0.0023351245606547176","0.660915996711243","-0.7180583694528097","-0.04256765123164115"
"0.0019022108659409668","-0.018150110321195352","-0.004547847176859036","-0.0008475005381788624","-0.004587911216170263","-0.0008920780719293407","0.6598096867494526","-0.7181115214434497","-0.04034358671234806"
"0.0019022108659409668","-0.01853589485373525","-0.005247402774553196","-0.0022324142038129763","-0.00515209810405103","-0.004797684773250125","0.6565913304969716","-0.7180052174621697","-0.04375619947245602"
"0.002242708276344806","-0.01892685770214816","-0.0041840782660580765","-0.0014653958172610177","-0.003684621558400307","-0.0008804895532818328","0.6607651362619076","-0.7159854418178488","-0.043025046763514097"
"0.001903345857308977","-0.018924268544211652","-0.004897624975706118","0.00014648759806011293","-0.004364367890771899","-0.0033251151536846696","0.6662966860708595","-0.7190416812796503","-0.04449585395708328"
"0.0017342321434750776","-0.01892944686008467","-0.004554842732835977","-0.0004730999993311122","-0.004136330586976669","-0.0033215282312461557","0.6534735478773802","-0.7167295696868091","-0.0460516789075062"
"0.0016479727995061025","-0.018346886324370065","-0.004559506436820609","0.00047818198663780606","-0.003232398932292874","-0.00038494242254554677","0.6633297639006035","-0.7176331535276896","-0.045442951768433625"
"0.0017319621607390372","-0.017958512633893663","-0.004554842732835977","-0.00011681722120399223","-0.00029397905765670237","-0.003018295326636368","0.660664562629018","-0.7166365537031891","-0.04391943356561513"
"0.0017330971521070675","-0.01815269947913186","-0.004205064933988899","0.0011863674249156298","-0.0025557341851077035","-0.0003741816552300038","0.6522666642826996","-0.7162644897687088","-0.04405546197658107"
"0.0019056158400449974","-0.01970360508310097","-0.004545515324866722","0.0019002271069356287","-0.0025581737733802873","-0.0008644863608638459","0.6591559581356676","-0.7160917457991288","-0.04484272640504644"
"0.0020747295538789167","-0.020089389615640864","-0.0050631864671604","0.0013761061718031097","-0.003914970051085353","-0.0018602712132175523","0.6567924777627513","-0.7163575057523289","-0.04129408523397255"
"0.0019873352185419317","-0.01853589485373525","-0.005245070922560882","-6.724224956182801e-05","-0.0034590238428776603","0.0015583417877972502","0.6542781369405002","-0.7181115214434497","-0.03998481177842541"
"0.0015617134555371277","-0.017955923475957147","-0.0052613938865070774","-5.768562852237468e-05","-0.004361157906202709","8.549625112113918e-05","0.6552335864529556","-0.7180052174621697","-0.037952887389621735"
"0.0018976709004689262","-0.016979810933893124","-0.00594929022423967","-6.345942040037772e-05","-0.005719238177735451","0.0005534516707919305","0.6619217330401432","-0.716450521735949","-0.0391941466396859"
"0.0020735945625109066","-0.019310053076751543","-0.005240407218576255","-3.240040202215436e-05","-0.005043215427464118","-0.0030930688636238587","0.6603628417303475","-0.7163973697453089","-0.040564632880167734"
"0.0019010758745729567","-0.018341708008497045","-0.005247402774553196","0.00020133862090114199","-0.006623811829333083","0.0005374484783739436","0.6546301446556159","-0.71853673736857","-0.048716135407301485"
"0.0016468378081380924","-0.017955923475957147","-0.004909284235667687","0.0012113540070083672","-0.0057210357690941965","-0.0040734023577808885","0.6560884623325215","-0.7185500253662298","-0.048245137034331934"
"0.0017342321434750776","-0.01892685770214816","-0.004904620531683059","-0.0008344597323854416","-0.00707423686408177","-0.0028789571857556194","0.6563901832311914","-0.7167694336797892","-0.04488523528347329"
"0.0017330971521070675","-0.018541073169608267","-0.00437995383341244","-0.0009313200685457345","-0.006847611953496983","-0.001900555111373175","0.6602622680974575","-0.716370793749989","-0.04706509056920242"
"0.001563983438273148","-0.018546251485481287","-0.0038622826911187628","-0.0009081253528978946","-0.004699875477943597","-0.0045460483683328135","0.6574964931929812","-0.7167029936914892","-0.047332046325723076"
"0.001563983438273148","-0.01854366232754478","-0.004037171590542299","-0.0003789274628381657","-0.004813765730458444","-0.00430434497939908","0.6546301446556159","-0.7188689373100702","-0.04311346523064195"
"0.001903345857308977","-0.018732670856909956","-0.004722736076282577","0.00029790031265395186","-0.004702700264364484","-0.00016476056824289844","0.655283873269401","-0.7171813616072494","-0.042659470409043145"
"0.001903345857308977","-0.018541073169608267","-0.004198069378011958","0.000502173087372267","-0.002217401811515118","-0.0032917291832954207","0.6542781369405002","-0.716423945740629","-0.04469479550812098"
"0.0017319621607390372","-0.018150110321195352","-0.004904620531683059","-2.7422995230772407e-05","-0.004363212296326991","-0.003810453351326723","0.6594073922178927","-0.7168358736680892","-0.04304375067002192"
"0.001903345857308977","-0.018924268544211652","-0.004897624975706118","-0.00038350667708623705","-0.003685391954696912","-0.0033151821377010917","0.6678052905642099","-0.7172079376025693","-0.04290772225905599"
"0.0020724595711428965","-0.018921679386275144","-0.005240407218576255","0.0005826079811209994","-0.0038006946004222027","-0.002343126156863711","0.6568427645791967","-0.7158658498389088","-0.05205053183110401"
"0.0017330971521070675","-0.018538484011671758","-0.004904620531683059","-0.001476047467794575","-0.003455428660160168","0.0005846303042959397","0.6582507954396564","-0.7168890256587291","-0.052698367138329295"
"0.001988470209909942","-0.018924268544211652","-0.004892961271721491","0.0011897520615337695","-0.004139797370311393","-0.0008871115639375516","0.6571947722943113","-0.7181513854364296","-0.04486823173210255"
"0.0019022108659409668","-0.018730081698973448","-0.005247402774553196","0.0003056650672485077","-0.005042188232401977","-0.0011439903939573079","0.6556861678009603","-0.7186297533521899","-0.045786423506122616"
"0.0019022108659409668","-0.01853589485373525","-0.005247402774553196","0.001905104965591184","-0.004366935878427251","-0.0018633063014347566","0.6548815787378409","-0.7172345135978893","-0.046252320813680955"
"0.0019022108659409668","-0.018538484011671758","-0.004547847176859036","0.00028535724753966934","-0.0037979982133840833","0.0015536511969161159","0.6579993613574313","-0.71852344937091","-0.03812972432387744"
"0.0013925997417032082","-0.01796110179183017","-0.004393944945366322","-3.459046101036242e-05","-0.0061694064137186025","-0.0033493958594223053","0.6535238346938249","-0.7167295696868091","-0.04000011497465908"
"0.0017319621607390372","-0.018150110321195352","-0.004904620531683059","-0.0004134706659703565","-0.005491714471471291","6.811347314987748e-05","0.6588542372369972","-0.7172079376025693","-0.04193001805523832"
"0.001904480848676987","-0.01931782055056108","-0.004195737526019645","-0.0010947781075747178","-0.005718467781438846","-0.0033460848540944462","0.6614188648756931","-0.7175002735510896","-0.04413027760261233"
"0.001903345857308977","-0.01892685770214816","-0.0043729582774355","-0.0002053155139547633","-0.0023292376739056844","-0.003294488354401971","0.6593571054014473","-0.7181779614317498","-0.04416088399507968"
"0.001903345857308977","-0.018730081698973448","-0.004897624975706118","-0.0002482207604964757","-0.004814407727372283","0.001781282813206448","0.6608657098947976","-0.7185500253662298","-0.04323929151078545"
"0.0019022108659409668","-0.018538484011671758","-0.004547847176859036","0.0004923178219253308","-0.004138513376483717","-0.0023467130793022248","0.6518140829346949","-0.7181779614317498","-0.042936628296386246"
"0.0017330971521070675","-0.018735260014846464","-0.004554842732835977","0.0003149230438804781","-0.0032330409292067115","-0.0020901101663931237","0.6508586334222394","-0.716251201771049","-0.04452646034955063"
"0.0019022108659409668","-0.01853589485373525","-0.004897624975706118","-0.0002128811722776639","-0.005267785947924624","-0.0028510895575794694","0.650808346605794","-0.7172610895932093","-0.04519640027355787"
"0.0019022108659409668","-0.01853589485373525","-0.004897624975706118","0.00029909489028388347","-0.006624325426864154","-0.0006801737309463407","0.6562896095983012","-0.7175932895347095","-0.046004068963668106"
"0.0016479727995061025","-0.018344297166433557","-0.004909284235667687","-0.000747852854215396","-0.0024396611430858067","-0.0018343350048159873","0.6526689588142597","-0.7177128815136495","-0.04157974489700101"
"0.0017330971521070675","-0.018538484011671758","-0.004904620531683059","-3.02103430339463e-05","-0.003910989670219558","-0.003317389474586331","0.6566919041298607","-0.7192011372515702","-0.04375279876218187"
"0.0017342321434750776","-0.01892944686008467","-0.004554842732835977","0.0003281629459455541","-0.0034596658397914983","-0.0037983129984579056","0.6524175247320345","-0.7186696173451701","-0.04404525984575862"
"0.0019022108659409668","-0.01853589485373525","-0.005247402774553196","0.0009929453970025273","-0.00470347066066109","0.0015398553413833685","0.6589045240534426","-0.71874934533113","-0.042149363867920876"
"0.001903345857308977","-0.018730081698973448","-0.004897624975706118","0.0012640149708611885","-0.00323471012118269","0.001074659092819127","0.660915996711243","-0.7180583694528097","-0.04256765123164115"
"0.0019022108659409668","-0.018538484011671758","-0.004547847176859036","-0.0012941730236374787","-0.0051522265034337975","-0.00041474147049628114","0.6546804314720601","-0.7168491616657491","-0.04760070243738081"
"0.0017319621607390372","-0.017958512633893663","-0.004554842732835977","0.0010100676763648811","-0.005042188232401977","-0.0008981482483637495","0.6515626488524698","-0.7162644897687088","-0.049892781162156834"
"0.0019022108659409668","-0.01853589485373525","-0.005072513875129654","0.0002240355958698437","-0.00673770208184793","-0.002386169226125883","0.6567924777627513","-0.7178856254832295","-0.04196062444770564"
"0.0020724595711428965","-0.019115866231513345","-0.005240407218576255","-0.0015435411038857145","-0.002779919507419906","-0.0018417847668036706","0.6511100675044644","-0.7168092976727691","-0.04272748461452611"
"0.0019010758745729567","-0.018147521163258844","-0.004897624975706118","-0.0007395903589417018","-0.003232527331675641","-0.0030632698156731245","0.6533226874280452","-0.7171946496049093","-0.04179568999940944"
"0.002242708276344806","-0.018921679386275144","-0.005058522763175773","-0.0008464055086847583","-0.0048160769193482614","-0.0008978723312530945","0.6620223066730329","-0.7186696173451701","-0.05106432585160097"
