"AccX","AccY","AccZ","GyroX","GyroY","GyroZ","MagX","MagY","MagZ"
"-0.07149275125677187","-0.05129212140869949","0.03286925856010307","-0.0782554826214472","0.1050050265844454","0.4344875827234566","-1.372671602931979","-1.0631348585508087","0.4128943593302556"
"0.027135572770733554","-0.11540591472859936","-0.027667412953490646","-0.15363396250880737","-0.15983243893508597","-0.050731390532854734","-1.4669767198766956","-1.035535804139655","0.4358732455808933"
"0.11426109422537363","-0.04225943482471516","0.26553437191664403","-0.41033188820478855","-0.777645320621077","-0.18190687618307552","-1.4520612141593054","-1.038794392303878","0.37342493522265224"
"0.1320848057202161","0.025602050904915095","-0.11177067694257622","0.15821988773850992","-0.29218894597142","-0.624119045102602","-1.2502602453425187","-1.0071583825151846","0.4139403399277241"
"0.06126077839474514","0.14460582695757349","-0.16652464238909634","-0.01259403444113251","0.1447265778073815","-0.1840401068705104","-1.0623410343221145","-0.9834115861767156","0.43293142515051286"
"0.027354132759353333","-0.012391115744394362","0.035339300151610235","0.022372068260560245","0.14111030595717625","0.2498260093367423","-1.0706165904552454","-1.0107599799598523","0.4007184914378479"
"-0.12323466221900367","0.012949641895922874","0.08907303102772518","0.08820584861917288","0.4715600102413514","0.5295728823067326","-1.205143139313006","-1.0457205412359314","0.4001137839049364"
"-0.03378874617152812","-0.3379615066656375","-0.23047724098659708","-0.012538194964365578","0.543263190011139","-0.41475179663273937","-1.3367802094805121","-1.0678050618307076","0.4089719320897483"
"-0.1937322937905447","0.04774335118368811","-0.041566560036135486","0.07277874903790896","-0.27921727593296036","-0.8270550520233151","-0.8244675571889943","-1.0048364735398676","0.4720412934277364"
"-0.09891384586422185","-0.04271231561480453","-0.2142443589554547","-0.10116410933988051","-0.06390909296802695","-1.038606495736285","-0.41531514554289645","-0.8978835413643302","0.4823213214872322"
"-0.11290361077455362","0.16375977596961017","0.07664021298351686","0.08466966934046705","-0.4989219455880507","-1.0576332631873542","-0.022100842005050237","-0.6836082824035461","0.5057578242492625"
"0.026736965566819076","0.11195893880961726","-0.047390571146545366","0.10298694321921939","-0.3996001178027974","-0.635913699415382","0.17174779105282934","-0.4754016491737039","0.5136843959644541"
"0.13273759722807607","0.2314218279568158","-0.1865658494158401","0.2553516948249876","-0.3599671185708988","-0.08849855316978532","0.3554261278528209","-0.2916806015017497","0.5402098101783838"
"0.10969155367035405","0.12887964539346095","-0.07484190294781065","-0.010035046005847965","0.34248950006162354","0.2918353645125082","0.3268378430292784","-0.31703690292538145","0.5690069635024404"
"0.08803428071873406","0.03663011363055467","0.03784858153428683","0.19994545537779967","0.13874094187266056","0.5359070485117441","0.19679737005513384","-0.4201111916989689","0.5685166600973771"
"0.0466095566025553","0.023179761908382043","-0.022479499510458873","0.08167936908463792","0.2698050684992587","0.6093445463522222","0.09852165799603632","-0.5402040178484591","0.5931135475847241"
"-0.26702210142815325","0.15723663064446972","-0.02357821366320286","-0.28999781577205147","0.40174753514506617","0.768087002854062","-0.1186768607169391","-0.7752973015993009","0.5292433573517992"
"-0.24380852730646718","0.019246139082536976","-0.1882325079144574","-0.4263809240272842","0.8310810938534174","0.7296451665753716","-0.5106930197641301","-1.031934206694987","0.4041833021669625"
"-0.11383754552768656","-0.13356269502851265","-0.1238854461530955","0.01854321310362773","0.03782517824873315","1.0248270192633209","-1.0075328898309763","-1.115562507800295","0.3063187425163089"
"-0.04074030175670328","-0.04030041379235609","0.05477951879781171","0.07199507086397305","0.10977726091224768","0.29346137652682147","-1.3499458669650384","-1.083992461334764","0.37742907969733663"
"0.03829561166100577","-0.08338121830831173","-0.00618156203606187","-0.11254380960514135","-0.12599361187350294","-0.1314883693213461","-1.3689712869236297","-1.0414329252303747","0.44308070563532526"
"0.13076189195649995","-0.09715253370969908","0.24884713440880293","-0.5506045048417179","-0.7296836476375475","-0.32898573008672166","-1.223728310830845","-1.059691573081731","0.3470466120302416"
"0.12105378462058287","0.027474858392371834","-0.06142602487219981","0.08791798648894336","-0.0618221379360091","-0.7372360898595314","-0.9328578378552516","-0.9755355653911235","0.43092118118975303"
"0.04658163484189463","0.20399968837342267","-0.1750334813163618","-0.0973901309101155","0.19113260770511786","-0.15773996925989373","-0.7837027806813505","-0.9465117031996616","0.42381178181633367"
"0.0458431524133864","-0.0006398979589836465","-0.10706396725441164","-0.024958627546610088","0.078259931994079","0.36391380753505276","-0.7984984719496752","-1.0029763078266876","0.35579035608720544"
"-0.18697330207199486","-0.01418705814362492","0.08343902311666203","0.127970295324424","0.761220752816031","0.5180451851903325","-0.9579074168575562","-1.0576335173990634","0.3412937187441644"
"-0.000563776623990062","-0.3105809157785829","-0.17843082113076758","0.08694368389432036","0.37791029647660546","-0.27015807153902877","-1.0579664137399545","-1.0776335969819073","0.3972046503682269"
"-0.20093418240233282","0.03538573017521736","-0.10723951368859068","0.11689867493098072","-0.36243221453761715","-1.0243121513119489","-0.6195012578108483","-0.9792558968174836","0.5276416995619254"
"-0.09894273044421564","-0.02792928945757533","-0.2427861439007967","-0.05509846650636099","0.09895237833218261","-1.105491407847441","-0.20931788462627965","-0.8379360732743288","0.5575175203771215"
"-0.14051726924862892","0.15352840949626087","0.03332567928896853","0.046444659244704235","-0.5642350222208111","-1.0870470924612006","0.2102277338806185","-0.6454550962864061","0.5530884462847155"
"0.01791850329471112","0.11725639759277273","-0.06513521776379418","0.14315285650743276","-0.3842351507092715","-0.6255023687565701","0.3907017307637416","-0.42950436891729665","0.5484305639366133"
"0.0939457025783324","0.2050280186077999","-0.19778429918596296","0.23118667987929833","-0.3945023950755061","-0.2179752202975892","0.44074516111762274","-0.2868125082523636","0.5459627034644609"
"0.12896912235821795","0.17813562490272233","-0.11796849869517909","-0.023703202068953554","0.2622183168346984","0.2747501039442013","0.3720608315951743","-0.2598598944082014","0.5461424813796508"
"0.07213871122041121","0.011453265597292716","0.1239923146641827","0.20287221416006646","0.07026631983015742","0.5107402655439399","0.3032093191205418","-0.3607573935174292","0.5560956405024376"
"0.04701008944513603","0.006910954370089001","0.009648926262898896","0.19991657288981682","0.13404289975356531","0.7015175856113549","0.2698284563343783","-0.4769715762649694","0.5899429188986474"
"-0.2750520146664304","0.18645575134450185","-0.005703869209878252","-0.3489854837291184","0.3246355040308286","0.980973232548931","0.054636133047616185","-0.7240965701606356","0.5379217276214213"
"-0.22179847735118957","-0.01158507103542796","-0.18892230213817257","-0.30380364502787555","0.8608058432773416","0.8581971910502599","-0.41314176716449846","-0.9729893811170542","0.42936855374038563"
"-0.1280006179179811","-0.14057403753563022","-0.0800091638691743","-0.0629843484752909","0.14522677689189037","0.9154959129277777","-0.978693830579157","-1.081287965085105","0.3401496774656832"
"-0.049116829954906065","-0.07297015372329851","0.014511438574527772","0.07328996907520621","0.06965124248700538","0.37415525634162305","-1.3174510738254523","-1.0573300861125163","0.41075336779481203"
"0.06308146975368784","-0.11568636842888406","-0.04083752602125085","-0.018865385331818557","0.03120053200030951","-0.0778736567538695","-1.3877208550111166","-1.017171614971239","0.4931733701859687"
"0.12565798667159503","0.04125967712006918","0.13615045417020502","-0.17454488380842376","-0.7281040715812036","-0.35893347375332774","-1.2255115956541458","-1.0337416017496373","0.4050821917429121"
"0.1243687715845383","0.042495750836138796","-0.12205769798546688","0.1974423064192821","-0.06625213078493691","-0.40999510476997214","-1.0804246569834002","-1.0115779251670662","0.4188433739783581"
"0.05895675173057282","0.07415170257642244","-0.0829521482068814","0.09816356772607583","0.28947797029190403","0.003022867841820382","-0.9459538357763674","-0.9750870147936191","0.44103777478089445"
"0.06207917482790287","0.0110846247890296","0.13068786218898726","-0.16376208829480943","0.413139629127182","0.3197445259522139","-0.9930158368162925","-1.0169737250017519","0.4060791419998743"
"-0.19046833625124496","-0.06647089889855266","0.3421758798270378","0.08444631143339933","0.691025350190935","0.6887764466932284","-1.2298862162363058","-1.0631216658861764","0.399917662542911"
"-0.05075362282122155","-0.2349726756166441","-0.30162517813327094","0.061936263049129976","0.361157217091141","-0.5001538306382391","-1.2562063856752124","-1.0860109390235337","0.4187126264036745"
"-0.1835552934393949","0.061741106980120135","-0.00892855394313853","0.011976298085916716","-0.4232219597363023","-0.8550127511350899","-0.7341608991840227","-1.0048364735398676","0.5033880244581227"
"-0.11818948891341947","-0.02589651948921547","-0.2113943109652541","-0.1263881488449426","0.18201414592531512","-1.0945947004679384","-0.313389272361105","-0.8693478077642702","0.5395724157518014"
"-0.09971298591071703","0.1714670591403972","0.06758408223204619","0.12468731919036821","-0.6022405794552647","-1.0527552271444143","0.0786826143368142","-0.64823874852386","0.5552621247138301"
"0.03624191802344641","0.13478994744760892","-0.06841277295252485","0.12848055261212182","-0.42315016082465023","-0.5991706816591085","0.33480689708340416","-0.4556654228835098","0.5369247773644591"
"0.14240045205533616","0.22616591786999876","-0.18629323612982088","0.16502652740647897","-0.23758108706597117","-0.022582210304767453","0.38967076922527055","-0.341759956446654","0.5522059001556014"
"0.09887273795174195","0.10007912780903894","-0.03185987485211903","-0.002513949860142027","0.255205956463354","0.34614901955777916","0.3444199168340107","-0.39042769627588275","0.5729130472961121"
"0.07297443840156524","0.03370404669091761","0.06509751862320454","0.29556574559317245","0.16016573710961446","0.6110433648746391","0.19518126818401735","-0.4538844131581246","0.6070708511821954"
"0.026502037649536146","0.020569465060917384","-0.007224514380301937","0.12336835223914933","0.21690602369112735","0.7115891525656836","0.04415933471072319","-0.5596895835106359","0.6616089332720804"
"-0.2157712283258161","0.13884094534061017","-0.06378660809886594","-0.196129729827641","0.2680818946196109","0.7610247715680146","-0.16437353431402446","-0.7887670121890659","0.6092935599518161"
"-0.18772430115183375","-0.0029032631920220394","-0.09868523921365532","-0.2862623473262636","0.6404789163879339","0.8616433657671627","-0.6382536122808716","-0.9924881394438637","0.5109060100024282"
"-0.12190597153928877","-0.11057587877925171","-0.03162030560076884","-0.034368542131437446","0.11326190142442429","0.8728312991790796","-1.1290470322437134","-1.0607733715815943","0.44630036466190826"
"-0.018942072054713575","-0.03700144730308121","0.011860150452861182","0.04035141702991271","0.10280797988789449","0.2167111825676305","-1.452596199606296","-1.0438603755227516","0.5010835984543249"
"0.042485801398773414","-0.0823362685953991","-0.0504739926315957","-0.1889668728078829","0.019451836756988836","-0.2713957821767896","-1.4313472463836512","-1.0207468270866418","0.5197805016340757"
"0.11415037000206404","-0.09122249602479034","0.21031778998475803","-0.19755459923479718","-0.8927150430286668","-0.46904118284197577","-1.1884805717452884","-0.997738819967592","0.49131021724672774"
"0.1609847908233488","0.0713720947913785","-0.18391613088582026","0.14077486499684103","0.11663645027206783","-0.5902397499984027","-0.9194274740297667","-0.9481212082848245","0.5321361474416733"
"0.04399742775178241","0.17648406422326798","-0.02540183132649787","-0.1878115732885671","0.2248350168345621","-0.09759936668273286","-0.8299845946110814","-0.961089597618555","0.4623496294543166"
"0.004896371814171766","0.07858806462796306","-0.04267973095404717","-0.09490719969318591","0.29850070018950414","0.2834626160805965","-0.7735046205980985","-1.0321584819937393","0.3601867432859406"
"-0.00345993717803533","-0.1696996736689008","0.09788339677134524","0.11873752666589174","-0.18928913908884254","0.7727708882087256","-1.0640128638439592","-1.070140163470657","0.39102682746442813"
"-0.09137497048583934","-0.17840412555181118","-0.16682616920545087","0.21719792819958264","0.22628535484993234","-0.7309019236545199","-1.0923225104138607","-1.0631348585508087","0.4774673177771046"
"-0.23251465652889033","0.08850781587877381","0.1294445803845664","0.062414749600046615","-0.31444660858353696","-0.8490426174705962","-0.5520150727790553","-0.9342029470975551","0.5821634382049748"
"-0.11485813402080089","-0.0031978434490618226","-0.21841616833241495","-0.21303561279362918","0.04195361566872259","-1.0888672551637901","-0.15392459980249573","-0.8062209074978405","0.5645125156226926"
"-0.07270590361651155","0.11675781323671101","0.0614296307749464","0.029101687960574905","-0.39136717593336917","-0.999533669720697","0.2406828950035543","-0.6172359866375257","0.5579097631011724"
"0.04673953721252742","0.11656045692910327","-0.08512066298203401","0.14169910461229368","-0.5532976546791579","-0.5477207492659116","0.43422502598242885","-0.42336977986319213","0.5436255905669921"
"0.12317487561146111","0.2145738315915644","-0.19360422880033543","0.14370162377910778","-0.1412580604907161","-0.07741254886921349","0.4947452546732027","-0.30912130414589184","0.5133084966872388"
"0.10722769899688267","0.12938861692360726","-0.022574501110132223","-0.023860130253660624","0.25788644916502834","0.2908403422350926","0.44319717774966144","-0.3610212468100788","0.5304364289707868"
"0.07553072373101677","-0.005688064564108286","0.0578546792741948","0.2204423943496612","0.11486541045131873","0.637714815676584","0.355844085233282","-0.47111403316814704","0.5294231352669891"
"-0.018345124068174973","0.06994385835474344","-0.09169849113333027","-0.06424940144894173","0.1515498677113756","0.8856209757692751","0.16670443866193124","-0.6575659624190252","0.5495746052150946"
"-0.11793915588680652","0.055922212057916795","-0.1467849621787071","-0.21630896143169065","0.4371443985894974","0.8310646323636589","-0.2053054937738525","-0.90585191080235","0.47913434935432014"
"-0.24728430509905475","-0.07574976150834245","-0.10496773630509747","-0.22558024007420013","0.4164184460926229","0.9227280260660667","-0.6667304418029578","-1.077739138298967","0.3594022578378391"
"-0.10568246577610296","-0.10536151738877314","-0.03341294448156167","0.15333874726940058","0.1266523984475205","0.9806820065165166","-1.1993195998119142","-1.1085967808743442","0.3666750916796128"
"0.0038574897537279893","-0.018703401435617086","0.025974001150767808","0.05967380149046983","0.11381235974708953","0.13292302615842677","-1.405536984948907","-1.0549554064786695","0.47846426803406683"
"0.07394303465069076","-0.11007729442319003","0.05305503323852369","-0.23482263622872668","0.005705217132098773","-0.3932496079061486","-1.4516599750740629","-1.0396255301757247","0.47244987959862267"
"0.16989375811277066","-0.0031580605723177343","0.009698141222034027","-0.03485376792955009","-0.5316143833602568","-0.468774225645596","-1.1835208108304827","-1.045430302614017","0.3806160518302487"
"0.09656023847743811","0.1606436237442246","-0.2394197828688931","-0.018015277435522004","-0.06629521013192811","-0.4009670977651281","-0.9394615644665376","-1.0107731726244849","0.41885971742519346"
"0.04395506370112484","0.035566467004289726","-0.027888394935339532","0.08065692901004343","0.15530973738488485","-0.0010676444717991087","-0.9223531756929947","-1.030483013585414","0.3635861802277134"
"-0.10669342607588603","0.18223855866614672","0.042468550631445307","-0.017903598481988137","0.40892742631026524","0.10308206537037261","-0.9918455561510013","-1.0796652673353095","0.30045144510238364"
"0.04586914853538082","-0.2604835751684674","0.02365885347177154","-0.011176867030771767","0.2725334271420343","0.5731354429887082","-1.312758805634142","-1.1007339527533844","0.3314549637492256"
"-0.10529733804285223","-0.06180082543010813","-0.1518737435177319","0.16782812874081984","-0.1948032955037154","-0.9547333984009604","-1.1158953066718695","-1.1055756606735057","0.36126541077708"
"-0.11080466462833727","0.010652622218850315","0.1325341976261172","0.06942549218309478","-0.31301063035049714","-0.846081819474384","-0.73318566529628","-1.0116043104963313","0.4591790007682401"
"-0.11599426083389049","0.011015861696589427","-0.27490081509472347","-0.03237083671262051","-0.05254571855057197","-1.0209387831031496","-0.36334911123889413","-0.8888069880971822","0.48972490290368953"
"-0.05326658128068239","0.11665394149586485","0.07683228143503039","0.19960849301799924","-0.552579665562638","-0.8591141844249249","-0.0070265124830851435","-0.6772494180506894","0.5435765602264856"
"0.040476397450537875","0.0941189673192848","-0.05791509618861939","0.1941208203012491","-0.5228309831681635","-0.567912420846638","0.3792775623644703","-0.44594242904937004","0.5637770605150976"
"0.13172663692829295","0.22864845247622262","-0.2028648195163205","0.16208051363222362","-0.1757526509453873","-0.07074589961052898","0.4833210862739314","-0.30658831253645513","0.5598056029340842"
"0.10496257023376866","0.10879085071380855","-0.01425979588654706","-0.08146914078434403","0.20538708496509303","0.2122093134832258","0.3410483939649573","-0.3367863218802081","0.5711806419315549"
"0.0814260665077519","0.030256543612232695","0.017279702578922595","0.1564002909955875","0.10796553504156246","0.5161764848156738","0.2537231652739421","-0.43839622487958996","0.5688598724809213"
"0.029576319780209876","0.05854289607946607","-0.05489982802507385","0.009476037376197394","0.07169272487497697","0.7822114654261565","0.12262386693596254","-0.5859957567878065","0.5659017086037056"
"-0.20720213626098796","0.12699956688414496","-0.04355952837710909","-0.1679019115723578","0.49855640102249976","0.7334796426688267","-0.19613829522907147","-0.8817357198541714","0.5285079022442042"
"-0.23548976826825205","-0.05411951019453268","-0.14262554431474772","-0.31198701662302925","0.6564182747746757","0.7812164431487408","-0.6641948336948269","-1.0768552297685907","0.3964691952606318"
"-0.10188895760358353","-0.07862804744719026","-0.07033965322416046","0.03841243933666099","0.19728577443369344","0.9136029437170845","-1.1507250883769649","-1.111538745087388","0.3588302371985985"
"-0.025941768606545068","-0.005656072067927662","0.05844121088956941","0.05199105968701962","0.11593760753198844","0.1912895768214637","-1.3817970057387141","-1.0664330247089293","0.4509255601163396"
"0.0653835707791939","-0.10487332020679606","0.008358205616206394","-0.23207879987035163","-0.1320630132051512","-0.1509446951702262","-1.3727579807906076","-1.046089935845641","0.4690667861036852"
"0.14941651653583082","-0.10108200166591029","0.19016712459317323","-0.17854029464605764","-0.7196078670357181","-0.43921478335554237","-1.2358490748642184","-1.0603643989779872","0.28257171426440514"
"0.11263104109439004","0.06244743481787421","-0.11330928980685118","0.3006683184701507","-0.11662146060586316","-0.5027505960939336","-1.0068641580222384","-1.0228840387571039","0.35311003080619224"
"0.031025362876565644","0.11989473981026583","-0.037305944816002315","-0.007116566870136315","0.20587771086138162","-0.05342523133268721","-0.8840682796427537","-1.0360503180603218","0.31097662486441124"
"-0.06558104055137358","0.12695801818780647","0.04157016593888209","0.04248775839104755","0.4110335277187236","0.25249558130054023","-0.9135203430525823","-1.0678842178185024","0.29165867070491336"
"0.08297813127275222","-0.16660429579168445","-0.09146924814281415","0.08505765742903729","0.09399825342819529","0.6347540176803717","-1.1694495790216242","-1.0756283119577699","0.376383099099868"
"-0.09249184091226637","-0.1570377084597507","-0.1057153575894834","0.18203831282840444","0.020186578952894198","-0.7665043061171707","-1.0731521985633763","-1.073095320348333","0.42884556344165137"
"-0.14183633173501262","0.06301561324030285","0.137282212357618","0.0432473678249977","-0.39737435154158574","-0.7712367291439034","-0.567618814982938","-0.9558125317655619","0.5296356000758499"
"-0.12494848063196931","-0.03686537532257272","-0.19523164750778327","-0.130431697162548","0.0017450284950804972","-1.1571597597649486","-0.1997327287010372","-0.8623293101797895","0.5187181775897716"
"-0.08652236104688052","0.14663132590407413","0.053331777028876495","0.1035934754668602","-0.4689339334880694","-0.9680084517118467","0.15870752078244152","-0.6562203106265121","0.5232616558100257"
"0.05229211630666941","0.14492782935419665","-0.07765890690334222","0.18040163850937369","-0.3707369553186973","-0.40387935808927133","0.33391525467175376","-0.4705995192474802","0.5281810333074951"
"0.14588393240258876","0.21539441834424927","-0.20579747759319356","0.1113147272542876","-0.16962581048441744","-0.014253388466078203","0.41377297816519676","-0.3257176762535551","0.5643654246011737"
"0.09663013916102312","0.09964702136711881","0.02103887457295382","0.08475342855561745","0.17810589183439177","0.37413098750558854","0.3548967151709034","-0.37554637057044227","0.5872789370644698"
"0.08519839265494253","0.03962681335396714","0.08931879603557583","0.25901014330282107","0.06640114508622527","0.6089077073036007","0.24748166839238891","-0.47777632880755083","0.5876221494480139"
"-0.0012069399385187406","0.04761351150763038","-0.10702679271540905","-0.027091117909347207","0.07791051062403932","0.9063950994148301","0.06996123699785807","-0.6272360264289475","0.5940778109480154"
"-0.10767550179567531","0.07365207950295229","-0.14777421796661006","-0.20786564744469088","0.2452737736848287","0.802597287695159","-0.3222221050015172","-0.8701129823129542","0.538902334431548"
"-0.19753543015639538","-0.07396212884837959","-0.1127454759653115","-0.1568206636829202","0.39100163136781835","1.0075233391707032","-0.89443362267819","-1.0734383296287777","0.4258383692239291"
"-0.10870571848212093","-0.073297349706964","-0.025554659986841956","0.048166055528484825","0.37893941421028393","0.8913969587454925","-1.4234840748659088","-1.08503468184073","0.4434075745720341"
"-0.00011413999541987199","-0.030946763529157033","0.023659886097854948","-0.06542684420904443","0.1293951168726265","0.09526507328365155","-1.6738433321446717","-1.0504303225097278","0.47898725833280126"
"0.07652339046347045","-0.13873550772265272","-0.016810382312559893","-0.20001923820933756","-0.11205026323068644","-0.42016374706843884","-1.5731629719566542","-1.0378445204503395","0.4780883687568516"
"0.14883304801995603","-0.022208033971767405","0.13542761591182081","-0.13373392828859237","-0.7109441316963779","-0.5360231702972698","-1.2784361455506728","-1.0605490962828423","0.37527174471505764"
"0.12445446250518659","0.10621794769304854","-0.15829461250435045","0.25568865718478806","-0.07751020013196898","-0.6183673309624191","-0.9406597089571929","-0.9834115861767156","0.4416261388669704"
"0.009224244716576534","0.057852149002838936","0.010234590472363447","0.16713494902923035","0.30161198636109043","-0.12384853973767705","-0.8813654885824381","-0.9737545556657383","0.43938708665051424"
"-0.0688161135106795","0.0939662758602409","0.1639136390486589","0.08100351886583818","0.257910382135579","0.01898715087369245","-0.8687153118671477","-1.016815413026162","0.41954614219228215"
"0.03461379053112906","-0.15798294130145102","0.0480550577426718","0.06585272841961061","0.17853429200724863","0.5909730374740855","-1.0802296102058515","-1.0204961664586247","0.46163051779355696"
"-0.1664267375030699","-0.20439283511152692","-0.18797848189793953","0.13552787967994834","0.11875691146285659","-0.6773648713623538","-1.0502202702887413","-1.0470398076991798","0.49524898793407035"
"-0.15142601229295508","0.07951979414335335","0.12288740475493828","-0.007900918968791816","-0.38052554027391866","-0.8952504812803352","-0.5042843399303925","-0.9004297256383994","0.5897958278771285"
"-0.1569622234584339","-0.019700570147740473","-0.12444099898596793","-0.15017769144685422","0.007742870244782258","-1.106874731501409","-0.12912579522846784","-0.7568407637784577","0.5966927624416869"
"-0.035762525804437964","0.14308929954121918","0.02329681476692939","0.08398611712487185","-0.5410918396983195","-0.8874359160772176","0.2376736018642338","-0.5580932710901055","0.5694155496733265"
