"AccX","AccY","AccZ","GyroX","GyroY","GyroZ","MagX","MagY","MagZ"
"-0.05868725412618601","0.3557770760978697","-0.09817512192845275","-0.03433965964345455","0.06188978013742523","0.18680954968949004","-0.2870300935666886","0.8179412280717387","0.1983375892745139"
"-0.13704149145604136","-0.010393662167922205","-0.18197272859685018","-0.09419669048880666","-0.2383469421235924","1.142991981915432","0.07745660602079453","0.7714238925776046","0.1674321313086846"
"-0.06128686632562824","-0.012118971783377355","-0.12400110027443696","-0.13771971163023194","-0.2903221742684682","0.9315376135465998","0.4278720737994196","0.6915686935571868","0.09975228361841708"
"-0.10865757751546458","-0.07364532003879873","-0.03532536798802959","0.01679293433186426","-0.5018417679952316","1.1642029446096083","0.8072380561313197","0.5201300166580739","0.03579874180663141"
"0.04109741592040463","-0.1442407099875006","-0.03336337842955818","-0.14016509561278376","-0.3286867260611817","0.7274367024962295","1.0883840540548506","0.33468072991926445","-0.08171881266364664"
"0.06525647862722117","-0.16498389663448393","-0.13350332549393903","-0.1309900919302173","-0.15853527193124003","0.29431078578802994","1.1780219802510845","0.23948246193126924","-0.1441965412261915"
"0.15983422172026232","-0.19424456603085455","-0.13300973022607096","-0.10009545728451338","0.04685030144338832","-0.2560821466390032","1.1650931652821528","0.2478334186436308","-0.15677609225543468"
"0.07577816829963036","-0.03281126127734607","0.04285888329097278","-0.17778934995850235","0.08996315459335343","-0.6048010516191187","1.0179721673598292","0.3245751488107827","-0.10210889693554968"
"0.025182975163152498","0.013301143866946363","-0.045438907848908014","-0.10296445109081433","0.2543443695235301","-0.6554258435871415","0.8368573024933327","0.4479001777952311","0.028694245467262812"
"-0.11798729685346285","-0.09850598249292486","0.00863794402220108","0.1182754068581654","0.24661402003566585","-0.8489455421264582","0.6070364708904306","0.5999588303492269","0.13775243185551375"
"-0.18783021127847765","-0.04208077543045971","-0.10838159813683772","0.1163306526673171","0.5629360918037845","-1.0802760872075676","0.24118444386010754","0.7060938173175502","0.23880396363907944"
"-0.1433479580880216","0.06845433759100915","-0.03829107009957164","0.06638224069929702","0.22314534911368528","-1.190869173016906","-0.18763982849302818","0.7860941356489254","0.2809537130276959"
"-0.05108098139448465","0.012906223508249165","0.04498609302278916","0.15488877412448265","0.41218231030515545","-0.41429068874808334","-0.4802099948158305","0.7994846902508953","0.2784041353213663"
"0.021420277209293133","0.07751506954502194","0.02898266050737955","0.17564565548819022","-0.0929038867901557","0.01744195408337413","-0.448361642424691","0.775289343314922","0.23162919047831843"
"0.12025271893542142","0.25469948508044604","0.11883538000365311","0.3394863823191623","-0.22194328410816772","0.3896387737316512","-0.2929093607185089","0.7654871934929874","0.08949350203980733"
"0.14781149670750854","-0.08459028537176136","0.026059915640907184","-0.02672623581116329","0.05552839656505889","0.7410272506755645","-0.05472938150638369","0.723824758583607","-0.058597738425540474"
"0.08909213032004043","-0.1076155341651354","-0.26069188018705686","-0.08461636922488022","0.39255727445361144","0.29302453747819995","0.08495197504373131","0.7012257240681643","-0.006878900914770037"
"0.011299120379464678","-0.10373073105748802","-0.041167966367940775","0.11153615966215646","0.0015351363433511766","-0.10592843120978244","0.08907582119761472","0.7274263560282748","-0.02735397111021741"
"-0.17335903670158254","-0.08391719649107805","0.16717054171572146","-0.10684433197651662","0.26219438386414773","-0.5168750586660281","-0.04728974013417544","0.7712523879373824","0.023286198909413566"
"-0.05307401741405704","0.30969957185850155","0.0520595816941203","-0.1891786777197575","0.21238747885116208","-0.03642491169050119","-0.24495571726693327","0.8299069748934006","0.2055777362226167"
"-0.1387167970956819","-7.286212570431662e-05","-0.08925116731565805","-0.02041637493650005","-0.5136407224767087","1.07307346529996","0.06082190227844084","0.7952762302331334","0.19954700434033698"
"-0.07859835793524732","-0.0024948395070148372","-0.16407525331925726","-0.02243333534730559","-0.21135294463949914","0.9589856671016497","0.4140516164188375","0.7271625027356251","0.08891494402183253"
"-0.122310355659202","-0.034114851624965706","-0.06014143802444274","0.03654374236416765","-0.3676735350882124","1.273970889993773","0.8171018503102024","0.5596552398969922","0.0257507906921989"
"0.001348382571599681","-0.16789230537817715","0.02956258331582036","-0.14162847500391712","-0.4740316562153607","0.9975973852325818","1.1091704677764516","0.33411344534006776","-0.11405922526162816"
"0.11823946370985337","-0.22817946376530351","-0.13238395881952694","-0.08455860424891444","-0.15670439968411426","0.2649454941862525","1.25598496361977","0.1957355860099566","-0.19680282790012668"
"0.13173915357962362","-0.17822754359237267","-0.1145009403071017","-0.08441708005779824","0.07849447510547551","-0.4584599703309221","1.2181458887753545","0.243849233924621","-0.19840448569000044"
"0.05986854163904385","-0.013253251193417708","0.04130787891369696","-0.16949044841141703","0.1314772853105342","-0.7040605910003332","1.071303529106672","0.3694961718843863","-0.10691060161580386"
"0.009186694762584593","0.0276909116133319","-0.06353051683018125","-0.04872602690773481","0.30898334129069477","-0.6778502480830443","0.7819934303514663","0.5099452795617972","0.0331739842448587"
"-0.11540694104068316","-0.10608861957469645","-0.01198388799872022","0.09573262498751546","0.3283690474367321","-0.9319206925285053","0.4524479677705348","0.6546424252508677","0.10735362074158325"
"-0.22002688977823637","-0.013223128388572312","-0.09982732366190236","0.19383199542142013","0.6956444135072132","-1.0220066118886688","0.11588082119785612","0.7522153728727099","0.21262176180869413"
"-0.16264285752388175","0.08881527623167854","-0.044742917868692375","0.0673719472875109","0.21166230984347698","-1.022613332789532","-0.3011849168516395","0.8217275228212612","0.21924085777704996"
"-0.021204697487561444","0.02414057551120926","0.057237168876318","0.0976629379343723","0.24955777541339746","-0.2944269075735555","-0.43309226612517715","0.8284953597777249","0.2055450493289458"
"0.048170286741553776","0.11147074162764017","0.05821403315122009","0.19687428415561847","-0.10336977481196083","0.16968545898352794","-0.43621301456595374","0.805869939933017","0.13119870967449968"
"0.14992295950505552","0.14693255395252808","0.07258405772789807","0.22396605788357446","-0.46654063643300303","0.552215706326946","-0.24576376820249166","0.7839701166430957","-0.10065106147782786"
"0.10441106731975368","-0.060775611347956275","-0.022289496311112166","-0.22033325475730745","-0.2851526526295249","0.7342562454219316","0.061072676706717934","0.7328881191861226","-0.16700218694037353"
"0.043834711284484","-0.11064858899784405","-0.1676233565418403","0.07349984848788191","0.5876827833531704","0.3336263001639633","0.19465185550210015","0.726146667558924","-0.0747810194819996"
"-0.05309327380071956","-0.22397265826103296","-0.08842713170110006","0.17443259099290861","0.08574616518232653","-0.1422273292666242","0.13973225570950523","0.7550517957686936","-0.045686415425537745"
"0.03976102268602469","0.18622723351464024","0.020201414819311547","-0.2930401045062498","0.1645694036909365","-0.8000681063529212","-0.0930142775566246","0.822242036741928","0.027107296779540956"
"-0.11456928822086286","0.22920935987679197","-0.10735723306209896","-0.2089631819880409","-0.3093010199151443","0.7294024782150262","-0.03776031185966137","0.8441682453611143","0.11242008926057168"
"-0.18420038239258982","-0.16493196076406086","0.0725344916758946","-0.04706432109911889","-0.31478167017124625","0.6722736381897502","0.26230522348607754","0.7899332010569778","0.10088325013942998"
"-0.14225997224158834","0.10522805000278437","-0.17105167513874825","0.0949595370591733","0.07431338515027461","1.0958133646643118","0.5874760654848492","0.6695897142794706","0.09761946380639133"
"-0.07790512801539602","-0.16320768986601417","0.02054383362856898","-0.026181319537885994","-0.4858066777262871","1.2044892124269226","0.9414023752593473","0.4444041216676232","-0.05122684390275411"
"0.028797398939710336","-0.12072414785992408","-0.04324767529992048","-0.16023842476089614","-0.22583717841676068","0.6206052862722425","1.2817590020815406","0.21680427142803146","-0.16037328490391645"
"0.14852109455602294","-0.27922203721711936","-0.13757806801905914","-0.11181211990957467","-0.17791619148316729","0.03265633008177932","1.3282915904395485","0.15644783073442306","-0.21752795283215637"
"0.11799779605723856","-0.0931482781000786","-0.008084278857345776","-0.15894834029766017","0.08236443644351778","-0.48818929447321746","1.1840405665297244","0.22758267843276986","-0.17872207266607223"
"0.07163515670918591","-0.0057816530026107","0.039149690399378406","-0.22028511727733596","0.038509661206482124","-0.6816847241764995","1.0512694386699004","0.36162015109879414","-0.08542223771655881"
"-0.06636092421120625","-0.03903837214107493","-0.06816907319684104","0.07817881154111099","0.20181628575893404","-0.7172871066391504","0.843851122659716","0.49382384338090346","0.02082977885004596"
"-0.045294437202392845","-0.05274217091091225","-0.013784787888180298","0.1493625914237553","0.4059358049914323","-0.8293848602826296","0.5695317619503837","0.676133275937182","0.06525617038284018"
"-0.2098210048470928","0.01706587124217553","-0.14465775244689072","0.10175462373194916","0.4429122444922073","-1.2059401201943472","0.16049080560574233","0.7968197719951338","0.1410864950099448"
"-0.1521770113727939","0.0465072774676185","-0.01974923614593339","0.05589597206230709","0.38705269122695884","-0.9511901483399196","-0.25125294179921465","0.8418727217150622","0.1756855719605851"
"-0.019779724874533833","0.025457669185138896","0.009775856661071163","0.10242854845155007","0.27873206651465615","-0.30745927252409644","-0.4020798284949602","0.8345903708379319","0.1706354468884321"
"0.046156068696652605","0.12333289443227462","0.026730296494254364","0.19579600460425703","-0.030287098619632944","0.16580487210160713","-0.34520976092688016","0.8069385457682481","0.1129267361124705"
"0.13890638069541916","0.18269559432586993","0.15337878774575084","0.2815962489054453","-0.3220094272775466","0.5461242284822799","-0.23840771830637542","0.7991284883058183","-0.07700863128567095"
"0.1135226117968654","-0.07060603290163933","0.07056217585658912","-0.1503991238547231","-0.274837542322189","0.6874901983833985","-0.008336112275196652","0.7569119614818736","-0.1450055418445461"
"0.052498159643958535","-0.11541630190268395","-0.12845378394608367","0.09750889799846352","0.5646113997423308","0.2680276363626374","0.12440715175926335","0.746700839056332","-0.10779968512365215"
"-0.13505808362980024","-0.1532152283966111","-0.07250403749497944","0.06153479646616772","0.3098688612010693","-0.1185069689264777","0.05123674635319887","0.7717932871873142","-0.09500603494086464"
"0.054114733304278365","0.17817717359906082","0.05493028220598899","-0.24471970211086558","0.12640828214790367","-0.7513848212676605","-0.12692455302470593","0.832624663807692","-0.019522191386671443"
"-0.061546827545572474","0.1991073293795673","-0.13244385113236448","-0.2686536571526917","-0.2333928172196051","0.7097447210270594","-0.08785946986427041","0.8505139170493385","0.14255740522513502"
"-0.21877522464517155","-0.11063820182375941","-0.03889825423661437","-0.06829872626414368","-0.1959496847930922","0.8052425908229225","0.31220933471313833","0.7532180153847785","0.14798342957450322"
"-0.10062766427718747","-0.014183941991399534","-0.028235357299363953","0.04684131207966934","-0.1848926523986857","1.2055327723764073","0.6487764812858173","0.6266739762300043","0.06593115473714412"
"-0.025681807386600853","-0.10970335615614375","0.019946149651493585","-0.010369120116850122","-0.36556743367975403","0.9451038928899003","0.9520742203737886","0.43175235628507225","-0.07523863599339209"
"0.01338362423568412","-0.1401066147018224","-0.09451756034102868","-0.19301042112548827","-0.29218894597142","0.6350209748767516","1.102538877339801","0.27468049117073307","-0.13883589066416505"
"0.21219233705569526","-0.27287547385141736","-0.1787468047122898","-0.22792934909680898","-0.1544499138582418","-0.13402688957055758","1.2014833212076363","0.18692288603545812","-0.19025237440847972"
"0.1006892891875522","-0.05087975059754013","0.008795336889833824","-0.13323329849688884","0.03537683536140028","-0.5060511577946292","1.1049630301464761","0.27796546466422134","-0.1334458218978348"
"0.05129174701955071","-0.008000457258826081","0.0356243049506303","-0.22306746361968824","0.19776204054765162","-0.5646846656540458","0.9216747869015817","0.40494486175186745","-0.03399267921477577"
"-0.31635696405756814","-0.078267612506454","0.011894454291351931","0.19963737550598212","0.2530519891137943","-0.8807619861677228","0.7058415956314457","0.5216867510847069","0.09609135152727709"
"-0.08851539706645287","-0.05480506368411751","-0.04066611009140546","0.11817913189822243","0.42694895313491477","-0.8742336692744351","0.412101148643352","0.6329272992658012","0.15891719550741698"
"-0.19463734396368382","0.02790904226910889","-0.088658439943783","0.08060590328127364","0.40418869814123387","-1.0244820331641904","-0.013463056142186578","0.7582444206097544","0.2844348672036461"
"-0.12184820237930113","0.016353311099970694","0.008188049490182751","0.0709004245694213","0.37589992695034974","-0.7547581894764597","-0.3821571933596456","0.7992208369582458","0.3366194929492267"
"-0.013964296102448238","0.04205325722013405","0.043092256785822534","0.1377325762626427","0.1926308116615894","-0.17619156529694444","-0.5206682692444693","0.783020244789557","0.32419847335428736"
"0.05673456470971626","0.1511912953272217","0.039761005040754756","0.27839992023533827","-0.08309136886438369","0.10859594491741711","-0.45557837319398686","0.7655531568161499","0.25449367260110806"
"0.14009642539116385","0.14129231842458018","0.2220195087619149","0.1782354519106565","-0.24697956460121673","0.445238677086752","-0.3280735083279732","0.7693658368949374","0.028460534177515918"
"0.11865155038443162","-0.06974389745261597","-0.08199387120148063","-0.3257543358948761","-0.33380838175902366","0.5307135176003553","-0.02728351352276868","0.6861728937225012","0.01044024969675262"
"0.05812487582675129","-0.14333702584213878","-0.020397725326312365","0.11273959666144377","0.45148024794934477","0.16530008031208895","0.01300757795368618","0.6879011327893567","0.0929076480837321"
"-0.26137035194269925","-0.10725198307217375","0.18422126360492141","-0.2871191944697562","0.3942325823921579","-0.5531326997016112","-0.16089055614351483","0.736067551362551","0.14339092101374282"
"-0.01900946940803243","0.3050461178685924","-0.04871646303763868","-0.04556917097120433","0.12879918590591496","-0.15549752881030343","-0.35816643972117584","0.7724265350896734","0.25616070417832365"
"-0.12129939535941889","0.06680173819414632","-0.08841474018809918","-0.07891111509865893","-0.5856789638342056","1.0757673060997925","-0.08473872142349413","0.7553552270552407","0.22331037603907616"
"-0.0842597356140326","-0.05169514376318269","-0.05592419309981261","-0.16627486474932135","-0.38985939878867737","0.8525425522542152","0.24508537941107814","0.708138680335585","0.16705623203146933"
"-0.12255106049248367","-0.061346905922610294","-0.017558003596945843","0.018867659718635587","-0.42860687811020154","1.0471786172511202","0.62213866423776","0.5724785099197653","0.07491841615195616"
"0.004389928844947093","-0.09953431272730215","-0.02226471328511042","-0.0023911030112547774","-0.30894202535688436","0.9086278323300067","0.9843683939707535","0.3953801798933174","-0.0915755454501044"
"0.05729588838092915","-0.08967376836877369","-0.1332348427122535","-0.09535776650571907","-0.2451989515922474","0.5946861693873681","1.1302076559263292","0.2570418985571037","-0.18192865693518684"
"0.1720870605536334","-0.29106341567358457","-0.13632445995380424","-0.05112616165911343","-0.16444432236019882","0.00028728464400852176","1.1539197713111582","0.19090707075446794","-0.2497833795065936"
"0.11106453403939279","-0.056669561432306545","0.006517467012448514","-0.0523700341415768","0.09535046626430776","-0.533038103465023","1.0035944334719662","0.23994420519340615","-0.20885285125190142"
"0.042925809834012334","0.012895109231978624","-0.04186602160032324","-0.13664143207887053","0.20269941237225353","-0.7058322160308537","0.829334069645032","0.371263988945139","-0.07485129630339202"
"-0.20457363948155197","-0.08975790447885909","0.047821684247822044","0.006329001485581097","0.06293325765343415","-0.8730930339808124","0.6233646725537796","0.525789669785409","0.07124440930334779"
"-0.1798676953935194","-0.026854216939817308","-0.09690292659369655","-0.03590797874092578","0.5530278419958097","-1.115951276178322","0.285069968808528","0.6226106355231996","0.20989240618717456"
"-0.13683929939608472","0.032959286309050456","-0.037628124154024986","0.08074068822519383","0.44719624622077603","-1.1249550143471314","-0.15813203743247145","0.6949987863616321","0.3456247321555578"
"-0.07287921109647438","0.010425974080323938","0.01764525221244832","0.18986546707176913","0.43477503450498173","-0.44593725093710634","-0.5336528118641289","0.728851163808583","0.41866359606316805"
"0.01261433158851584","0.06477831668246262","0.060533311334549984","0.26163844970926453","0.1276743362900338","-0.06181982171703003","-0.5913030665424029","0.742215333081288","0.4049187572745577"
"0.11704075364011056","0.2475323349620592","-0.11768968965265947","0.383243351613249","-0.3231582098639784","0.14678781218495193","-0.5053710291195914","0.7611336141642681","0.25539256217705764"
"0.07892466188028859","0.013305194864839366","0.15153038705645408","0.03616345627239286","0.12893560383805375","0.7067353853587782","-0.3265688617583133","0.7354079181309268","0.0980100721857585"
"0.09487345603134667","-0.12408959226334049","-0.1720182131528163","-0.3070384836819598","-0.2481283471876486","0.578887157128891","-0.12174188150698748","0.6718852379255225","0.10766414623145673"
"-0.012654861809395842","-0.3043278369796425","-0.0016082676378733503","0.17981436125372147","0.46040724596474225","0.03156423246022561","-0.08576968296196491","0.697887979916146","0.11380928224158464"
"-0.06392499129839556","0.1177549819488344","0.3373018847133614","-0.3137488483899859","0.07483273061122402","-0.9265572797648749","-0.3487763305734821","0.7655135788222522","0.20531624107324956"
"-0.030775121658841387","0.24986944913109838","-0.05113487332497555","-0.01861795868476509","0.10839872180852946","0.45550439472935683","-0.45641428795490907","0.7792867206985644","0.3042431247682072"
"-0.21091861888685728","-0.03676358101654345","-0.1536250773551885","0.035657049983092756","-0.12506979921024736","1.017376486600721","-0.05484083680784011","0.7298538063206517","0.21383117687451722"
"-0.0934161474720681","-0.014179787121765687","-0.18380667252097926","-0.12349990004665305","-0.20311042958185066","1.0147069146369232","0.322992635129036","0.6366212453628962","0.16692548445678576"
"-0.0734665308896817","-0.0914603623113281","0.022632216619649283","0.06612229830745096","-0.4565127217722751","1.1067586097158832","0.726767328479867","0.47213510272510195","0.012623734193968268"
"0.032521584120244626","-0.0900082353742984","-0.04850374206445704","-0.10256972375504808","-0.23582201373049744","0.8027429007113662","0.9828358835757294","0.2830842185416245","-0.10203044839073953"
"0.07069640785938734","-0.19529367061340103","-0.11927373806460428","-0.1122357297333238","-0.2383062560736563","0.37396110565334684","1.1037091580050924","0.1570415006428848","-0.179042404224047"
"0.1570054585195359","-0.17705379292081078","-0.062355388347265214","-0.05999597371866064","0.05974059938197565","-0.2930921215916566","1.070105384616016","0.15370375649086668","-0.19672764804468362"
"0.07207420232509172","-0.009870148594057429","0.06845974915077449","-0.21643411887961655","0.001014115574463234","-0.7017307827410186","0.9358574740118963","0.2670287456838931","-0.09907555320289081"
"-0.010064877803284886","-0.0028467569650017146","-0.11623162162289018","-0.035216724528535144","0.22302329096387688","-0.7443468588176477","0.653095374217249","0.42275495900571913","0.049455325982330496"
"-0.05167792938102325","-0.08473778324376292","0.020063455974568503","0.08037676887660934","0.41806982106061863","-0.899012150865687","0.28866440228049356","0.5794838148396138","0.16996536556817882"
"-0.2594062005031207","-0.05534000314947536","-0.12863552613676313","0.20767633466122137","0.5700441840573314","-1.1357303775464613","-0.1132991424216724","0.6900647297890837","0.30906444158466395"
"-0.1311586653306369","0.05941749613739096","-0.1857067045144463","-0.07951764734629974","0.07087661057919933","-1.4018867023371167","-0.6127582120727417","0.7672154325598427","0.3898337558454405"
"-0.03533888529786221","0.026872402295463952","0.044397496155247726","0.028840782819129416","0.33705671574662294","-0.3538370181860771","-0.8573468711186044","0.7796693079729062","0.48622740528090397"
"0.04355453085854411","0.11485696037922581","0.045258706308808336","0.12513981150210024","-0.0685425160666354","0.14077884838280308","-0.9160559511607134","0.7915031281482433","0.49330411776065236"
"0.1364463772992803","0.1850846443653322","0.12553092752845765","0.4025753635698004","-0.44184181082471835","0.5017850650471994","-0.7464209823442163","0.8167143102609178","0.2918547920669388"
"0.1309688981131222","-0.05285850726065998","-0.011564641808857383","-0.21170701834641595","-0.2440573488969807","0.8206533017048471","-0.3989590800541836","0.7495900326108458","0.21211511495679533"
"0.06264338695711516","-0.11216511641419834","-0.1962642735911893","0.050614327759834925","0.5096373663874569","0.26518818254659776","-0.27566165281814536","0.6989170077574798","0.24509619067072633"
"-0.09208745679235315","-0.1642775687967299","-0.08180593325430074","0.07670580465398331","0.3296853608170186","-0.1483600641325491","-0.37861848753840777","0.7596296503961651","0.20533258452008502"
"0.03257646482223285","0.22191756366938972","-0.04605848349895162","-0.2753158843807462","0.2539135760536182","-0.6364233449721071","-0.5861761226754131","0.7636929911029697","0.31148327171631"
"-0.1315052802905625","0.18306953259291617","-0.0767440001934445","-0.25940163350217077","-0.38502493873744337","0.9711200851189131","-0.4221417827570952","0.7335081744238493","0.3191646917289699"
"-0.1337967903034042","-0.09493591076004147","-0.034499267121304786","-0.1444974688102181","-0.40632528252753386","0.7967242293748036","-0.024831496890729672","0.678349643595439","0.25287567136439887"
"-0.10751182250904377","-0.04658880898318419","0.019015960075561455","0.2552843023530275","-0.44054943041498257","1.3323374406568098","0.432135239080123","0.5217659070725018","0.09615018793588469"
"0.008252760009451628","-0.10082232231379484","-0.09264231137356337","-0.18743610094478946","-0.1550099453691273","0.840092639368503","0.7629067099770739","0.32662001182881756","-0.06791677181111207"
"0.07214063685907747","-0.1554692451729733","-0.09000291910437762","-0.3328690554346627","-0.2888622630648777","0.3097457655059889","1.102427422038345","0.1792447552193532","-0.2021291572237987"
"0.1566530666436115","-0.20271011290981872","-0.12082680769404691","-0.22116121941281713","-0.059457560445603554","-0.2296533841974035","1.0986100779634669","0.19606540262576863","-0.22883108066355118"
"0.09621129349472632","-0.05988958539853831","0.02679080838274196","-0.13523581766370293","0.09877288105305262","-0.47855456656751033","0.8877087837827721","0.2795881624140166","-0.11414747987453958"
"0.08127971796911664","-0.008322459655449256","0.0004512018228715894","-0.07478958406349973","0.16808994365893914","-0.5848035307266686","0.7342626975028035","0.3693378599087966","0.01729795998890597"
"-0.268379676687862","-0.13923409207871443","-0.225995643784615","0.29368838387428425","0.5562587930201492","-0.9188883275779643","0.4756585342988106","0.4999452397703753","0.14603855940108512"
"-0.11625422205383469","-0.04134016991822641","-0.028330358899037303","0.16309140071162498","0.5232312936602338","-0.8722436247196039","0.15472299375537849","0.6420698158561117","0.22045027284287302"
"-0.18869674867829175","0.04711284971675177","-0.08324954451890235","0.07938032304119945","0.30472327253267667","-0.9655330304363249","-0.2509464397202098","0.7238907219067694","0.3206519453909955"
"-0.10407455748978123","-0.012592626921635965","0.003430947649147961","-0.05107128493194592","0.27803801036868686","-0.6962460257972156","-0.5995507588501696","0.7469778850136141","0.41397302682139503"
