"AccX","AccY","AccZ","GyroX","GyroY","GyroZ","MagX","MagY","MagZ"
"0.07605642308690398","-0.026836558743873456","-0.002460184156683306","-0.2451914494145862","0.07081917144987775","-0.6207699457298373","0.6332563305580265","0.26143505587972043","0.006172975728017536"
"-0.10287103332337279","-0.04549607826948231","-0.08634329226478674","0.12292548742341158","0.3452657246455005","-0.6351856343343462","0.3983085550881342","0.37270198939007965","0.18936503696185378"
"-0.03726452396411571","-0.006320124107157329","0.03982915836225955","0.05422175050889858","0.4168971055036362","-0.7252472848584751","0.07408508315174148","0.5150244554453032","0.3380740597175814"
"-0.21306570599972993","-0.03917444412158343","-0.09971580004489451","0.15533163894022037","0.5317992971173713","-0.9267999681252201","-0.3686153742327044","0.6098665214882214","0.49150633860875326"
"-0.14155711412840585","0.02341970562973673","-0.07040367604133163","0.04577747377229935","0.27638663540069114","-0.9238877078010769","-0.7526624792257695","0.6807902865524483","0.5993240573821937"
"-0.027761497146154637","0.030569197552179714","0.03851978848850073","0.09188836583699207","0.25118521741084254","-0.23505077333148228","-0.9084491268363206","0.728851163808583","0.67898201725816"
"0.04006527359529275","0.10803258700563138","0.005290087649712135","0.1589997149140481","-0.16766330689926304","0.1313771013030274","-0.815996954278315","0.7642206976882692","0.6471613262695457"
"0.13003977745665488","0.11717330020009575","0.06445315994715918","0.0771602224649142","-0.5379805535267334","0.43084725731827767","-0.562073913735487","0.7690755982730226","0.46079700200494916"
"0.10477539815540883","-0.07625665560367184","0.043831617061541234","-0.3027061104845255","-0.35407960781543557","0.5573849684023003","-0.3207453222572211","0.6561727743482357","0.4284533207176006"
"0.07251132230233127","-0.06942604992562665","-0.041698736174811464","0.023342519856785534","0.4358280852092109","0.1799972874145984","-0.2671353222567383","0.5946949571608662","0.4408579968657045"
"0.00025847108650018605","-0.12629167316927964","0.026351735772077722","0.06826730441498068","0.19998780680886336","0.05432597377700829","-0.34724382017845795","0.6488112674833104","0.39279191972265637"
"0.05120316764090305","0.14824133788719002","0.10095029623906109","-0.2883322589650378","0.02449451365201362","-0.8500619085840464","-0.5293339189326971","0.6546292325862352","0.5134882746024287"
"-0.06916272847060512","0.20187031768607583","-0.09043042630290771","-0.1800325565251739","-0.3622646837437625","0.6054615325866979","-0.5981297037566017","0.6149720827009921","0.552777920794842"
"-0.2194780827583541","-0.09024298550861079","-0.07476342336547179","0.08351051882275351","-0.10908018158534913","0.8303365672826232","-0.1655716788046797","0.5953677830571229","0.41196278286063504"
"-0.08263257094104842","-0.008442950874830832","-0.12336706785922569","-0.008981509119191879","-0.18278415769317222","1.0083242107598427","0.22195840435889477","0.5584151294215388","0.2626653960188313"
"-0.08537660604045968","-0.10247388299324918","0.05454201479862834","0.053588261272473736","-0.5137364543589114","1.1221693205978078","0.6025782588321785","0.4238499501702151","0.11049156253398897"
"0.05081707708831922","-0.11593566060691489","-0.007092544766842651","0.009181532273731802","-0.2682081094796552","0.6743364892526849","0.8465260498946675","0.257160632538796","-0.06041022667959149"
"0.09411689185576234","-0.15018217356390243","-0.15937886989192676","0.03610184029802935","-0.1353418301705921","0.29219939705302606","1.0316533056135908","0.13989103662065724","-0.15788417795087795"
"0.1430022141385404","-0.18427287890962069","-0.06444542354007897","-0.08746803353839143","0.010513590245432563","-0.2377640292001424","0.9888544698543694","0.1323976031094071","-0.15808193365758685"
"0.06845400163253512","-0.007841533495331414","0.028223886861292815","-0.22538769015431415","-0.015086311704084577","-0.6477326225641966","0.8021111122643295","0.21280689404438924","-0.08169102880402637"
"-0.19048759263790752","-0.06571990621223472","-0.15982909486429175","0.020203956162644223","0.3131955441076115","-0.8943039966749888","0.5744915228651892","0.33958840116254807","0.0687569366949928"
"-0.04551588564901201","-0.020288484200929886","0.020323677747586817","0.056364831117229425","0.48472314404421635","-0.7168017299184598","0.2383980613236999","0.44077613889369044","0.23185799873401466"
"-0.20043351634910692","0.01829467393638591","-0.1205500639036941","0.005409094243325875","0.49082605153463543","-1.1212661512698834","-0.25454087319217567","0.5591275333116928","0.4714038990011539"
"-0.13759992666925486","0.041431065492465384","0.0009625582593742428","0.12820135522828718","0.43494256529883635","-0.8799125769065145","-0.6300059199731051","0.6273995727847909","0.6470959524822039"
"-0.03618616631101374","0.04326232428358365","0.036739541120708784","0.17945814390193243","0.3582852606250614","-0.3061244865421974","-0.8355016320331685","0.6837454434301246","0.698528779673354"
"0.05239706361398023","0.14062753928316457","0.05435820735578206","0.25171250133914275","-0.14596806909508664","0.043421985746695396","-0.7996966164403304","0.7576375580366602","0.6311447483708081"
"0.14957538172579674","0.09938838073241178","0.10764790901603244","0.12256927007162255","-0.3392650990445749","0.4448746445462341","-0.580324719348957","0.780619179826445","0.40921708379228017"
"0.12891327883689657","-0.06363312293863485","-0.05597788965614972","-0.25594536244021765","-0.32354113739278906","0.5548124717826405","-0.28349138774545096","0.6959618508798034","0.37098976164417075"
"0.0563975779431219","-0.0868650764962928","-0.051015088699300444","-0.02091411647940528","0.4681136624820559","0.2746287597640287","-0.26334584200722366","0.6319774274122623","0.42596911679861277"
"0.005814901457974687","-0.05086624727123013","0.09700566460045014","0.17225677689819716","0.366422470612287","-0.11631063926535302","-0.3887887837962958","0.6710672927183087","0.38542102519987"
"-0.017208997255085418","0.1062002894971047","0.15409956075196823","-0.18019622395707696","0.17987214506103075","-0.8743307446185732","-0.5657240748581809","0.7273603927051123","0.4105082160922804"
"-0.0392575599836881","0.23970040570225679","-0.11352201078003284","-0.1160193356590831","-0.30054155269360144","0.45497048033659726","-0.6180523388919162","0.712070094396065","0.42699875394924575"
"-0.19442552371039595","-0.09256036404688919","-0.15286299930563485","-0.06334826782387538","-0.03617078009980804","0.9670914583371816","-0.24041391373258875","0.7015819260132411","0.34067266776441746"
"-0.07527663123595998","0.009781553800114197","-0.18301981144542387","0.06275652570784421","-0.10026088193742964","1.1119278717912375","0.17745987525246498","0.6286001052663469","0.22465053867958276"
"-0.113279110314473","-0.09892146945630964","0.05540115970002213","0.16133919644066264","-0.45062521101681186","1.3424090076111383","0.64476409043339","0.4254726479200105","0.0780759700805644"
"0.03955209089073619","-0.12987524822847307","0.010784814954645503","-0.04519273587782727","-0.22010044537576665","0.7093806884865416","0.8948140592506114","0.22027394222637445","-0.0675441412232639"
"0.10776591500410054","-0.2000821578664102","-0.10299128998145837","-0.024362685544563004","-0.10055047088109267","0.0942773316570463","0.9587615384611669","0.14212059694354684","-0.1272124312747955"
"0.129972380103336","-0.1290027256053651","-0.039935010824354","-0.1703858055388868","0.033567502787770126","-0.43234670275777126","0.8456065436576531","0.18373026119439734","-0.11945419706200905"
"0.06167479070798964","-0.010227467382568307","0.0369150875548878","-0.3307028688359456","-0.01976903672202738","-0.7488851311561042","0.6613430665250155","0.31731918326291725","0.006282476821815035"
"-0.12511215991860086","-0.059162483212615004","-0.10496567105293066","0.07813837605793493","0.2034820205092602","-0.8057227451489659","0.4803675207853391","0.4512774999411467","0.15527260686311237"
"-0.027241574706266185","-0.049677954555949755","0.04535990366498213","0.029643715985053914","0.476777397821396","-0.8259629544017614","0.10593343554288094","0.5969245174837557","0.29103761972516645"
"-0.23664515146800413","0.01099799575716388","-0.10307803057246447","0.03829690938472941","0.43245353636156736","-1.0858821883315433","-0.3802624532348884","0.6953945663006068","0.44118486580241334"
"-0.142356254174901","0.04159622156041082","0.0091227619683602","0.08333626114525669","0.39289233604132073","-0.9676686880073633","-0.8564273648815898","0.7924398073371496","0.552516425645475"
"-0.039950789903539355","0.028589402171651408","0.05195425383361288","0.17536645810435558","0.2265007515848883","-0.28850531158113096","-1.0802017463804874","0.8455138971536276","0.5579261065480079"
"0.04369895375851313","0.11453495798260264","0.04804060097750412","0.24014025115399595","-0.12506022602202707","0.1677803553548176","-1.0239446829704173","0.8627435171636499","0.48746950724039784"
"0.14572121593529033","0.15515919582754598","-0.003279882741690994","0.11839093681009699","-0.5189777749095067","0.4427875246472648","-0.7746191736126616","0.8630601411148296","0.30175892084921935"
"0.1121621480791573","-0.09533166209266544","0.014835889689933938","-0.15586754157948465","-0.21514871376883438","0.6482232216795342","-0.4764483783916801","0.768020185102424","0.28655951529225415"
"0.060734116219524806","-0.08318905558774628","-0.2125301996570007","-0.08224607971108393","0.48953367112489965","0.3286511887768853","-0.2620641060404764","0.6779670563210972","0.32519542361124965"
"0.019896134204953484","-0.08569963556399862","0.0973278439384728","0.16655729926957244","0.10279122680850904","-0.16450369386271632","-0.34225619543828806","0.7294712190463096","0.27609970931756833"
"-0.013059245929309076","0.06144818867093389","0.08643157350637264","-0.17604677318353432","-0.027274176957009927","-0.7052012262939561","-0.5250428898266294","0.7430728562823994","0.37512465369353876"
"-0.11960483333311582","0.2695635311955353","-0.056409527359013424","-0.15712874355473777","-0.27143906050399474","0.5197440037127492","-0.5933649896193447","0.7187323900354686","0.4364289227732985"
"-0.18798426237177793","-0.06360819372083178","-0.0440097533494741","-0.029077270332970986","-0.11059274532415105","0.9684990508271841","-0.14208247402276333","0.6467532118006429","0.35072388756821704"
"-0.11509883885408258","0.008415017177541775","-0.21841616833241495","0.04720619417785326","-0.11717191892852842","1.158888069518047","0.3011473960435999","0.5787450256201946","0.18388998227197922"
"-0.05945750959268743","-0.1423814058263539","0.07902764448835156","0.0995788096372377","-0.47089643707322376","1.2573710061461567","0.7069840124713728","0.3879527097052296","-0.007061947519327039"
"0.06926180705302847","-0.1137647412232296","-0.059333924427219235","-0.06699708880571452","-0.17890462316690967","0.5575305814185074","0.9758420634093459","0.18768806058414214","-0.12555357142099768"
"0.0994192342052247","-0.18474030174342854","-0.11370168771854547","-0.19269271375767644","-0.16649777123344575","0.06729281287025594","1.0386192619546097","0.13561661327973287","-0.18887952487430223"
"0.11976456953352616","-0.11378551557139886","-0.016771142521390465","-0.1575523533784869","-0.0067588346009812336","-0.31318671782824475","0.9789906756754864","0.1737434140676079","-0.16854337397695615"
"0.08372913035259108","-0.0199612882172644","0.03719802710174105","-0.2536058809136031","0.016172780461842437","-0.5465558451362544","0.7857271829502522","0.260274101392062","-0.07788790872541798"
"0.0348275364230832","0.0034165532004120334","-0.05594278036931391","-0.022547902549637736","0.2145677724683275","-0.5555595833050638","0.6229188513479542","0.360986903196435","0.07286077619537343"
"-0.10507588959623308","-0.08224174531122908","-0.055145593032924475","0.22486141501104423","0.2384050111367883","-0.6849852858771953","0.4036584095580373","0.5093252243240706","0.1737407017871669"
"-0.1809460530466214","0.022433962809106422","-0.10284878758194833","0.07123738692922177","0.5321822246461818","-0.8465671961950745","0.03323671516800546","0.6073335298787845","0.31936081309099523"
"-0.17379230540148957","0.05176838114147782","0.006803917487985339","0.11213306441380297","0.27547718251976594","-0.8580948933114748","-0.31556265073950307","0.6831913515155603","0.4166533521024082"
"-0.08958412652622358","0.019063324818647687","0.05164653126075789","0.10377639789075187","0.4392504999979558","-0.5716255527599206","-0.6524362993911866","0.7459488571722805","0.4529031171834285"
"-0.00795630346373728","0.04887243700668615","0.0748227910767223","0.1474467197208899","-0.09223137031768205","-0.1154709375385584","-0.6768728742354816","0.7530069327506588","0.44556490955431305"
"0.12044913407937928","0.15963606785801665","0.0814584462886893","0.28718982407813276","-0.24717102836562205","0.18133692716370425","-0.4896836954396163","0.7492470233304013","0.33357961183783363"
"0.1460582027018847","-0.04112931028430865","-0.017588982379448025","-0.013059042497657127","-0.11443877369164267","0.46098915167315996","-0.25908267672652","0.6863312056980911","0.21489350091882126"
"0.10592500443916218","-0.06133755746593414","-0.19303628445446214","-0.2554543601445084","0.15617371762176382","0.4213096047567086","-0.10719696466693959","0.6034285011475699","0.22921036034667236"
"-0.006444677110728276","-0.13707355986911374","0.08560753789181463","-0.0297839285389525","-0.013738167472965702","-0.06626829936215878","-0.06843838358550938","0.6228876814804818","0.20302815851628706"
"-0.043166606476182715","-0.048372286773513205","0.05466386467647025","0.2392352665305319","0.3641249054394233","-0.10982600627692747","-0.21430550936644918","0.6952230616603845","0.18995340104792985"
"0.007715506821566902","0.1658683723087878","0.04145657706970742","-0.2310679127909503","0.33365823392842875","-0.6426118981609115","-0.4327300363954441","0.7486665460865719","0.2765573258289608"
"-0.07181048163670367","0.12256424355001283","-0.08477989637451004","-0.1929622836455168","-0.46448240096564597","0.6780496211659676","-0.3015192827560085","0.7592338704571907","0.24408289696692867"
"-0.16309538261045137","-0.11267408794434468","-0.012512592553424096","-0.12876614035553433","-0.2112931122131225","0.6876600802356402","0.0848405197422749","0.7167402976759638","0.22326134569856979"
"-0.10143643251701395","0.05985687360117033","-0.16765433532434248","0.054177464027324804","-0.10428401428699617","1.1635719548727104","0.4572962733838843","0.6295235917906207","0.12861644507449915"
"-0.11132458706822573","-0.14300463627143098","0.05708640546814073","0.09748001551048062","-0.5158904217084711","1.2627101500737523","0.8689007016620205","0.4214093072132058","-0.040567647876675904"
"0.02344027217019307","-0.10436434867664979","0.02021215413057897","-0.14830995722396031","-0.31669630781529934","0.7262232606945032","1.1222107380468391","0.2392449939678846","-0.14914370258328116"
"0.12532388836300004","-0.22102270082100134","-0.12051908512119192","-0.0014965160834645604","-0.09502913457505462","0.2783661605133458","1.1934306756774185","0.13037912542063723","-0.2316094666255771"
"0.12932825396947423","-0.15995650437752856","-0.08486870221768295","-0.15857286795388253","0.025413539721159093","-0.5040125755677289","1.1438887941800908","0.1737961847261378","-0.21531831882000402"
"0.06730439534878177","-0.008164574609363056","0.038672617148844825","-0.2135169875933441","0.028278316296073507","-0.7151271802320774","0.9517955821201479","0.2859734120961383","-0.14214543864834295"
"-0.056039500960087446","0.017135465308542475","-0.09542007553792553","0.011867507381181143","0.2746873944915941","-0.6436797269464306","0.7349871569622696","0.42284730765814643","0.014128965647512898"
"-0.04556402661566836","-0.05042894724226768","0.039754809284254324","0.052021867674201375","0.4050742180516084","-0.8362529408804006","0.4494944022819428","0.5859218351802653","0.12471036128082742"
"-0.2339492573352492","-0.00974861865726739","-0.13842275615528526","0.06011281530780983","0.5844996982699321","-1.1082823239914115","-0.004658087327138601","0.6995502556598389","0.2913644886618754"
"-0.13957370630216473","0.07053800471238363","0.001355782271935251","0.13475768000040445","0.23109827522767074","-1.0161092847322788","-0.43217275988816267","0.7698803508156041","0.35371473833910383"
"-0.039209419017031774","0.037330209163857965","0.06514295417087439","0.16384234539918024","0.39140849186717963","-0.3575501500993597","-0.6942041736119371","0.7886798979168921","0.3416369311277088"
"0.039264207910131285","0.14182206430289573","0.03321415567196068","0.17401860866515378","-0.16948939255227868","0.14135159291321794","-0.6357458679981048","0.7959358634647575","0.28379747277706363"
"0.16742220088463428","0.12118274939675856","0.10594407597841253","0.13950403552559362","-0.5102422406585144","0.4093693374277214","-0.44471148130199706","0.7950387622697487","0.10830154065803917"
"0.10164325058281418","-0.0868900057140959","0.009871168048569537","-0.22979708331970286","-0.22435812083672962","0.5618018965605842","-0.22221883576984708","0.7272548513880526","0.06589683349878966"
"0.04521924548552027","-0.0605678678662639","-0.14755530123692798","-0.13769082914224906","0.6424653529436389","0.20243625321212186","-0.16420635136183984","0.7068721845308666","0.1962619715264122"
"0.02995181932012931","-0.08213995100519983","-0.014918611327760093","0.13993727284533705","-0.052844880682455256","-0.33058747326500043","-0.18814137734958158","0.7456190405564685","0.14981389562007327"
"-0.15265842103935728","-0.09420361498707587","0.04443467069425035","0.06388968198637314","0.3102278557593292","-0.230524635411043","-0.29068025468938274","0.7892207971668239","0.12737434311500523"
"-0.07913753676179827","0.2584180934027395","-0.011802145808040765","0.07999552003523512","0.057644071161737524","0.08916631478817495","-0.43677029107323523","0.8403555652823268","0.22015609079983497"
"-0.09197191847237794","0.02407929118411001","-0.14682833247421015","-0.12092935861617535","-0.1232820063101128","0.8365251204714275","-0.1279555145631767","0.8164108789743707","0.1490947839593136"
"-0.10170602193028942","-0.012831531925582193","-0.17638415623345685","-0.09688950111841198","-0.25016264968445495","0.9318045707429796","0.26241667878753366","0.7360939366918159","0.10147324857018959"
"-0.0937627624319937","-0.03946528499595275","-0.05574038565696633","-0.01460810660313976","-0.4031661304148463","1.3121457690760836","0.726432962575498","0.5508029619285962","0.012540382615107487"
"-0.007917790690412232","-0.14270340822297703","0.026276147542772403","-0.11258231958911855","-0.35221283611248383","0.874093278652875","1.0144055977132276","0.3458681095276098","-0.12001314294378132"
"0.05834536145403731","-0.17093574738497042","-0.08163658257662217","-0.09699540357434927","-0.19752208095827076","0.5790570389811328","1.1620002806667404","0.20609182774645549","-0.17604011304037545"
"0.1647628938865382","-0.21758454619899253","-0.15903190752790233","-0.21691549367933147","-0.0355413429743256","-0.4060878221684133","1.1538361798350658","0.21657999612927925","-0.21806728657772612"
"0.07482593997916799","-0.03547868758227613","0.017815015940560265","-0.1787713545499208","0.03717659474681016","-0.606888171518088","1.0446378482332506","0.3343377206388199","-0.1412972137575833"
"0.018511600003917213","-0.007130012070535041","-0.05705182078289196","0.06970757781572774","0.3279382539668202","-0.6078346561234346","0.804061580039815","0.4533751336177114","-0.03666646711705482"
"-0.1335849700501163","-0.07380632123711031","0.03968046020624909","0.17411488362509675","0.20503287700094322","-0.8131975466476002","0.5315812318045117","0.5966474715264736","0.031459556671820356"
"-0.18636672589212505","-0.0296784895734251","-0.10533122068645637","0.10482579495413039","0.5446034363619763","-1.1429139530126813","0.22803271828826363","0.727980447942839","0.14764021719095888"
"-0.15092534623972914","0.024359744884394713","-0.04898494581932425","0.02333674335918896","0.3437579475008087","-1.169900898683075","-0.2473520062482439","0.8321629205455551","0.23128597809477405"
"-0.06941306149721807","0.011167929925188242","0.02703223636104228","0.11202716195786568","0.29838103533675087","-0.5148850141111969","-0.5367456964795414","0.8611735900723845","0.2574845233719948"
"0.01737162191349513","0.06297302582655591","0.058998828974608654","0.17304623156972965","-0.005397287906353992","-0.03500518478248137","-0.6654765696615744","0.8567012767619728","0.2104971137200861"
"0.10366382323531399","0.20384388076215337","-0.036634737861788405","0.29446821104982246","-0.1639776294344609","0.27351239330644045","-0.5510119750659486","0.8429413275502935","0.05987427333992765"
"0.11203409310785144","-0.005720368675511451","0.06499219076269712","0.026932613113059452","-0.02255650980206315","0.7475312987328178","-0.30561526508452763","0.8082841975607614","-0.06438822163933916"
"0.13166020239430723","-0.09266839065736923","-0.27651171178483686","-0.3750374878896902","-0.13433664540746423","0.44438926782554355","-0.12341371102883218","0.7684951210291934","-0.008439700087555178"
"0.03762452658581643","-0.14760615439091704","-0.04739263639871218","0.16134882393665692","0.3484727426992894","0.025364758295205746","-0.1469307796361125","0.7979675338181599","0.08823669097816149"
"-0.13267991987697714","-0.03724242974184437","0.33645513132496846","-0.25505000531274785","-0.06051539774394289","-0.4993044213770307","-0.26223128899266074","0.833007251082034","0.11583586964917998"
"-0.08684009142681232","0.30462024373112306","-0.1402009382709104","-0.025997434364394893","-0.019166404523561675","0.32134626913049275","-0.33124998441947784","0.8610152780967947","0.19196364500868973"
"-0.12057728085957384","-0.045316380157818414","-0.1818715312406764","0.057684760818047756","-0.12709692181588852","1.1075109436329535","-0.04018446466633581","0.8170045488828324","0.1756692285137496"
"-0.07947452352839264","-0.011668168428104909","-0.15150406337987254","-0.10773006160799209","-0.18707773260996124","0.989540131669119","0.336562318081341","0.7029935411289168","0.11836910390867418"
"-0.08455820960730193","-0.13115287064088113","0.031582606460179186","-0.05612957132735037","-0.48121154738055966","1.114524637246932","0.7134484199558382","0.5106708761165838","0.0331707155554916"
"0.05477522736680331","-0.15192721881011834","-0.06577131543117228","-0.12083308365623235","-0.23757630047186107","0.5387950399998528","1.0643933004163804","0.3090737678676155","-0.1134561520734002"
"0.10616667209177699","-0.20447593250420387","-0.1175761007834848","-0.09517003033383024","-0.06940170970940422","0.021630755182933455","1.099613175676573","0.2610260832761135","-0.15028610951707888"
"0.11877575407840497","-0.1123001496772984","0.02794487129355651","-0.2167614537434227","0.1228303030505795","-0.43157010000466645","0.9670092307689336","0.3009734717832711","-0.08842943193428096"
"0.08573468302349413","-0.022568468912503668","0.0139596031955556","-0.2583426089427979","-0.022951882475560112","-0.6556685319474868","0.8249594490628724","0.4060398529163634","0.022062074741438623"
"0.007479616084950849","-0.037086622130575085","-0.11053359089465584","0.1376844387826712","0.2573359908423631","-0.7326250110129713","0.5916556392894605","0.5197606220483645","0.12152338914791537"
"-0.05849469025956066","-0.0436170384775748","-0.04661610158399087","0.16631661186971497","0.4510015885383315","-0.8308167216086667","0.24057143970209788","0.6927164553802128","0.2133081865757829"
"-0.19967288907593678","0.03835957811564367","-0.10436881317672198","0.18707349323342257","0.5708818380266046","-0.9879817037682622","-0.20472035344120706","0.7917537887762605","0.3054361963871948"
"-0.144118213554523","0.035881198379053666","-0.04528194868423031","0.04196113436015943","0.24905518303183352","-0.9051521663824222","-0.6353000467922797","0.8371101697827361","0.3346746227758086"
"-0.015437409682132178","0.025771361842494383","0.03955861032840718","0.09618608004884692","0.20869222819813962","-0.16964626021843254","-0.7768761434671517","0.8440363187147896","0.3416205876808734"
"0.051336036708874544","0.10789755374253136","0.05321818815970183","0.2579222362554653","-0.12838930222562436","0.18886026633440756","-0.7045416528220094","0.844023126050157","0.26253464844414776"
"0.11199558033452636","0.10193843197018565","0.08886650581104398","0.23874426423482267","-0.4716862251013957","0.5756108642642299","-0.531507297311095","0.8349861507769063","0.04220864165549352"
"0.10107692025106903","-0.07990255370737297","0.009270943811328963","-0.1889091078319171","-0.16053846156633056","0.7301305432960621","-0.24473280666402059","0.7567800348355488","-0.030398755255661086"
"0.05194646416607691","-0.08818944119208169","-0.1681355390792097","-0.06849705268162623","0.48450774730926033","0.16686056646910902","-0.107782104999585","0.730684944192498","0.048669206189545525"
