"AccX","AccY","AccZ","GyroX","GyroY","GyroZ","MagX","MagY","MagZ"
"-10.614","-0.68242","-0.51873","0.39897","0.23875","-0.71771","0.66024","0.62399","0.2111"
"-8.4087","1.3833","-1.1892","0.30492","0.21226","-0.74405","0.64022","0.64518","0.20866"
"-10.694","-0.14657","-1.451","0.68573","0.27173","-0.89563","0.6151","0.67037","0.20198"
"-10.471","4.5681","-1.0091","1.0495","-0.18455","-0.64104","0.59292","0.70101","0.17819"
"-11.548","13.394","8.2452","1.0985","-0.80812","0.00723","0.58855","0.71407","0.13176"
"-12.455","4.9637","-2.4745","2.2063","-0.8915","1.5593","0.61169","0.70573","0.047011"
"-17.599","-1.289","-3.7261","-0.2832","0.62483","2.1297","0.66652","0.65253","0.032099"
"-15.939","-5.7097","-2.7729","-0.32271","0.36528","2.1658","0.71575","0.59382","0.063782"
"-11.93","-6.508","-1.6939","0.60674","-0.16573","2.544","0.78423","0.51113","0.040055"
"-9.4847","-4.9772","0.29617","0.65748","0.021404","2.3877","0.82978","0.43284","0.02416"
"-8.1452","-6.8103","0.70009","-1.4529","0.22531","1.4347","0.85612","0.37007","0.044713"
"-6.3522","-4.2012","0.57576","-1.9782","-0.2767","1.2331","0.87081","0.32458","0.076945"
"-5.663","-4.3809","1.1673","-1.1086","-0.90854","0.95782","0.88729","0.27959","0.064046"
"-7.189","-2.8681","0.10747","-0.77647","-0.73617","0.20844","0.8939","0.25638","0.032422"
"-8.3612","-0.30579","-0.6014","-0.34974","0.097768","-0.72492","0.88724","0.27421","0.033832"
"-10.753","3.7938","1.0337","-0.18502","0.53389","-0.40233","0.88406","0.29088","0.053135"
"-10.903","6.6351","0.93011","-0.66788","-0.60069","-0.077921","0.88328","0.29726","0.052212"
"-8.9399","7.1038","-1.7387","0.69284","0.66021","-0.61797","0.87775","0.30719","0.056063"
"-8.1595","-1.7669","-0.59576","0.027583","0.054031","-0.72904","0.86504","0.34123","0.066908"
"-17.158","3.8364","8.128","-1.5646","0.21813","-1.2759","0.84548","0.37958","0.089301"
"-12.098","1.5168","-4.3537","-0.18177","0.38298","-0.217","0.84119","0.388","0.10071"
"-7.2183","-8.0637","-1.6801","-1.0937","0.3845","-1.4562","0.8267","0.41274","0.11649"
"-9.2359","-2.7568","-3.3615","0.90672","0.85738","-1.4658","0.79565","0.46701","0.13046"
"-11.879","9.1484","-2.2499","-0.16117","0.1758","-0.89799","0.76574","0.51048","0.14289"
"-8.7566","3.0671","-2.5781","-1.3193","0.2141","0.11734","0.76557","0.50787","0.15775"
"-8.1624","-1.019","-0.17661","-0.17753","0.63816","-0.33479","0.75662","0.51028","0.18894"
"-9.7616","-0.42115","0.56317","1.5799","0.68056","-0.63152","0.73858","0.53709","0.18895"
"-9.8934","1.0859","-1.3987","0.57752","0.44615","-0.29241","0.72795","0.55849","0.17419"
"-8.3997","-1.5947","-0.78829","-0.33961","0.49751","-0.4824","0.71954","0.55606","0.20054"
"-9.4895","-3.0983","-0.80104","-0.068327","0.52568","-0.75511","0.70064","0.57285","0.21839"
"-10.877","-1.6667","-0.26043","0.44177","0.38044","-0.8669","0.67603","0.60323","0.21997"
"-8.7983","1.2356","-2.0969","0.71519","0.23904","-0.95302","0.65152","0.63315","0.21032"
"-11.174","0.421","-1.3787","0.56364","0.30375","-1.01","0.62415","0.66475","0.20228"
"-9.8075","0.92344","-0.10676","0.58856","-0.041843","-0.86051","0.59475","0.6915","0.19441"
"-12.788","8.2976","3.1706","1.5189","-0.76192","-0.34133","0.58041","0.71512","0.15312"
"-11.043","9.7125","5.3342","2.9547","-1.3069","0.78653","0.59076","0.72259","0.073638"
"-11.606","1.6917","-4.479","1.3644","-0.22352","1.9725","0.63566","0.68399","-0.008069"
"-20.298","-4.2447","-2.262","0.55021","0.59337","2.0815","0.69036","0.62815","-0.013864"
"-13.457","-5.6321","-1.043","1.3331","-0.22562","2.7213","0.7549","0.55331","-0.051149"
"-12.739","-4.5184","-1.3598","1.6275","0.16442","2.6174","0.81088","0.46512","-0.08354"
"-8.6486","-2.4586","-0.58983","-0.21661","0.44993","2.4175","0.84724","0.38704","-0.074994"
"-6.4385","-4.9798","0.22985","-2.9936","0.30922","1.4708","0.87409","0.32512","-0.037809"
"-5.326","-5.0646","0.057273","-1.9378","-0.4919","1.5014","0.89182","0.27333","-0.007675"
"-5.048","-5.0518","0.83539","-1.7156","-0.79032","0.64871","0.90304","0.2278","-0.013814"
"-6.2364","-3.7931","-0.089903","-1.2893","-0.21343","-0.2682","0.90438","0.22391","-0.021239"
"-9.408","-0.17202","2.2876","-0.48627","0.27799","-0.97319","0.8966","0.25134","-0.011533"
"-13.225","6.6287","3.8536","-1.0521","0.12274","-0.25269","0.89307","0.26893","0.005754"
"-9.4261","7.6589","-4.0967","0.9913","0.60713","-0.66772","0.8869","0.28535","0.009188"
"-9.66","6.2853","1.4805","0.37545","0.24002","-1.1398","0.87002","0.33408","0.019938"
"-12.809","-7.047","4.4919","-1.4773","0.16251","-1.6776","0.85245","0.37791","0.031418"
"-16.703","13.255","-6.3715","-1.6198","1.2003","-0.60602","0.83669","0.40323","0.072119"
"-5.9631","-15.777","-2.5315","-3.2873","0.34902","-0.87761","0.8278","0.40763","0.12592"
"-8.9943","-2.1961","-0.96458","0.8163","0.53085","-1.5878","0.80302","0.44876","0.15069"
"-12.205","5.3429","-3.2799","0.16322","0.084878","-0.71765","0.77296","0.49598","0.17047"
"-8.3806","2.9969","-1.5804","-1.0974","0.23295","-0.043085","0.7665","0.50064","0.18566"
"-9.2299","-2.0545","0.83814","0.052466","0.74568","-0.52033","0.75453","0.5038","0.21059"
"-9.5065","-1.18","-0.60845","2.2931","0.47696","-0.71781","0.73605","0.53812","0.1952"
"-8.5541","1.404","-2.7073","0.93074","0.52412","-0.44894","0.72012","0.56935","0.16994"
"-9.4091","-1.4327","-1.0413","-0.5828","0.5405","-0.57736","0.7046","0.57303","0.20196"
"-9.2684","-2.5427","-0.7972","-0.28847","0.44926","-0.78379","0.68516","0.59008","0.22628"
"-10.705","-0.13752","-0.033627","0.60682","0.34061","-0.79626","0.66246","0.61616","0.22446"
"-9.0319","1.8401","-1.6673","1.0889","0.29689","-0.81214","0.63998","0.64636","0.20627"
"-10.312","1.4635","-0.65751","0.68154","0.21535","-0.77919","0.61736","0.67404","0.19046"
"-10.565","2.1676","1.0467","0.70946","-0.2456","-0.58187","0.59675","0.69554","0.1765"
"-11.274","9.2442","7.7527","1.4515","-1.0087","-0.07797","0.59252","0.70919","0.12383"
"-10.797","7.1962","-0.49347","2.9279","-1.3633","1.2265","0.60982","0.7089","0.020568"
"-15.477","-0.84767","-5.079","0.26407","0.54551","1.988","0.66023","0.65978","-0.028522"
"-18.516","-4.057","-6.0366","-0.54194","0.81381","2.0915","0.71332","0.60063","0.010829"
"-13.599","-7.1602","-1.4867","0.072357","-0.099829","2.8055","0.78015","0.51622","-0.001728"
"-9.3363","-6.2658","0.22555","1.2675","0.14289","2.406","0.82916","0.43316","-0.021954"
"-8.8834","-5.2047","1.5086","-0.80148","0.3518","1.6716","0.85826","0.36687","0.003976"
"-5.9342","-3.3006","2.5408","-2.9815","-0.25798","1.1381","0.8736","0.32584","0.047593"
"-5.3283","-5.3561","1.6401","-1.3715","-1.0649","1.2256","0.88954","0.2763","0.042922"
"-6.8902","-3.9649","0.92471","-0.94154","-0.8875","0.18424","0.89626","0.24936","0.002819"
"-8.0219","-2.2549","-0.30745","-0.37012","0.020081","-0.83793","0.89256","0.26555","-0.005126"
"-10.077","2.1937","2.4516","-0.44116","0.040868","-0.6046","0.88695","0.28964","0.001812"
"-11.186","5.9281","-0.61242","-0.85026","-0.14116","-0.49319","0.88251","0.30397","0.004828"
"-11.586","15.353","2.467","-0.17931","0.32321","-0.51781","0.87594","0.32066","0.024729"
"-7.3115","-11.248","-3.9436","0.15129","0.054865","-0.81851","0.86256","0.35723","0.009311"
"-16.357","11.534","3.8754","-0.70319","0.48787","-0.99727","0.8416","0.40168","0.038747"
"-11.447","-7.6007","-1.6755","-0.68861","0.81788","-0.59077","0.83286","0.41111","0.074803"
"-6.7117","-4.3788","-0.31633","-0.36447","0.094669","-1.5579","0.81341","0.44273","0.10084"
"-10.561","2.0376","-3.7233","0.27372","1.1399","-1.1646","0.7851","0.48653","0.12045"
"-10.054","3.3191","-1.3294","-0.29999","-0.0984","-0.36463","0.76593","0.5144","0.14576"
"-8.9125","1.9151","-1.5524","-1.1663","0.41441","-0.36322","0.75875","0.51817","0.16891"
"-9.6545","-1.2573","-0.19132","0.070062","0.64016","-0.59859","0.74611","0.52615","0.18544"
"-8.8841","-0.50793","-1.1667","1.4678","0.36949","-0.62853","0.72748","0.554","0.17717"
"-9.0348","2.2167","-2.0728","0.16879","0.51487","-0.3412","0.71248","0.57402","0.17159"
"-8.4997","-2.7842","-1.479","-0.66014","0.59207","-0.54998","0.69696","0.58215","0.20859"
"-9.9892","-2.9677","-0.24118","-0.16487","0.4715","-0.74483","0.67898","0.59737","0.23261"
"-10.627","-1.0505","-0.34607","0.56505","0.29046","-0.74475","0.65811","0.61922","0.229"
"-8.8967","1.8987","-1.1996","0.66938","0.32114","-0.82168","0.63813","0.64567","0.21943"
"-9.7307","1.2377","-1.6957","0.66505","0.3928","-0.8469","0.61123","0.67083","0.21093"
"-10.759","1.3344","-0.68135","0.41937","0.038051","-0.83782","0.58414","0.70036","0.20266"
"-12.653","9.0246","1.5374","1.0828","-0.61448","-0.3332","0.5684","0.72048","0.17443"
"-11.945","6.6499","5.3794","2.3791","-1.1861","0.77174","0.58021","0.72431","0.11438"
"-11.888","-0.58148","-2.5696","1.7625","-0.28722","1.9788","0.62708","0.69292","0.034989"
"-19.572","-4.6462","-2.367","1.0407","0.64692","2.02","0.6826","0.63499","0.019119"
"-12.806","-4.5032","-1.4587","1.8716","0.23452","2.5606","0.74555","0.56535","-0.019872"
"-11.785","-4.6442","0.95466","1.0233","0.2582","2.7443","0.8022","0.48027","-0.040626"
"-10.007","-4.4012","1.9202","-1.0595","0.11539","2.2596","0.84187","0.40166","-0.028558"
"-5.7184","-4.983","1.6919","-2.5006","-0.081533","1.6402","0.86785","0.34258","0.00446"
"-5.2772","-5.8439","0.006596","-0.49921","-0.74378","1.4801","0.88853","0.28275","-0.003971"
"-4.9028","-6.2158","-0.3605","-0.7669","-1.01","0.5287","0.89906","0.23943","-0.033876"
"-6.6858","-4.3419","-1.9734","0.048039","-0.23476","-0.90905","0.89438","0.25374","-0.050478"
"-10.257","3.7231","2.2963","-0.22334","0.97092","-0.90927","0.8854","0.29022","-0.034227"
"-12.568","13.172","-0.58054","-2.1627","-0.48872","0.018487","0.88332","0.29564","-0.014599"
"-8.8348","13.559","0.15406","-0.76151","0.5278","-0.16228","0.88243","0.2978","0.007087"
"-10.114","-5.1829","-1.2989","-0.49624","0.51107","-0.012701","0.87775","0.31429","0.04181"
"-16.19","11.094","-9.0966","-1.3143","0.47089","-0.17754","0.87206","0.3257","0.069006"
"-5.5298","-11.086","-1.5529","-0.51493","0.67976","0.36653","0.8742","0.31314","0.081868"
"-9.0707","-3.352","-4.3026","-1.4061","0.76604","-1.4261","0.85587","0.34108","0.12195"
"-11.065","0.93192","-1.5421","-0.70334","0.72885","-0.76348","0.83826","0.37003","0.16056"
"-9.9619","-5.0991","0.31672","-0.69765","0.52824","-1.1596","0.81549","0.40076","0.19582"
"-10.153","-2.9987","-0.15443","0.71301","0.53881","-1.2526","0.7895","0.44349","0.21367"
"-9.9645","1.4713","-2.2031","2.0522","0.27463","-1.3629","0.76715","0.48885","0.2012"
"-8.0773","5.9786","-2.5677","1.0431","0.26293","-1.0357","0.74202","0.53835","0.16962"
"-9.6458","2.6725","-0.49543","-0.44393","0.50521","-0.76996","0.71907","0.56106","0.18715"
"-9.6129","-0.88743","-0.74592","-0.19115","0.54531","-0.73334","0.6938","0.59254","0.19894"
"-10.346","-0.33021","-0.22872","0.45913","0.46029","-0.85726","0.67131","0.61386","0.21087"
"-9.694","1.514","-1.3802","0.86661","0.33794","-0.88955","0.65002","0.63502","0.20625"
"-11.054","0.50931","-0.86639","0.18093","0.3571","-0.87019","0.62406","0.66062","0.20528"
"-9.8967","2.2356","-0.22998","0.4214","-0.078426","-0.67168","0.60282","0.6821","0.20203"
"-10.792","10.55","6.0734","1.0004","-0.55513","-0.22115","0.59142","0.70793","0.15575"
"-11.117","5.6437","2.952","2.5699","-1.1215","1.0869","0.60963","0.708","0.065897"
