"AccX","AccY","AccZ","GyroX","GyroY","GyroZ","MagX","MagY","MagZ"
"0.008654255671365489","-0.0922767941943791","-0.05247522198123654","-0.07642818388172934","-0.03977269216768289","0.578838619456822","0.12972914240380184","0.5205785672555784","-0.2810647367496382"
"0.007618262068921104","-0.10708578828681987","-0.05922859656671183","-0.02944600342955262","-0.06602955415881574","0.5307620552724245","0.19091810290331387","0.44692392061242736","-0.29971260958888263"
"0.02225889284844654","-0.10902818984064352","-0.05454047414804856","-0.017761111541272523","-0.06986122274397695","0.4253382315384401","0.23196151766459816","0.39081551793047836","-0.3252901038863564"
"0.031237183129853532","-0.1294597612650883","-0.06620708363836962","-0.05850660008834266","-0.05896454125225989","0.28465178904628824","0.2591566112199367","0.3479921285334395","-0.3479421212002853"
"0.04044077313521218","-0.1444588406432776","-0.07798934725003215","-0.01576533162165444","-0.051238978358505737","0.09733763188100013","0.2720854261888681","0.3282427095786129","-0.3597584332623131"
"0.03703528115394285","-0.1086750259217665","-0.07668617313277377","0.08023043093749599","-0.023306329769415435","-0.07318249074839546","0.27294920477515455","0.32204215720134605","-0.3780467502711777"
"0.032023806525018086","-0.091149785806198","-0.05424514308819444","0.09980986954110087","0.03964647730763864","-0.15207562292943513","0.2638934615318298","0.3276754249994161","-0.386038695773711"
"0.024609134840608945","-0.08882825239828572","-0.02935059346944244","0.09494413306558241","0.022488930719868024","-0.19422088358699438","0.2647851039434802","0.3383746760163596","-0.37968109495472235"
"0.025400572332439142","-0.08773136681495","-0.037803670588204004","0.08762145961231897","0.010459741061693568","-0.25571811409848527","0.2569553690161748","0.3626227936108628","-0.3799589335509249"
"0.027857687270578625","-0.09088906773667409","-0.014276317903881558","0.06315221579320987","-0.036144453832202314","-0.3099104249635836","0.2326581132987","0.3970292629723778","-0.38649631228510356"
"0.027981890964551975","-0.10009522012787153","-0.027900786448340407","0.03912294854104022","-0.03969610666192077","-0.3800230922673315","0.19091810290331387","0.4475307831855216","-0.3911051642926994"
"0.026551141435525616","-0.09490786539001299","-0.019592276981255676","0.02311338545212123","-0.041436033620954","-0.4273473225346588","0.13050932951399616","0.5056312782269754","-0.3876730404572557"
"0.03520688724033515","-0.09308180018593705","-0.023743433836547822","0.02286499605546833","-0.03236304448519749","-0.47435605793353713","0.06987764552176591","0.5641011678781388","-0.3886536472673825"
"0.044451878477018245","-0.08373334350978032","-0.026907400156103826","-7.183922622826686e-05","-0.003968250234773878","-0.49915880836082355","-0.021264927244128037","0.6332835012108782","-0.3796974384015578"
"0.05861495086731281","-0.06649790555117267","-0.02815274721269147","-0.009440066753400318","0.018776926987460127","-0.4466653160181421","-0.12678523389788557","0.6946030064226577","-0.36469415420661794"
"0.07545851228103226","-0.05081119524858165","0.004636641864132813","0.012011919821095621","0.0807346011490176","-0.3545893521031474","-0.23364300416911837","0.7509752623972564","-0.34650389787876595"
"0.07975076086811134","-0.03302108219385537","0.025564255120872303","0.026431020571756496","0.047082451257729765","-0.18727514271391282","-0.2945533264149894","0.777584866960974","-0.3450003007699049"
"0.08812661509278091","-0.024669794229822014","0.01804322630499299","-0.0030560741595809754","0.016046893036745946","-0.039897782127041974","-0.31851621622809506","0.7890492925266015","-0.3393454681648404"
"0.08537555141223785","-0.0327343961891199","0.02299219007232462","-0.017844870756422916","-0.035909910720805814","0.1126585480695969","-0.305420218306979","0.784168006612583","-0.33766209314078943"
"0.08043147413663196","-0.05269646734493993","0.003880966096296299","-0.04329997016534817","-0.05441249025352371","0.22559114967266386","-0.25760589398222405","0.7634687158042175","-0.33759671935344765"
"0.07220225729639758","-0.053718565274866396","-0.009229874234276403","-0.07371419276093659","-0.07545196466461195","0.32054539754135336","-0.1874169178901155","0.7273340073758473","-0.330144107596484"
"0.05921575013118391","-0.04926246759256502","-0.034827642215827896","-0.10271413619496257","-0.054259319241999455","0.42242597121429687","-0.10608241165237665","0.6853813338445525","-0.312901771185088"
"0.038990767219523284","-0.06465522086856132","-0.04937734373101852","-0.11729979262632481","-0.035483903845004","0.5232144472656866","-0.020596195435390156","0.6393521269418203","-0.2873569637812851"
"0.014280971854158251","-0.09293326359652702","-0.04841700147345094","-0.08875426700322972","-0.03243962999095961","0.578013479031648","0.07564545737212947","0.5679270406215587","-0.27155285069140833"
"0.006038275543260104","-0.1059328119634272","-0.04693415041767991","-0.024196129863861646","-0.060778660420000186","0.5546911276024679","0.15767655924397075","0.4917130170397062","-0.2857879928850822"
"0.016723644502300832","-0.09853195042813642","-0.048821790898146096","-0.018379196784106485","-0.08393859602187717","0.4705268042347289","0.22407605508656486","0.41495809420792173","-0.31130011339521424"
"0.021542555264600236","-0.10583932739666563","-0.05485852298173761","-0.051808751125109194","-0.11397686736001485","0.3800525834980131","0.25397393970221854","0.3602349213123835","-0.3417316114028156"
"0.03257742764156597","-0.14449000216553146","-0.08228713700916794","-0.0816039257282642","-0.11476426209113169","0.20803750056889064","0.2646179209912959","0.3317387657062208","-0.3617359903294021"
"0.04000846725463827","-0.13547393506008248","-0.11159513050839721","0.06054220162915555","0.0006089303830405022","0.015550441002843111","0.2723083367917809","0.3202479548113284","-0.3745002223078858"
"0.0373356807858784","-0.09825669031489405","-0.08803886429373939","0.11478062581223504","0.02974301409377411","-0.11761144887680366","0.27116591995185374","0.3178468898482165","-0.3841265124939638"
"0.030373534188038828","-0.09008302302770767","-0.038251830308402214","0.12887527994788808","0.07200864008624572","-0.1559659173457698","0.26626188668777634","0.328189938920083","-0.3820508947458621"
"0.029436710976906498","-0.088208138105434","-0.042904843440229684","0.12564044129380375","0.03532896942029894","-0.2084302870852098","0.2637820062303737","0.3427678333389764","-0.38067804521168463"
"0.027856724451245492","-0.08885318161608882","-0.024449750077597532","0.09425576710199007","0.02498274625124715","-0.2605233436333216","0.25327734406811675","0.3606834719098879","-0.38262291538510274"
"0.024978857464529623","-0.08824241577991324","-0.010355023614755586","0.04587759973064006","-0.00331033287433614","-0.32316120943843524","0.2320172453153267","0.4003142364658659","-0.37910907431548174"
"0.02005403657558627","-0.10203762168169522","-0.006749919432368539","0.02525261506205436","-0.03624257901146004","-0.374562604159563","0.1997509355437261","0.45009016012422326","-0.3740752926901642"
"0.019990490499599906","-0.09910324500279044","0.0020587941095180596","0.05051901554949137","-0.04634468588089506","-0.4401855367969234","0.1353854989527096","0.5149057214636108","-0.376592183502823"
"0.03581346342020499","-0.07930529119750739","-0.0049766939219437435","0.02830549404184642","-0.050722026194611414","-0.4929702551720192","0.056865239076742055","0.5794970075042462","-0.38442069453700184"
"0.04360556028319983","-0.07279564919867691","-0.022250256519942738","-0.011886413485551568","-0.019405016239951788","-0.4721961315264643","-0.028509521838787723","0.6413310266366926","-0.3789292964002918"
"0.06275025990309223","-0.055918568745988606","-0.010973979689149147","-0.015006684937303718","0.012065164726232072","-0.43443382265674063","-0.13157781186050654","0.7033629357386264","-0.3621282330534529"
"0.07598998855291823","-0.03624110616008713","0.013992234179791231","0.008737608433434699","0.07118295260224784","-0.3155893325956629","-0.2211600104060122","0.7489303993792216","-0.3490861624787665"
"0.08423172204448326","-0.027773481846306052","0.0289952585455971","-0.002501915490149154","0.009181241774877131","-0.14789652936428965","-0.2894263825479993","0.7784423901620854","-0.33700835526737155"
"0.089849195161678","-0.032219192354522815","0.025934554834381698","-0.022443925592899316","-0.06135783830732623","0.024222424183060573","-0.30530876300552295","0.7846693278686173","-0.3337233224534468"
"0.0862161889719908","-0.041071142109434786","-0.004796603932997735","-0.04239017179388697","-0.0965799910667376","0.17780823840428406","-0.28315702184108216","0.7747616367296227","-0.33570087952053584"
"0.07595340141825942","-0.05030222371843534","-0.021420025148884306","-0.0721150656762836","-0.0884667140500627","0.2813269585095581","-0.22890615385722546","0.7484026927939222","-0.3274637823154708"
"0.06685572153954471","-0.05287201058696998","-0.0341068692096105","-0.09895941275718616","-0.06997849429967522","0.3668988743672995","-0.15732398649691304","0.7152099485785959","-0.31128376994837875"
"0.05068035674301523","-0.05989477898558061","-0.05371024277699012","-0.11074346785420752","-0.05080579159153874","0.466061338404376","-0.05684703223405376","0.6596160598173136","-0.2909361786382479"
"0.030612313382654265","-0.07174654461613043","-0.05218815193004968","-0.08964769863150061","-0.042120516578702964","0.5825760202061392","0.04711290019931546","0.5947345351547636","-0.27470713593064955"
"0.007854152805537156","-0.09560276733627397","-0.05607082600365626","-0.0641194302530187","-0.051361036508314126","0.6151205293284396","0.12833595113559818","0.5256445504744517","-0.27616170269900425"
"0.0001275276571949447","-0.10864386439951265","-0.030806596247044907","-0.017794807777252564","-0.09579498963267585","0.5154241508986035","0.19685309770586207","0.4490083616243597","-0.2908544614040706"
"0.019902873940285372","-0.09638388282743732","-0.04360289867261214","-0.022713495480739674","-0.09916475188620927","0.39929777047339277","0.23006677753984123","0.39011630670495684","-0.328607823593952"
"0.022742228153676176","-0.1222926111467015","-0.05598408541265016","-0.09862245039738571","-0.10859912887728078","0.26402327841694045","0.2563423648581651","0.3443509530948743","-0.35912103883573065"
"0.036113863052140545","-0.13850698989279112","-0.1003333104427713","-0.03399018153886151","-0.0894910451896311","0.12093907492457744","0.2627510446919026","0.32743795703603146","-0.37749107307877255"
"0.032106608987666985","-0.11667314996692282","-0.10530024190395419","0.080552952053305","0.0450529353550335","-0.0469794284819169","0.26553742722831025","0.3227149830976026","-0.3801877418066212"
"0.03316378461544017","-0.09375385034921185","-0.07690095935812222","0.14193979201215115","0.048506463005494244","-0.1579972189218597","0.267627214130616","0.32541947934726156","-0.38679049432814155"
"0.029426119964242103","-0.0936333591298303","-0.046638819357825795","0.11785179703441627","0.04884391789025859","-0.1942354448886151","0.2624445426128979","0.3343904912973499","-0.39017358782307904"
"0.030580540344661084","-0.09270059089703155","-0.05060410351810486","0.1235609021590353","0.017429500745457776","-0.2763708935638676","0.2542525779558593","0.3569103698249978","-0.3965638755357386"
"0.029004405096332585","-0.09203581175561595","-0.027047837303447043","0.08484200151876499","0.0043087283004675635","-0.32405915637171273","0.22909154365209836","0.3947997026494882","-0.397495452005359"
"0.02554210677440878","-0.09303194175033089","-0.024247355365249953","0.039198043009795756","0.001481047829906678","-0.4021077330587509","0.1982462889740657","0.4384542299183735","-0.3973320175370046"
"0.02337287481687419","-0.09784224206891777","-0.01864226098452215","0.05305297249519074","-0.030771262613872866","-0.43443382265674063","0.14497065487795158","0.4962381010086478","-0.39399795438257346"
"0.0353638267916348","-0.09009133276697535","-0.003970709591489612","0.04480413392727577","-0.0330594939282218","-0.454309999369018","0.07703864864033344","0.5550641926048882","-0.3992932311572582"
"0.04129383106436249","-0.07971766200866677","-0.0069405422073652865","0.00809198855205704","-0.030891884785448208","-0.47695282338923156","-0.021264927244128037","0.6254866364130809","-0.3992932311572582"
"0.057910167115464026","-0.05937749771616661","-0.015796343498655198","-0.027001582196600232","0.013741669313306046","-0.4327592729703582","-0.11669852911608972","0.6870172242589802","-0.3814461872129506"
"0.06817863530326086","-0.05157465254380112","0.018564702477113025","-0.009662461910868612","0.06847374033591273","-0.3377710487312204","-0.19917545219375574","0.7348802115456275","-0.36217726339395917"
"0.07484230790783114","-0.03813780414793849","0.0367767156597114","0.0065643937626416946","0.047498884945311313","-0.21211186951164757","-0.2645439864978791","0.7638644957431919","-0.3509166285243365"
"0.08532067071024961","-0.021013508952036266","0.020892861244760207","-0.012908853560146073","-0.01872531987631295","-0.05891969581090408","-0.29954095115515905","0.7803817118630605","-0.34537620004712016"
"0.08768140743314312","-0.028832973602937146","0.003654614458813702","-0.03755428055595083","-0.07840050663645366","0.12058232303486989","-0.29341090957506233","0.7768064997476576","-0.33331473628256064"
"0.07970358272078813","-0.05172526656802809","-0.017126365894082136","-0.04827449734560221","-0.08970883522164214","0.24206968934010753","-0.24565231290103526","0.7576903286951902","-0.3332820493888897"
"0.07276550660627673","-0.05928712930163043","-0.02173807398257336","-0.0868537992939552","-0.060682928537797526","0.3141384248282383","-0.18811351352421748","0.7308168708388227","-0.32605824588762244"
"0.06080055075351055","-0.05066681352880545","-0.03539558656170119","-0.09875723534130589","-0.044042334113921236","0.41718390263083904","-0.10811647090395426","0.6904209317341607","-0.30427243125597225"
"0.03841114998098098","-0.06511017909346761","-0.05372056903782419","-0.11301555690886197","-0.023352041743167205","0.5375330605260574","-0.010370171526774252","0.6325051339975617","-0.2821760911344486"
"0.010246758848357141","-0.09129209009115727","-0.04330963286492483","-0.08643211496940491","-0.030065239982628292","0.597816849235822","0.1003328066447014","0.5537185408123749","-0.2602104985876085"
"-0.001457272965131695","-0.10448899476566521","-0.0504388833447599","-0.026074454332349284","-0.08844996097067724","0.5418771821762377","0.1783515176641154","0.4781641504621465","-0.27058858732811697"
"0.01787421360538729","-0.0975846401516192","-0.060965473639000727","0.012183289249794135","-0.102474681713366","0.4732691827066305","0.21939493242539998","0.41545941546395615","-0.3096330818179987"
"0.026218005946263757","-0.1123728598958907","-0.06089732031749594","-0.028331139393412856","-0.09634544795534111","0.41553362178049125","0.25514422036751","0.35782066368463916","-0.34802383843446255"
"0.03551980352360134","-0.15147018315039515","-0.09147544389931458","-0.079829578216515","-0.12089110255210153","0.16976069237523497","0.26929904365246043","0.32652766317639015","-0.3674561967218084"
"0.03871732652891529","-0.13666846007981365","-0.08927388508949298","0.07235802746295811","0.01912874165455488","-0.049792186578318555","0.2638934615318298","0.3187176057139604","-0.38803259628763553"
"0.03302321299280367","-0.0909565843682241","-0.07889805820342943","0.14509761069828106","0.04736725360728267","-0.13080641502877588","0.2667077078936017","0.3165012380557033","-0.39582842042814353"
"0.026132315025615478","-0.08309245486875934","-0.029728534615969037","0.1047776574741589","0.05881918001577511","-0.20459338410815112","0.26977272868365004","0.32527436003630433","-0.39048411331295246"
"0.020345770833523673","-0.08986696980674759","-0.04416877776631863","0.09442521103148974","0.042372442653359196","-0.2524175523977897","0.26063339396423285","0.3484011011370465","-0.3835054615142168"
"0.0254747094210899","-0.09453600455778366","-0.0072848197435728505","0.07110163923570216","0.005004220424669843","-0.32634042695895826","0.2408500779557386","0.38665982857124637","-0.3832439663648497"
"0.026679196406831477","-0.10280627256395698","-0.027345233615467972","0.055941221293480295","-0.0012590379684387775","-0.39652590077080974","0.19782833159360463","0.43642255956497117","-0.3834564311737105"
"0.026615650330845106","-0.1001887046946331","-0.017921487978304763","0.04057284943778158","-0.040505041066533194","-0.4423697320400309","0.1433545530068354","0.49511672451488675","-0.38630019092307816"
"0.03189767719237849","-0.09075818934320785","-0.011969431233552538","0.037639351408318825","-0.05383091906914259","-0.4828986882176906","0.08353091995016339","0.5564098443974014","-0.38623481713573643"
"0.04510852126221069","-0.0811895245764572","-0.01946216609474652","-0.0012231914721864256","-0.042395745740035594","-0.48932992976684014","-0.012794324333448693","0.6224523235476099","-0.38631653436991364"
"0.05776381857682876","-0.06030714979673998","-0.01642418015736605","-0.024140290387094712","5.81952516378428e-06","-0.4346279733450168","-0.11026198545698797","0.6860937377347065","-0.3692212889800366"
"0.06889497288710718","-0.04827776348934317","-0.004845756934567862","-0.005292926578896292","0.08953475442049655","-0.34888617563503366","-0.21079466737057578","0.7419514797886383","-0.3487266066483867"
"0.07468729399519773","-0.040278600726778385","0.018706791826189693","0.004555039073671653","0.06107605913870267","-0.21924933418940185","-0.2809000519865919","0.7735479115834345","-0.3358643139888903"
"0.08511173891496111","-0.018543438954713963","0.028613599945170237","0.012052355304271675","-0.004070922678436223","-0.045365550885620866","-0.3082066008433867","0.786740576215917","-0.3294413393825598"
"0.08725584128790109","-0.026517672499475665","0.012292510993983277","-0.018978989784551283","-0.07173278104103883","0.12381007822746197","-0.2966709771426593","0.7790888307290772","-0.33475295960407997"
"0.08015129371069207","-0.044917512672969055","-0.006579949179039909","-0.0566533071094402","-0.08022659228946928","0.24875818055122312","-0.25069566529193316","0.7595900724022677","-0.3312227750876235"
"0.07276743224494299","-0.05507720764513451","-0.03251662504116525","-0.08947440370360324","-0.04088078870417861","0.3397663156806986","-0.1688038825469124","0.7221229048460168","-0.3263687713774959"
"0.05935632175382041","-0.04768569456651991","-0.04962723924320278","-0.09622520389480538","-0.012316309692550787","0.4569119872193594","-0.0808099220471593","0.6759353859676948","-0.3018699445711616"
"0.031051358998560066","-0.06443397406055894","-0.06401378583721526","-0.09589786903099921","0.035434274490721875","0.6024521969184166","0.01423358626970522","0.6186792214627198","-0.274576388355966"
"-0.009390904270096156","-0.10789598786542011","-0.03423491484395284","-0.03624494110072623","0.000448579480351058","0.6563532817511005","0.12159290539749176","0.5355390489488138","-0.2622370859952038"
"0.0009324446196889174","-0.10425008976171896","-0.018101164916817403","0.026252911895861975","-0.1168607903113698","0.5575791190905764","0.19325866423389615","0.4530980876604293","-0.3004644081433132"
"0.025035663805184103","-0.09505432454460613","-0.019955761362614594","-0.033869837838932784","-0.13891023607969602","0.456984793727463","0.24346927753996192","0.3734275859448662","-0.3479584646471207"
"0.024030480421399773","-0.13209810348258144","-0.04472639585135787","-0.13314665103294016","-0.16281209376864356","0.33653856048810654","0.2666241164175092","0.32833505823104026","-0.37633068835345584"
"0.040832640603794775","-0.16420485857813755","-0.10246052017458769","-0.09775597575789885","-0.1414208046904606","0.07573351404306437","0.25990893450476676","0.3191001929883024","-0.39579573353447256"
"0.03404572712458427","-0.12242764440980151","-0.1031007483462994","0.09668189609255329","-0.027967754443568152","-0.12266179365558867","0.2584878794111991","0.3223060104939957","-0.40336274941928435"
"0.02495960107786709","-0.08425893451846202","-0.06927811361041908","0.162253808560121","0.05348930747414236","-0.15668670177599522","0.26013184510767956","0.3238099742620988","-0.41655191101548966"
"0.024981745922528994","-0.07919726458702737","-0.03530265021419466","0.10526865976986811","0.056796844004244056","-0.1993343273394692","0.25698323284153873","0.33818997871150486","-0.4116815638585266"
"0.02381095761344687","-0.09083401571402558","-0.03386523470609349","0.0767693461275457","0.030875043600820492","-0.3024841611370184","0.246840800409015","0.36522174854346195","-0.40877243032181715"
"0.02266135132969353","-0.10272317517128005","0.021578318438925118","0.008273948226349281","-0.029856305149721003","-0.38846864720734686","0.22237636173935588","0.4016730809230117","-0.4045885079319428"
"0.02371756413813357","-0.10792714938767398","-0.019763692911101072","-0.0015603463819067597","-0.03930360594488988","-0.492314996599087","0.16712239604239235","0.46643587160386923","-0.39440654055345964"
"0.02251211433305888","-0.09223109062840677","-0.02990821155448168","0.016944086018974746","-0.02066819842561581","-0.5346883843153707","0.0862058471851146","0.5407501514786445","-0.3834074008332042"
"0.04345054637056642","-0.07321944590132937","-0.046021308959949","0.014591125997968192","-0.018205735085658047","-0.510977731509638","-0.015580706869856645","0.6248270031814567","-0.3752193339686455"
"0.0489376537500558","-0.07155126574333961","-0.039639679764499884","-0.007289091598354143","0.029317007217972296","-0.4712981845931868","-0.11424651248405102","0.687940710783254","-0.359022978154718"
"0.07306012932221352","-0.05712867452684669","-0.013999574113528748","0.000910743014949839","0.05382197576479658","-0.4095582657213506","-0.20834265073853708","0.736832725911235","-0.34526179591927203"
"0.07627883435285626","-0.035930529654957036","0.012770017947471882","0.031424802743999135","0.09164085582895493","-0.2471026773062283","-0.281624511446058","0.7721362964677587","-0.3360604353509157"
"0.08309559523139369","-0.012691305075439842","0.016073388788287696","0.0020588219122699364","0.0384474354830504","-0.08187801469956642","-0.31940785863974547","0.7900255497094052","-0.3284117022319267"
"0.08878489467083968","-0.019790938562276657","0.021642134730879607","-0.008870985465177332","-0.005994894181004057","0.0829025282076636","-0.3247019854589199","0.7899200083923454","-0.31708569357496225"
"0.08246783702619503","-0.04059021594931695","-0.002461010257550029","-0.011328981467481685","-0.08833508271203407","0.2523499682843331","-0.27758425676826687","0.7711600392849549","-0.31904690719521583"
"0.07234571737703346","-0.0503551983062669","-0.024790516685121514","-0.05902263387363706","-0.0741811239283717","0.35515275772658855","-0.21137980770322118","0.7382839190208081","-0.3275618429964835"
"0.060798625114844296","-0.0487836188672641","-0.04680403953117075","-0.10721980432029427","-0.018397198850063353","0.44815093741089523","-0.11845395011402658","0.6949855936969997","-0.31072809275597363"
"0.035395599829627984","-0.05562045684976007","-0.05809890363146565","-0.12869874788357424","0.024331769452269107","0.5577490009428182","-0.016472349281506746","0.6352624009057506","-0.27663566265723216"
"-0.000231603954061336","-0.10248427016733382","-0.04807003910942652","-0.06908144168848014","0.0077811629976633195","0.6441945948978026","0.0987724324243131","0.5524520450076565","-0.2551603735154555"
"-0.0011780553585249369","-0.1172652188897461","-0.022260582780776795","0.026124866199137807","-0.06936341695652316","0.5934969964216762","0.18046916839178515","0.4652221464576809","-0.2805744333445748"
"0.021568551386594657","-0.09720031471048832","-0.02549476767400441","-0.005943167658351212","-0.08712407440217047","0.4796033489116419","0.2309862837768556","0.3970688409662752","-0.3140458124635692"
"0.019931758520279175","-0.12635399621378737","-0.03481318545066021","-0.12679250367670314","-0.13405184305791135","0.3549586070383124","0.25887797296629594","0.3516333039720047","-0.34057122667749884"
"0.03637189863341851","-0.15985263263668234","-0.09303264403309085","-0.10358061083444944","-0.20138486240514783","0.09231398282185307","0.26146930872515534","0.33242478426711","-0.3598401504964903"
"0.03409483091057374","-0.1279536210228186","-0.13692131783001293","0.09514438498226382","-0.009591540995357757","-0.11594175295762822","0.25277579521156346","0.3311714811270241","-0.39028799195092717"
"0.035625713650245285","-0.08615043891927104","-0.08356139759609095","0.13299584823344782","0.016530817701280363","-0.16478035859350992","0.25338879936957315","0.3351292805167689","-0.40221870814080307"
"0.02899862818033383","-0.08513976688083764","-0.06543261407581512","0.10309284567515666","0.06189696002859043","-0.2217199016977167","0.2512711486419031","0.3501821108624316","-0.39206942765599084"
"0.023068623907606146","-0.09730418645133453","-0.05923272707104545","0.1280569427883727","0.07836763036155699","-0.29061670031613485","0.2405435758767336","0.3766597887798245","-0.38806528318130645"
"0.02424133785535453","-0.09957690014104906","-0.005504778900997575","0.096239994026415","0.04810917569435323","-0.37050970854179704","0.2168035966665406","0.4145623142689473","-0.389405445821813"
