"AccX","AccY","AccZ","GyroX","GyroY","GyroZ","MagX","MagY","MagZ"
"0.06382380345952857","-0.05599024024717248","-0.021395242122882564","0.0033849132105246127","0.038236825342204565","-0.4218625655908557","-0.16437353431402446","0.7126109936459967","-0.37271878660282215"
"0.07439941101459284","-0.037956028601457664","0.01920307192187462","0.023917281367645156","0.05749808004137848","-0.30015435287770387","-0.24707336799460317","0.753152052061616","-0.3625041323306681"
"0.08337096156066794","-0.02039131722436761","0.021782778403439507","0.000497338336954661","0.02198633833830409","-0.1535293262079033","-0.29530564969981926","0.77676692175376","-0.3503446078850959"
"0.0911648877803957","-0.018185081448794622","0.02423733060369558","-0.007066407616006019","-0.040643852295727034","0.04443884997654208","-0.3106028898246973","0.779167986716872","-0.3520116394623114"
"0.08478630598036427","-0.033483311440620896","0.004790503150560309","-0.023280554994803856","-0.06216916600899373","0.21569431833778385","-0.27215081082227194","0.7624792659567813","-0.3541853178914258"
"0.07255753763032136","-0.05512602736333222","-0.008112985862464466","-0.06827947127215508","-0.05233271511267106","0.3154246731380682","-0.2005407796365956","0.7300516962901389","-0.3494293748623109"
"0.06449007443805228","-0.04591156523286705","-0.01792355323047157","-0.08822282922434443","-0.045885172846322334","0.4074278305449593","-0.12079451144460918","0.6905528583804855","-0.33249756394078833"
"0.04542914010014191","-0.050182771216462224","-0.04980691618171542","-0.13586160490333235","0.003399754078953366","0.5259082880655191","-0.031017266121554633","0.6436265502827445","-0.3033245113395163"
"0.012119442451288678","-0.08818944119208169","-0.051680099897013915","-0.10613189727293855","-0.008879056462064506","0.6149749163122324","0.07436372140538221","0.5710932801333546","-0.2748051966116622"
"-0.007320842703873633","-0.11487616885028382","-0.04589326332560666","-0.02797107104322609","-0.05575512990141593","0.6089319761396352","0.1597942099716402","0.489166832765637","-0.27851515904330854"
"0.013972869667557689","-0.10255698038592613","-0.049683001051706706","-0.02113362338807529","-0.0945050025199951","0.47797733689732863","0.22750330560634582","0.4062905135443807","-0.3097801728395177"
"0.02477762822390613","-0.11278834685927544","-0.04471813484269062","-0.08687401703554322","-0.13047147066353207","0.3660737339421256","0.2563145010328012","0.35593411264219416","-0.33926375093066313"
"0.03364423146267042","-0.15030681965291784","-0.08903638109030959","-0.13094195445024578","-0.20685354617597443","0.15152266209528809","0.26043834718668457","0.33375724339499063","-0.3617359903294021"
"0.03623132701078201","-0.14677518046414753","-0.1231791299120458","0.045108362800695606","-0.010814755120202165","-0.05724999989172863","0.258097785856102","0.33205538965740045","-0.371836240473708"
"0.03234346254361617","-0.10108200166591029","-0.10610155974467725","0.1661433169418176","0.054532784990151274","-0.1273578134282696","0.2617200831534318","0.33074931585878464","-0.3849273413889007"
"0.03434323829852044","-0.0821731899622706","-0.05099650142979915","0.15352166969329226","0.07236524134745062","-0.2132379435036496","0.2540296673529468","0.3454855222532678","-0.38321127947117883"
"0.0232400057489027","-0.07978933350985064","-0.05045953586642802","0.12649728843729635","0.07420568678279661","-0.2623192374998766","0.24363646049214624","0.3660133084214109","-0.38082513623320363"
"0.027693045164613947","-0.0994179763775544","-0.021702964695737556","0.08182281877495298","0.03250727219237574","-0.3077990362285798","0.23488721932782616","0.3894039028148028","-0.38548301858130585"
"0.025079953494507937","-0.10901780266655889","-0.025244872161820156","0.06291441664215071","0.031131126385712592","-0.4112570842437675","0.19869211017989108","0.43848061524763843","-0.3820508947458621"
"0.02436554154932788","-0.1083426363510587","-0.011996279511721095","0.050825169922110065","-0.03764744438278397","-0.4768314792090589","0.13989943866168986","0.5013832402153161","-0.3824431374699128"
"0.033059800127462485","-0.08589906930642327","-0.001994469793067198","0.052832502836921306","-0.04326929916513482","-0.49784829121495916","0.04513456859846607","0.5771355205350317","-0.38556473581548306"
"0.048316635280189035","-0.058097797868941606","-0.013790983644680734","0.018549952350823736","-0.011320458787937682","-0.4453790677083122","-0.04096465177653011","0.6409748246916156","-0.38803259628763553"
"0.048892401241398833","-0.061219143681369485","-0.005763141947065756","-0.030324031064232645","0.02174700863279746","-0.3991954727346077","-0.12360875780638045","0.6913576109230671","-0.37518664707497457"
"0.06817670966459462","-0.05135652188802413","0.02338045747968528","0.017086572959690363","0.03738481159060095","-0.3287187728903419","-0.20552840437676517","0.7369514598929273","-0.35781356308889495"
"0.08077231218055882","-0.025290947240082205","0.035549955872625064","0.023890324378861124","0.010329306372192456","-0.17917905901279468","-0.2682220114459371","0.7629146238896533","-0.36444900250408624"
"0.0927675005603852","-0.009980252639354386","0.03143803880850235","-0.011612992599313492","-0.042149236143363765","0.015238101083078751","-0.29458119024035345","0.7747088660710929","-0.3568819866192745"
"0.08530333996225334","-0.028851670516289462","0.017486847371253837","-0.046815931702465986","-0.09256882520244641","0.1873094877118013","-0.26774832641474783","0.7628486605664909","-0.3547736819775019"
"0.07545273536503351","-0.047763598372154555","-0.011054524523654815","-0.07165005761975898","-0.08346472320497406","0.30552298803598127","-0.21784421518768687","0.7368723039051325","-0.35431606546610944"
"0.06498977767194507","-0.045972849559966306","-0.028706234793397088","-0.10500548024160562","-0.05974475609221151","0.40830150864220227","-0.13801435551960797","0.6977164752759237","-0.33671417322433356"
"0.045656365462759814","-0.04156245544363724","-0.05438144973120403","-0.15204542566974813","-0.00766924480072847","0.5268062349987965","-0.03578198025881198","0.644154256868044","-0.30518766427875726"
"0.0013069813402752245","-0.0774615677974876","-0.07624007866474238","-0.1160771006350489","0.018724274452248665","0.633103736830024","0.08966096153026014","0.5640879752135064","-0.26797363583444556"
"-0.02051146756771017","-0.11100175291672107","-0.04511466325871853","-0.00621658854458929","-0.03029715046726422","0.6231535140558678","0.17316884614639694","0.47741216857809493","-0.2731545084812821"
"0.01469113289007025","-0.1073974035093584","-0.038574009646424885","0.007523292363673827","-0.07988435081059479","0.531247431993115","0.22271072764372482","0.409443560391544","-0.31147989131040416"
"0.036722364870676656","-0.1328044313203355","-0.03667810815729146","-0.0539730122246275","-0.08843081459423671","0.3980843286716665","0.25238570165646634","0.3524776345084837","-0.3502302037572478"
"0.04085959954512232","-0.15497066081691163","-0.06318561971832364","-0.13076865952234842","-0.1412939599465421","0.1940368090605721","0.2713609667294023","0.3220553498659785","-0.366965893316745"
"0.0417261369449364","-0.1437317384573543","-0.10352205978832904","-0.02912059406494533","-0.06325811616904892","-0.06862237645750788","0.2686024480183586","0.3186648350554305","-0.38956888029016745"
"0.030739405534626996","-0.10967219463388989","-0.11392060444822755","0.14974769126352724","0.02857987172501187","-0.1528692138677642","0.25885010914093204","0.32164637726237155","-0.39465169225599134"
"0.03204113727301437","-0.07515665386811073","-0.06276843878062761","0.14167984962030508","0.048927683287185914","-0.17994110046427883","0.26687489084578603","0.32691025045073213","-0.38649631228510356"
"0.016321186021053844","-0.07587129144513248","-0.052696203963085435","0.08295501230388247","0.06685826482374295","-0.2795986487564597","0.2600482536315871","0.35144860666715","-0.37577501116105066"
"0.01809855051000583","-0.10013676882421002","-0.02359886618487098","0.08372136098502864","0.02939598602078949","-0.30682828278719876","0.2398469802426318","0.38476008486416885","-0.37100272468510026"
"0.022566032215713978","-0.10670146284568896","-0.010047301041900594","0.08081385719475048","0.023903369279412234","-0.41664476584343246","0.20426487525270637","0.43072332844373856","-0.3753827684369999"
"0.02250056050106136","-0.10165329624056431","-0.012337046119245076","0.04779058318470717","-0.04707224818563524","-0.49682900010150904","0.14171058731035494","0.4955520824477587","-0.37830824542054486"
"0.030151122922086552","-0.09671938855037049","-0.018514215350179806","0.03056025360371113","-0.06795137169403401","-0.543497971795904","0.06725844593754289","0.5668056641277978","-0.376118223544595"
"0.04679538073384877","-0.06134482848779338","-0.01617841514951542","0.027161747517723756","-0.04207983052876684","-0.4864419382787315","-0.03413801456233152","0.6368982913201784","-0.3794686301458616"
"0.05005259853781658","-0.05398967051847495","-0.016021455984837705","-0.0064454341243737655","-0.002388434848724585","-0.4157710877461895","-0.1280669698646328","0.6927428407094778","-0.3746473133294048"
"0.07193940761845398","-0.04181901864352732","0.016315849392671427","0.01318551158280061","0.06177729517583711","-0.33932425423743007","-0.2311631237117154","0.7448010953492545","-0.3659525996129473"
"0.08416143623316501","-0.02499179662644519","0.03227859644039484","0.014538174769999548","0.045778104362718605","-0.19209007978316292","-0.2996802702819794","0.7731653243090922","-0.36793015668003637"
"0.09190057803283787","-0.010750980956433086","0.03109314169664474","-0.005581655183765303","-0.02325989980654715","0.012924795632267658","-0.3148660551054011","0.781819712308001","-0.3556725715534515"
"0.08898371686313035","-0.027629100126529853","0.017781145805024552","-0.034256863177903586","-0.06075472744944952","0.18630718478357536","-0.28900842516753816","0.7703289014131085","-0.35534570261674253"
"0.07624513567619683","-0.052059733573552806","0.002683945940412056","-0.0704312166268808","-0.0810498864764121","0.3191378050513508","-0.22230242724593907","0.7431520122701942","-0.34970721345851347"
"0.06397785455282884","-0.049470211074257385","-0.022588957875299905","-0.08928666753171442","-0.06216198611782852","0.40864127234668557","-0.1341134199686374","0.6956584195932564","-0.3418787024243346"
"0.046869517822499526","-0.050417521350774604","-0.05253304904190728","-0.1475878950243879","0.0003483003337437784","0.5079493493999693","-0.03458383576815657","0.6420830085207442","-0.31103861824584705"
"0.011992350299315951","-0.07646855395499806","-0.053627632690317645","-0.13115375936212037","0.0027033046359290595","0.5837894620078654","0.05828629417031029","0.5840220914731876","-0.2714547900103957"
"-0.00552037055092659","-0.11627843735170731","-0.04861320042929808","-0.03616792113277184","-0.05809577442127081","0.5821634499935522","0.143995420990209","0.505591700233078","-0.27238636648001613"
"0.016852662292939805","-0.1062236528377965","-0.04898288056715743","0.009741082340920432","-0.09702753761603501","0.48870416242458947","0.20629893450428397","0.431171879041243","-0.30901203083825174"
"0.029692820919518217","-0.104031959105942","-0.0512815062288192","-0.057363816313819434","-0.10808935660455164","0.3791546365647356","0.24792748959821398","0.36714787757980444","-0.3377111234812957"
"0.030284954809391168","-0.1347987687445823","-0.07302861154534969","-0.14282228450721016","-0.15464377091970213","0.20378074672843466","0.26041048336132033","0.3372137215287012","-0.35237119529269123"
"0.037842123755103076","-0.1398469353497069","-0.09253285300872233","-0.028774004209150585","-0.07295336253912267","0.023984346901561863","0.2542525779558593","0.3332559221389564","-0.3693030062142138"
"0.03025221895206486","-0.10646255784174273","-0.08367911696959923","0.08432211673507287","-0.009787552024167692","-0.08861989734995795","0.25411325882903896","0.3327677935475545","-0.37633068835345584"
"0.03575376862155114","-0.09384006389411421","-0.08341063418791367","0.10041640178874167","0.003498836577033112","-0.13721581462549443","0.2494042723425101","0.3370158315592139","-0.3831132187901661"
"0.023993893286740956","-0.09603071890856026","-0.08400336155978873","0.12231895517577078","0.06900026568802732","-0.22172232858132015","0.24932068086641795","0.3561715806055788","-0.3793869129116843"
"0.023502855426846308","-0.092960270249147","-0.06348301603034458","0.1339200878489005","0.08549008239743443","-0.31299256713996854","0.23463644489954968","0.38283395582782637","-0.37698442622687367"
"0.024024703505401007","-0.09084855775774406","-0.02981527520697514","0.10588481951350324","0.07467477300558964","-0.37786316586025864","0.2176395114274631","0.415155984177409","-0.37982818597624135"
"0.01873978818586825","-0.10370995670931883","-0.028222965786363078","0.09948253467729473","0.03971588292223555","-0.47282712126336196","0.17344748440003768","0.4694701844693403","-0.3762162842256077"
"0.030459225108687114","-0.0889954859010481","0.0008264581415813326","0.11169982709405954","-0.022287503213073694","-0.4848644639364873","0.10180958938899753","0.53259708473577","-0.3948805005116876"
"0.037539798484501265","-0.07994306368630298","-0.004423412866454804","0.04454804253382743","-0.02955714301783771","-0.4718563678219809","0.007351221404778427","0.6032965745012451","-0.40270901154586647"
"0.04507193412755187","-0.06089714128474631","-0.0014250797706771238","-0.009259069828707505","-0.011612441028655777","-0.44780595131176487","-0.0921226351449742","0.6677295485662904","-0.39819822021928325"
"0.0664523002389646","-0.045515813900243084","0.01640568786192775","0.0035681244592961135","0.06450565381861274","-0.39317680139804506","-0.17326209460516476","0.7158168111516899","-0.38592429164586295"
"0.07657249424945992","-0.03652363729518876","0.03657225569519701","0.002434968180767179","0.03649689838317132","-0.2560821466390032","-0.2484386954374429","0.7527035014641117","-0.3763633752471267"
"0.08986700731934083","-0.02083588827518929","0.03497788102241813","0.013736204353674482","-0.035605961994812384","-0.0772426670169718","-0.2947762370179019","0.7692339102486127","-0.38025311559396296"
"0.09477134904106858","-0.017500566676618257","0.022211318228053","-0.010439400837608501","-0.07745515429970246","0.11507087037142884","-0.29681029626947963","0.7669251939379281","-0.3791417612091526"
"0.08174090842968433","-0.042932523705398434","0.003549286598306289","-0.07280631988867424","-0.04385326364657101","0.2521800864320914","-0.24802073805698163","0.7480992615073752","-0.37097003779142934"
"0.06960360791628847","-0.05262479584375606","-0.010058453403601383","-0.09514788709304337","-0.04655768931879597","0.336514291652072","-0.18240142932458184","0.7194711792548877","-0.35961134224079405"
"0.05718997825428521","-0.052137637379187446","-0.030874749568549704","-0.11706873272246164","-0.025349966124736587","0.4468889579370999","-0.09510406445893041","0.6771227257846182","-0.33102665372559814"
"0.02945789300223529","-0.07035777944101694","-0.04864211395963344","-0.13595787986327532","0.012432296494479252","0.5428722044536533","0.002224277537788192","0.6161066518593856","-0.29546331341166654"
"0.008296086879442333","-0.09183949416541669","-0.03949304686065624","-0.09305968321188002","-0.003354369540149361","0.5734752066931915","0.1112275623620555","0.538797637113037","-0.2601614682471021"
"0.006329046981864373","-0.10330485692001869","-0.04225015850335027","-0.0511223106607157","-0.07813006406923118","0.5464154545146942","0.18737939708207588","0.4644305865797319","-0.2703761225192562"
"0.01973630619565444","-0.10592242478934256","-0.05273337850208804","-0.060924064332511026","-0.1144076608299268","0.4576157834643607","0.22468905924457452","0.40338812732523444","-0.3001048523129334"
"0.02677066424347851","-0.12526334293490243","-0.06060611976197544","-0.113564324180537","-0.14881130599650547","0.31957464409997227","0.2538903482261264","0.35598688330072403","-0.322822243414204"
"0.037987509474405205","-0.13875628207082194","-0.09468071526220682","-0.11009842562258952","-0.16870199782116188","0.09934709150465894","0.25815351350682986","0.33941689652232576","-0.3401626405066127"
"0.030050026892108242","-0.1307373836774964","-0.1311881778149428","0.046221301337636515","-0.04612450255182896","-0.04558882417713851","0.25355598232175747","0.3370554095531113","-0.35908835194205974"
"0.03430376270586225","-0.09512703476319845","-0.097667069895417","0.1616183938244973","0.027536394209002942","-0.10163770099887813","0.25650954781034974","0.33539313380941854","-0.37173817979269536"
"0.03246188932159077","-0.0813557193618111","-0.06926778734958502","0.14195904700413972","0.06839236823604049","-0.193420011997855","0.2614414448997911","0.33931135520526595","-0.3763470318002913"
"0.02119112620800897","-0.09480918723620912","-0.06450325060074971","0.12750817551669769","0.07364326197485603","-0.27086186778403","0.2467850727582871","0.36125075648908467","-0.37757279031294977"
"0.027273255935370687","-0.09298416074954165","-0.016128849097511933","0.09864494252579074","0.057100792730237465","-0.329689526331723","0.22956522868328766","0.39634324441148866","-0.3756442635863671"
"0.021767854988551893","-0.10340872866086485","-0.03212422712947097","0.07991079807048529","0.053216471609864785","-0.43137594931639023","0.19055587317358066","0.44805848977082086","-0.3731927465610501"
"0.019178833801774046","-0.10568351978539635","-0.006615471516309077","0.07662974743562836","0.008593448018152839","-0.4838694416590717","0.12816876818341355","0.5119901425798321","-0.37191795770788527"
"0.03666363289135593","-0.08770228272751307","-0.001873446016092012","0.09601278512094955","-0.045133677571031504","-0.5130891202446419","0.05742251558402383","0.5747212629072874","-0.3837342697699131"
"0.04123028498837612","-0.07118459849815258","-0.009026033845412054","0.027177151511314633","-0.04989873200766859","-0.4930187928440882","-0.042859391901287035","0.638745264368726","-0.3976915733673844"
"0.06325862851098316","-0.05041336648114075","-0.01382609293151654","-0.02317080154046885","-0.013026879588199985","-0.4418115488112367","-0.14971716217252015","0.7011729534096341","-0.3897486582053574"
"0.07339615326947475","-0.03704507343423662","0.03336698433230477","-0.0038555414269475234","0.035386408549620545","-0.33085443046138024","-0.2606987785976364","0.754049153256625","-0.3750885863939619"
"0.08537940268957035","-0.029964136860752114","0.03198739588487434","0.014435160562860556","-0.0017709642085174688","-0.16717811959372117","-0.3226957900327065","0.7799595465948209","-0.3733561810294046"
"0.09491064011399204","-0.02271388934968833","0.029749282111700165","0.011211874903969417","-0.04623459421636202","0.03678688597485578","-0.3387732172677784","0.7860281723257629","-0.37160743221801185"
"0.09021121523093364","-0.02600142994747012","0.015056871671782823","-0.03645000676540478","-0.07932431929970928","0.20286095784272604","-0.3077050519868333","0.7737062235590241","-0.3748924650319365"
"0.07567322099231953","-0.04512629487206988","-0.011031806749819887","-0.10025912471641645","-0.0571576019756848","0.3150849094335848","-0.24258729211098687","0.7462786737880925","-0.3580750582382621"
"0.06368034337889267","-0.05443216413447969","-0.024478663607932903","-0.11875354452146389","-0.02997285871630273","0.4015790410606383","-0.14612272870055443","0.7010410267633093","-0.34068563080534703"
"0.04122547089171049","-0.06499592017853681","-0.042014719756333696","-0.12523284932562678","-0.0030891922264480102","0.48503956818337596","-0.05066126300322849","0.6509616718184051","-0.3087015053483782"
"0.018637729336556816","-0.07217034131878289","-0.04595728614277783","-0.09752491585403567","0.004778532512377086","0.567505073028698","0.039951897080747936","0.5962912695813967","-0.2773547743179918"
"0.007362152126309385","-0.08856961176357873","-0.04259712086737468","-0.05091050574884114","-0.025905211041511975","0.6160912827698206","0.13087155924372937","0.5180455756461417","-0.2755569951660927"
"0.008040939756163755","-0.11729638041199993","-0.036399299114771834","-0.03929589458131943","-0.08711928780806036","0.5745915731507798","0.19899861225889606","0.4375835140526296","-0.30007216541926246"
"0.020507524481488976","-0.12082801960077025","-0.05031703346691799","-0.046124677490075365","-0.11729397707833682","0.4355554115089758","0.25210706340282557","0.36080220589158024","-0.3328571197711681"
"0.028909085982353037","-0.13562974267135178","-0.08357585436125863","-0.10757602167208331","-0.13754845005536329","0.21554627843797325","0.27060864344457225","0.32377039626820125","-0.3606409793914272"
"0.03720088607924065","-0.13379121285837428","-0.09591780131012721","-0.04909187175551816","-0.07749344705258353","0.02056826554134187","0.2695498180807375","0.32010283550037105","-0.3669495498699095"
"0.037586976631824476","-0.1146061023240837","-0.10660135076904577","0.07083977134465723","-0.03293982907546848","-0.10150422240068824","0.2649522868956648","0.3236384696218765","-0.3728331907306703"
"0.0428054574173715","-0.1010716144918257","-0.0963101992218215","0.1785627867744627","0.0779200838122596","-0.1392471162015843","0.2633919126752765","0.3247730387802699","-0.38474756347371075"
"0.025255186613137","-0.08087583191910173","-0.056564421271524334","0.15547605138013484","0.10330817897240335","-0.21447565414141045","0.26241667878753366","0.33638258365685475","-0.38415919938763465"
"0.002752173159298485","-0.08732107343860757","-0.03365251373291186","0.09393998523337707","0.06678167931798083","-0.32449599542033425","0.25213492722818953","0.369351052573429","-0.3750232126066201"
"0.02438864921332292","-0.0957087165119371","-0.003132836787413978","0.0625466462951685","0.008470671879227934","-0.3855078492111346","0.23243520269578777","0.4042588431909783","-0.3718198970268726"
"0.03189382591504598","-0.09357726838977334","-0.0011520534342245757","0.05816324736896439","-0.0219847511356078","-0.46610465368179804","0.18166731288244023","0.46490552250650136","-0.3715584018775055"
"0.03520881287900139","-0.08998849974353765","-0.021380785357714878","0.02388358513166511","-0.05576709638669126","-0.44465100262727636","0.11529568086521039","0.5261986423890159","-0.3757913546078861"
"0.032899009298830315","-0.09090464849780101","-0.023784738879884065","0.009538327275280506","-0.06005349141231507","-0.460158788853339","0.02086517670635554","0.605974685421639","-0.37242460455978416"
"0.05045601983839669","-0.06894304633069188","-0.030282022196674654","0.02305562047615544","-0.0031870780760002238","-0.4695265595626663","-0.07802353951075167","0.6688377323954191","-0.3696135317040873"
"0.061824990523957415","-0.05130354730019257","0.01126924050289293","0.02793194719726764","0.07801102910035211","-0.39582210452580846","-0.1569896205925441","0.7141809207372621","-0.3644816893977571"
"0.07341444683680418","-0.025325224914561448","0.031888263780867364","0.02033392735856725","0.055545149644444354","-0.2674399619031617","-0.23500833161195808","0.7481124541720077","-0.3630271226294024"
"0.08454656396641572","-0.014553725388811957","0.05240860931031153","0.004270931666879905","0.003965290173065542","-0.09002991672356397","-0.27819726092627656","0.7675716345049197","-0.35639168321421105"
"0.08922008900941299","-0.017326062151996665","0.027103074510363933","-0.01762728934695177","-0.06372002250067672","0.09573588870272136","-0.291098212069844","0.7679014511207317","-0.36346839569395945"
"0.08203167986828862","-0.03950371754006583","-0.005525637947882375","-0.06139388613703279","-0.09068769371716427","0.22148000884841504","-0.25164303535431165","0.7495768399462134","-0.3578952803230722"
"0.07437245207326527","-0.04518654048176068","-0.017097452363746764","-0.10246382129911082","-0.0534527781344421","0.3397420468446641","-0.18925593036414468","0.7232178960105129","-0.34488589664205677"
"0.05662384048640668","-0.04413328102958035","-0.03563515581305139","-0.11347767671658832","-0.04963546933161128","0.48511237469147955","-0.10095546778538643","0.6770039918029259","-0.3181807045129372"
"0.028442118605786562","-0.07313634850865242","-0.05424720834036125","-0.1367665895267964","-0.002908258969084995","0.6116986234475713","0.009441008307084236","0.6103018794210933","-0.290135349743311"
"0.0024315543213672703","-0.10342950300903411","-0.04964376126053727","-0.06997583606635048","-0.02220325915673536","0.6575909923888614","0.12894895529360786","0.5218846410541941","-0.2719450934154591"
"0.012229203855265129","-0.11217550358828297","-0.04486063724220066","-0.019488284322649672","-0.09121421906927887","0.5763631981813003","0.20359614344396848","0.4386257345585957","-0.2931915743015395"
"0.02074630367610441","-0.10647294501582737","-0.04976767639054599","-0.06229598251169856","-0.09619467024087193","0.45795554716884407","0.2451689708871706","0.3710924843049167","-0.3231327689040775"
"0.020418945102841306","-0.12802633124141097","-0.061467329915536044","-0.1417440049558487","-0.16067487949846931","0.2736337374866131","0.26737643970233926","0.3313825637611438","-0.34308811749015766"
"0.03047174176001776","-0.14350322062749266","-0.10994705927928122","-0.08792822784691891","-0.13840285710402195","0.05691788546549575","0.2667634355443299","0.3196542849028667","-0.3535969538053497"
