"AccX","AccY","AccZ","GyroX","GyroY","GyroZ","MagX","MagY","MagZ"
"0.03409579372990687","-0.08897678898769579","0.007991024433468885","-0.013374824366270119","-0.11677702491444247","-0.491392780829775","0.07079715175878026","0.5553280458975378","-0.44994157290030684"
"0.04767636042365975","-0.06890461378657879","-0.016405592887864744","-0.02004090259272241","-0.10697408017689074","-0.4875097670642507","-0.037035852400195274","0.6247478471936618","-0.45252383750030745"
"0.061401350017381645","-0.057661536557387615","-0.006898617588379004","-0.022650916756776735","-0.04482254895387287","-0.44071945118968303","-0.14355925676705947","0.6867269856370657","-0.4434859114003055"
"0.08321594764803453","-0.04228955762956055","0.014342087896849189","0.007396498241428916","0.04562014675708423","-0.3213653155718803","-0.2531198180986078","0.7400649287461932","-0.4336471564053667"
"0.07644636491682032","-0.039800790718885926","0.030774679812522326","0.0019068037505199625","0.057579452141250737","-0.17387146457204367","-0.3065347713215421","0.7641811196943715","-0.42732224248004885"
"0.08076846090322633","-0.04276529020263608","0.027212326349988287","-0.03831388998990098","-0.007320062760394291","-0.043062438345944275","-0.33066484408683244","0.7750518753515374","-0.41444360637371713"
"0.08444257947843802","-0.04019030974705913","0.008380138594217936","-0.02429625582220235","-0.06405269079133094","0.10546526506896317","-0.3226957900327065","0.772967434339605","-0.4111749170066278"
"0.08392458267721582","-0.04177123764273808","-0.017723223770290803","-0.050646712358597364","-0.060915078352138954","0.2298964411851889","-0.28365857069763556","0.7548275204699413","-0.402545577077512"
"0.07191533713512581","-0.062333687460649066","-0.02768186971865833","-0.061948429906304385","-0.018068120504991732","0.3559778981517625","-0.205054719345576","0.7189302800049558","-0.38991209267371185"
"0.05993112489569709","-0.07003577704439376","-0.02599662395053973","-0.05545372110855061","0.008761457471418493","0.4458211291515806","-0.11513815489570142","0.6736002843277453","-0.3785860840167475"
"0.04996883325583455","-0.07158658213522731","-0.04241331342452842","-0.053829562534312446","0.04211157327435697","0.5422897523888247","-0.02201725052895808","0.6216211856757635","-0.3672764188066185"
"0.02744945187333287","-0.0855396730830955","-0.030498873674189915","-0.08496295908067499","0.0837932347853924","0.6167950790148219","0.08431110706035738","0.5464625752645095","-0.3481545860091461"
"0.01149842398142193","-0.09353364225861797","-0.027725240014161382","-0.09734199343014402","0.05805571825520895","0.6168678855229256","0.17996761953523188","0.4677155600732202","-0.3256333162699008"
"0.016876732776267986","-0.10968258180797452","-0.04057730424823254","-0.06335404432147196","-0.03980619832645381","0.5461484973183144","0.26372627857964515","0.37986560628551774","-0.31630120812686086"
"0.021627283365915392","-0.11215472924011374","-0.05615756659466236","-0.06694413757774588","-0.0416562169500201","0.42494993016188765","0.30638579521204623","0.3134141545317023","-0.3310429971724336"
"0.016211424617077395","-0.11304802621139093","-0.06715916488726996","-0.12126632097597581","-0.08131793574657954","0.22443837996102384","0.31744773388158465","0.2804324929504956","-0.3309449364914209"
"0.006733431101777609","-0.12379875138897119","-0.09903839733418018","0.010396425993252332","-0.032712465855237176","0.05943213687867273","0.3252496049835261","0.2643110567696017","-0.3319582301952186"
"0.011394439493444227","-0.09730730260355991","-0.08823506324958653","0.1887775600244134","-0.004446430986376133","-0.06535821801086403","0.3301815020729675","0.25618437535599237","-0.34790943430661436"
"0.019828736851634613","-0.07060811033645624","-0.027299798067798108","0.1758670878960591","0.0015664885347725472","-0.18168845665876476","0.32722793658437554","0.26093373462368613","-0.37615091043826593"
"0.02399100482874157","-0.07929074915378893","-0.04355126736844183","0.14169910461229368","0.0016921366301635295","-0.2868792995668177","0.320066933465808","0.27941665777379443","-0.3872481108395341"
"0.026096690710289788","-0.08123315070761261","-0.004292888929512285","0.1022263710356698","-0.037788648909032885","-0.3314854201982779","0.30479755716629403","0.3098389424162995","-0.4035915576749806"
"0.02702099727009147","-0.08993137028607223","-0.002917224461198804","0.06544163434065406","-0.04559079730854917","-0.36094778714419345","0.2754290852325575","0.35473358016063816","-0.4126458272218179"
"0.025709637338372827","-0.10064574035435633","0.005155846258869354","0.016241278811390956","-0.08878980915249667","-0.41754271277670996","0.23268597712406425","0.4108024048486897","-0.42156934919397177"
"0.032335759988951156","-0.10384498997241885","-0.004496522793159951","0.005535406990771071","-0.09312646341627688","-0.47704989873336967","0.1531626195349902","0.4895098420460816","-0.4260147667332132"
"0.036985214548620256","-0.08338641189535406","-0.002366628233526721","0.004685395369434456","-0.10263263931900038","-0.4995713785734105","0.06645039500198434","0.5615022129455397","-0.42977375950536595"
"0.047965206223597776","-0.06906665370229884","-0.013619567714835338","-0.02798358678801868","-0.08107142614990771","-0.47544815555509085","-0.018812910612089336","0.6208296257978144","-0.4308033966559991"
"0.05865538927930414","-0.058329431851028596","-0.016258959984021087","-0.01032387088567692","-0.01917693503060397","-0.4309391102677687","-0.11753444387701191","0.6827955715765857","-0.41614332484460353"
"0.08162922138704164","-0.04322128714495083","0.01952587083554734","0.024354369685786307","0.0721091585625585","-0.30282392484150183","-0.2066150935659643","0.7265952181564284","-0.4094261681952349"
"0.07370618109474157","-0.03947463345262891","0.029751347363866976","0.019732208858923597","0.0369252985560282","-0.16487015328683768","-0.2662715436704517","0.7551309517564885","-0.4099001281534629"
"0.07860308022302426","-0.04243497806674521","0.02219789408896872","-0.02325648625481811","-0.008851054886520231","-0.031068779577681126","-0.29134898649812047","0.7655135788222522","-0.4047029120597909"
"0.0866931696696218","-0.03143703814595103","0.010977461676765728","-0.020684019325141547","-0.043549314920577585","0.10049986121629897","-0.27730561851462615","0.7606586782374988","-0.4043106693357403"
"0.08161477909704473","-0.04519173406880298","-0.007642314893648006","-0.046898728168016955","-0.04415721237256443","0.2291392535009117","-0.24186283265152095","0.7423604523922451","-0.4003718986483976"
"0.06888727033244217","-0.06513614702867916","-0.013919029279023078","-0.060184672640148894","-0.0070005576035429345","0.35037179702778676","-0.1736521881602619","0.7087059649147819","-0.38951984994966116"
"0.059650944469757196","-0.06647401505077805","-0.02089751635068087","-0.06222859003973847","0.002629591086633017","0.44273898697519576","-0.07699257797228058","0.6581120960492107","-0.3735523023914299"
"0.04594135998536533","-0.0688796845687757","-0.025726075916687352","-0.07210928917868703","0.023896189388247033","0.539911406457441","0.024376018702228965","0.5963176549106616","-0.35812408857876843"
"0.025450638937761734","-0.07343030553524713","-0.026647178383085515","-0.09259852615375311","0.0463979682999808","0.6372294389558935","0.11791488044943371","0.5263569543646058","-0.338708073738258"
"0.006362745658523817","-0.1011027760140795","-0.035358412022698585","-0.11020432807852681","0.024396388472755902","0.642689927063662","0.21123083159372533","0.4426890752654004","-0.3178865224698992"
"0.00770587862823564","-0.11239363424405997","-0.056663553375531306","-0.09130555344171883","-0.026264684259182942","0.5140408272446355","0.26509160602248516","0.36828244673819793","-0.31687322876610147"
"0.011233648664812076","-0.11770148020130007","-0.05286142413643039","-0.07263302496077687","-0.059641844318843666","0.3615354616036691","0.3010359407421438","0.30333495875248556","-0.32520838665217916"
"0.02133843756597736","-0.11348428752294493","-0.05046573162292846","-0.07236730607133422","-0.08379021160446308","0.20935529836556543","0.32109789500427877","0.2708018477687832","-0.3337233224534468"
"0.01840857833527264","-0.1302284121473501","-0.09679759873318913","-0.029279447748851255","-0.0859633253304633","-0.006660640424316153","0.32151585238473984","0.26282028566613114","-0.3469124840496521"
"0.017880953340719177","-0.09950626735727366","-0.09171501315066477","0.13673131667923563","-0.035129695880854184","-0.1359999459401646","0.32391214136605034","0.267107901671688","-0.3566204914699074"
"0.019234677323095407","-0.0751410731069838","-0.05110802504680699","0.17054308261121204","-0.0018284033378390603","-0.22118356042135368","0.31953752078389047","0.27651427155464825","-0.37423872715851864"
"0.024301032654008382","-0.06532103872738537","-0.0459345683689429","0.14263297172374065","0.014383072924063826","-0.2960286507518343","0.30638579521204623","0.30796558403848695","-0.38553204892181225"
"0.026948785820106964","-0.08352560002808795","-0.027109794868451404","0.0933989199584975","-0.00515341093644273","-0.32617054510671656","0.28281299895403755","0.3451688983020882","-0.3949622177458648"
"0.02743982368000161","-0.0954988955954278","-0.014813283467252678","0.07002047143554244","0.00459472729854799","-0.3740286897668034","0.25480985446314075","0.3844434609129893","-0.40342812320662613"
"0.027145200964064826","-0.10233884973014916","-0.005448190991626924","0.04110139896786857","-0.034035959126688865","-0.43642386721157184","0.2162741839846234","0.4383618812659461","-0.4032156583977653"
"0.03177058504040575","-0.09787548102598854","0.0001440988256666421","0.015129303024049478","-0.07498287844181893","-0.46447864166748476","0.14265795737273324","0.505156342300206","-0.40793891453320935"
"0.0330819449721244","-0.08770851503196386","-0.004691482597707005","0.008117308866522047","-0.07611251465181025","-0.48510715229683254","0.05271352909749501","0.5811328979186741","-0.40681121670156356"
"0.04508541359821565","-0.06391669279114494","-0.02171948671307205","0.012268011214543961","-0.06909058109224558","-0.4753753490469873","-0.049518846163301614","0.6470962210810876","-0.41313613062688137"
"0.06833846331255991","-0.05150609719484263","0.002952428722097617","0.018952381683385415","-6.550072707719266e-05","-0.42846368899224696","-0.14486885655917098","0.6972283466845218","-0.41303806994586867"
"0.08020328595468092","-0.03562826288909464","0.03031598730627338","0.033669934809869545","0.021988731635359162","-0.27180835238937656","-0.22910120063477388","0.7358696613930636","-0.4192649231901737"
"0.07586771049761114","-0.03931986455876809","0.02365844042133818","-0.0031923995028602424","0.009435888581536189","-0.12367380411822847","-0.2703953898243351","0.7532444007140434","-0.41936298387118653"
"0.08121809753179651","-0.03143703814595103","0.026672056383150265","-0.012981059780103308","-0.038927858307244476","0.005501444066026603","-0.30224374221547456","0.7632576331700979","-0.4173527399104265"
"0.08798382898567822","-0.034223916952854205","0.003448502292565863","-0.04850170625106766","-0.05858400702050434","0.13370205579513508","-0.2872530041696013","0.7555795023539928","-0.41294000926485597"
"0.0785616789916998","-0.05851016868010096","-0.014922741832093717","-0.07329154568678688","-0.03643882936997547","0.26101394274865913","-0.24264301976171493","0.7390227082402272","-0.40140153579903076"
"0.06873995897447377","-0.06324879749750396","-0.02764676043182253","-0.05961472487728642","-0.013349496031222928","0.37512600978300414","-0.16852524429327168","0.7053682207627637","-0.38517249309143237"
"0.05957680738110644","-0.06381282105029876","-0.03415437000944718","-0.05498101105523056","0.02516224353037713","0.49290267105856267","-0.07637957381427121","0.6533759294461493","-0.37255535213446767"
"0.03958578956739563","-0.07427893765796045","-0.02629402026256066","-0.08129488310684724","0.05350606055352782","0.6065293613722171","0.045719708931111484","0.5775840711325361","-0.35333545865598265"
"0.017342737333501328","-0.09201088253781285","-0.027814045857334296","-0.10798037650384384","0.04772624816554262","0.6541205488359241","0.15307902805889803","0.49432516463693776","-0.3311574013002817"
"0.004476582584928504","-0.10698191654597367","-0.03869792477643361","-0.11583641323519145","0.02484872161616344","0.5922835546199499","0.22964882015938015","0.4185069209940596","-0.31366991318635395"
"0.011184544878822604","-0.10529919434426546","-0.043536810603274155","-0.08948980769719413","-0.04107703906269405","0.46098915167315996","0.28197708419311535","0.3535726256729797","-0.31095690101166984"
"0.023705047486802928","-0.115551335165784","-0.07492451303448312","-0.08795133383730523","-0.09466535342268453","0.31559455499030986","0.3057170634033087","0.3042188672828619","-0.32360672886230546"
"0.019129730015784586","-0.13008299171016544","-0.0964630278821656","-0.10831733886364431","-0.08765059975428507","0.11673328563979393","0.31847869542005547","0.27652746421928065","-0.32360672886230546"
"0.01394976200356265","-0.11940497675117749","-0.1055418764074712","0.05597780577825863","-0.04329323213568548","-0.08017676929354609","0.3162217255655653","0.2793638871152645","-0.32896737942433185"
"0.020796370281426998","-0.08199660800283207","-0.08472619981817292","0.2225989534523841","0.0012938920002004905","-0.13325999435186656","0.3222124480188417","0.279324309121367","-0.3466183020066141"
"0.024310660847339655","-0.06255285683383452","-0.03172356820910944","0.1700039428355313","0.009303299924685515","-0.21941436227443667","0.31822792099177866","0.287741229156891","-0.3734378982635818"
"0.025580619547733843","-0.07977583018354062","-0.03701474426048182","0.09824058769403021","0.013772303515610896","-0.3159533651361808","0.3003114812826777","0.3154722102143696","-0.3816586520218114"
"0.022604544989039046","-0.09694271279318979","-0.018390300220171085","0.07442216260413571","-0.035392958556911484","-0.3613118196847114","0.2662897505131406","0.3641927207021283","-0.38826140454333175"
"0.024837323022559987","-0.10201684733352596","-0.0066101018606753645","0.07553798938987491","-0.07107223105384053","-0.4177854011370552","0.22538565487867637","0.4148921308847593","-0.4073342070002979"
"0.034375011336513626","-0.09105006893498566","-0.005588421613753462","0.03953211712079791","-0.07222101364027238","-0.4762975648162993","0.17353107587613015","0.47514303026130783","-0.41630675931295796"
"0.03712386053259051","-0.08391200290403575","-0.012547701840259901","-0.011568706117739717","-0.08859116549692615","-0.47678294153698986","0.09124919957601238","0.5437976570087479","-0.418137225358528"
"0.03813000673570797","-0.08452796232725364","-0.018377908707170213","-0.008595927904620224","-0.0441165263226283","-0.48484019510045273","-0.0010079262044444999","0.6128744490244274","-0.41009624951548823"
"0.05315480242915099","-0.0684548491487148","-0.02330353512501686","0.031116722872181583","0.0029404803740861337","-0.4722204003624988","-0.11770162682919653","0.6792467447904479","-0.4094751985357414"
"0.07708375131535024","-0.044360760142033495","0.018737770608691875","0.037877150559377994","0.07138638285192847","-0.37859123094129443","-0.21202067568659513","0.727650631327027","-0.413266878201565"
"0.07847791370971778","-0.03431428536739039","0.03797662716862918","0.01903614089853581","0.060104380534345726","-0.22578978550070683","-0.27591242724642234","0.7585874298901989","-0.4084128744914373"
"0.08236770381554986","-0.0362639579430733","0.03255120972641402","-0.020370162955727415","0.03120053200030951","-0.07608018977091796","-0.30776077963756165","0.7727827370347504","-0.3997018173281443"
"0.08741605442493337","-0.03472873361336667","0.027187749849203226","-0.009277362071096671","-0.03317437218686498","0.07876711854738024","-0.3070641840034598","0.773455562931007","-0.39399795438257346"
"0.08378593669324556","-0.04210674336567126","-0.0030723248989263864","-0.04201181120131103","-0.06868611388993938","0.20257458557751867","-0.26942015593659235","0.7508169504216666","-0.3973647044306755"
"0.07546525201636414","-0.05351705409762479","-0.021488178470389106","-0.06818512181141095","-0.019773823316137515","0.3181913204460043","-0.20433025988610992","0.7236400612787524","-0.3860550392205465"
"0.06052037032757067","-0.0619649427806451","-0.028247748812364828","-0.0648549709469831","-0.028748447942930796","0.44077321125639907","-0.13199576924096765","0.6887718486551004","-0.372457291453455"
"0.04565058854676106","-0.06965249032067133","-0.026667830904753633","-0.07979203098213725","0.01329771270959124","0.5282623651608681","-0.029930576932355648","0.6318586934305701","-0.35340083244332443"
"0.028179268927842952","-0.0810482590089064","-0.02736175563280247","-0.08601428164325235","0.030788884906838097","0.6054372637506633","0.07252470893135318","0.5572541749338803","-0.3413883990192712"
"0.0130196785277622","-0.08981815008854989","-0.026723592713257555","-0.10037465466834804","0.030075682384428332","0.624585375381905","0.18328341475355672","0.4677023674085876","-0.3200928877926844"
"0.009239649825906561","-0.10748050090203538","-0.030657898091034443","-0.10821143640770702","-0.03262391386419972","0.5483326925614218","0.25344452702030107","0.392279903704684","-0.31481395446483523"
"0.016732309876298968","-0.10842573374373565","-0.046748277722666834","-0.09137775966167606","-0.09959315205906613","0.4120146405554848","0.2899182744218772","0.3385593733212144","-0.31966795817496285"
"0.024201862262696338","-0.12036059676696242","-0.07801826078036751","-0.1199569815207512","-0.10985082323708048","0.23644417314730426","0.30972945425573534","0.30165949034416023","-0.33092859304458544"
"0.016821852074279754","-0.1255334094611025","-0.11365005641437516","-0.08106671145178236","-0.11263422771212264","0.022904626386385765","0.3092836330499103","0.29255655174774714","-0.33643633462813094"
"0.01872823435387073","-0.10271278799719541","-0.12286934208702399","0.12087483077662602","0.008025518626985594","-0.09523072828576305","0.30663656964032304","0.298427287509202","-0.35021386031041235"
"0.025496854265751816","-0.07886799116854495","-0.06818352996200872","0.217178673207594","0.012260936425336502","-0.12705930674504495","0.3039895062307358","0.29433756147313234","-0.3718852708142144"
"0.030429377709360186","-0.06690508277528971","-0.04541205957073947","0.18014169611752762","0.04994244123853405","-0.21729569288862244","0.31081614344493436","0.29990486594804006","-0.384829280707888"
"0.02454944004195509","-0.09233600108666144","-0.04020555885820637","0.12403264946275591","0.031234038159080442","-0.3238892745194711","0.29114428273789655","0.32743795703603146","-0.3922001752306744"
"0.024697714219256615","-0.0973509287347153","-0.013070210638463343","0.09926110226942585","-0.0003407298884098225","-0.36718487800506683","0.26291822764408723","0.3700370711343181","-0.3987702408585239"
"0.02370312184813667","-0.09069378886388323","-0.0010355732120163785","0.07701099627700257","-0.017965448061329384","-0.4226877060160297","0.2184754261883853","0.42175231649365036","-0.41310344373321045"
"0.03221829603030969","-0.08872541937484801","0.0023696145606232673","0.02695283085464748","-0.07016995806408051","-0.43292915482259997","0.16154963096957706","0.4824913444616008","-0.42063777272435127"
"0.03264386217555172","-0.09385045106819884","0.003283282119220902","0.004957949781033047","-0.08725331244314406","-0.45091236232418425","0.10052785342224997","0.5445496388927995","-0.4186438722104268"
"0.04232501057014125","-0.08287951780002466","0.0030757242764562947","0.01905732138972327","-0.07099803884513348","-0.4668084499267994","0.0013604989515020424","0.6108691640002899","-0.42447848273068123"
"0.05318272418981166","-0.06114851089759408","0.013924080858286435","0.019230616317620644","-0.05828484488862105","-0.44909219962159475","-0.0946303794277411","0.6717401186145653","-0.4270770907775172"
"0.0745813838685538","-0.035614759562784634","0.03875316198335049","0.03276495018640548","-0.01541586870856721","-0.34136283646433035","-0.20341075364909555","0.7176637842002376","-0.43634382513321546"
"0.08267099190548478","-0.02555166530960613","0.029533669785484988","-0.013594331274940126","0.02402303413216555","-0.1907698551028847","-0.26607649689290325","0.7468723436965544","-0.43689950232562047"
"0.08959770675186528","-0.026066869144203215","0.037497488665928794","-0.055094615507963275","-0.01970010976684147","0.0031599867654154576","-0.2887576507392614","0.7619383667068497","-0.4205723989370095"
"0.08348649988064315","-0.051902887244875066","0.00874560561765699","-0.08333013576004195","-0.06293980766072509","0.14493367311191405","-0.2707854833794321","0.7550386031040611","-0.39836165468763773"
"0.08030630762332548","-0.050763414247792404","-0.01265716020510094","-0.06768641751890629","-0.0813993078464518","0.24176632888967597","-0.22520026508380328","0.7386137356366201","-0.3791254177623172"
"0.06775499479668509","-0.046946127771695066","-0.02913993774842761","-0.09371531568909174","-0.05704272371704162","0.37216521178679185","-0.1394911382639041","0.6996821823061636","-0.35531301572307167"
"0.05272923628390896","-0.05988958539853831","-0.038702055280767235","-0.1038309257303012","-0.0288460944627775","0.45074770286658955","-0.049212344084296616","0.653587012080269","-0.3325629377281301"
"0.03482849924241633","-0.07005135780552069","-0.033850777940925815","-0.1320009790096186","-0.014952526398706366","0.48724803226251795","0.03365467254846656","0.6037715104280144","-0.30986189007369497"
"0.016637953581652543","-0.07739301244852911","-0.042882125666394745","-0.11690506529055857","-0.0337559433712461","0.5197197348767147","0.11111610706059877","0.5412646653993113","-0.2854447805015379"
"0.0053575622747394835","-0.09580116236129022","-0.04477802715552818","-0.043569540053188534","-0.08502754618193237","0.5559288382402288","0.1812772193273434","0.47064433162163133","-0.2881741361230574"
"0.009383109906542437","-0.10068728905069478","-0.05715714864339937","-0.008389899490342237","-0.10445393837790588","0.49188337994511255","0.2438593710950591","0.3899711873939995","-0.31713472391546865"
"0.016009232557120768","-0.10575623000398865","-0.06002991440743489","-0.08150187427072467","-0.11422098365963161","0.3192348803954889","0.27565199583547","0.33829552002856467","-0.343611107788892"
"0.028085875452529663","-0.12658251404364898","-0.07883816589059188","-0.13195284152964715","-0.10891025749443942","0.07668242553201438","0.2652309251493056","0.32642212185933034","-0.3635010825876303"
"0.026455822321546068","-0.13764485444376776","-0.14129345666715395","0.023653487977401376","0.000933700793413006","-0.06005062357011303","0.25907301974384456","0.3341266380047002","-0.36314152675725053"
"0.0436190397538636","-0.1091216744074051","-0.0818844128366396","0.17938112393397804","0.04691731376093018","-0.09779351737100908","0.2638934615318298","0.3317915363647508","-0.3787822053787728"
"0.03384353506462766","-0.09171588679380971","-0.06671513567140537","0.12884639745990517","0.08480320614263039","-0.19831988999322595","0.26213804053389295","0.3468443667104135","-0.37170549289902444"
"0.023243857026235208","-0.08691078006226513","-0.07694846015795889","0.105490092177737","0.0588478995804359","-0.28780151533612974","0.24795535342357825","0.3713563375975664","-0.36881270280915046"
"0.02527444299979954","-0.09063873684123476","-0.03677724026129843","0.07882770477112672","0.04400467124491445","-0.3502937681250362","0.23360548336107892","0.39746462090524964","-0.3699240571939608"
"0.02137502470063618","-0.09434591927203514","-0.03539558656170119","0.09098434396312743","0.026471377019498418","-0.4184891973820565","0.19579427234202734","0.4482168017464107","-0.36765231808383375"
"0.016462720463023474","-0.10209994472620294","-0.024350617973590553","0.11459770338834337","-0.02574150952294544","-0.4461556704614171","0.13948148128122875","0.5031906352699662","-0.38031848938130475"
"0.03077502984995269","-0.08902560870589349","0.0010813102589659342","0.09991577199703816","-0.053873998416133786","-0.48857759584976984","0.04558038980429112","0.5770299792179718","-0.4020225867787777"
"0.043137630087300226","-0.06984361432382832","0.0007062604654728736","0.056790366440177424","-0.026898668649070014","-0.5093517194953248","-0.051190675685146014","0.6408033200513934","-0.41893805425346486"
"0.061059549154121644","-0.049773516557528256","0.00948717571319418","0.0005833118761837466","0.05364008518861154","-0.46059562790196046","-0.14406080562361287","0.6899196104781264","-0.42317100698384547"
"0.07356849793010445","-0.03708038982612432","0.03639464400885118","-0.022710607231941383","0.08883112508630706","-0.35830248401643006","-0.23222194907555044","0.7420438284410655","-0.39819822021928325"
"0.07863196480301805","-0.030216545191008345","0.046026980114862406","0.0003253912584964896","0.06765283944602497","-0.20411528803827098","-0.2986771725688726","0.7721626817970236","-0.37822652818636765"
"0.09178118843553014","-0.0164753525944664","0.04904637878274157","-0.031684396248227026","-0.04727807173237094","-0.01256937393364239","-0.3384109875380457","0.7904477149776447","-0.35704542108762893"
"0.09066711018516917","-0.02776101723740451","0.023208008923756476","-0.04923820969463149","-0.148830452372946","0.18004339820306398","-0.3207174584318571","0.7809094184483597","-0.3574540072585151"
