"AccX","AccY","AccZ","GyroX","GyroY","GyroZ","MagX","MagY","MagZ"
"-0.0038354367179547788","0.034618118010364046","-0.06965812000911249","0.1274311555487433","0.0541833636201116","-0.6197263857803527","0.32566756236398725","-0.16424605748428295","0.3586177723897378"
"-0.04562179577565595","0.0520955771251433","-0.05522613786743014","0.05235209078680581","-0.08621701481830034","-0.6377338621179716","0.2793578846088923","-0.06897654910727229","0.3411793146163163"
"-0.0458721288022689","0.07475831354296418","-0.05125672320281746","-0.03494619189109536","-0.2067817472643224","-0.52626709821139","0.2506581444838934","-0.000284982898861299","0.29675782611757273"
"-0.034520488864704456","0.08377853551804697","-0.01963771252892554","-0.013395042107858147","-0.15211884252660715","-0.39776361140857064","0.21524322244615232","0.05748965332617024","0.24043830832262408"
"-0.03231563259184418","0.09894588711640703","-0.04049675941372687","0.08428071850229739","-0.05165780534314234","-0.22310079846808126","0.19534845113620197","0.09742384916869541","0.20806194014160453"
"-0.017786688854961458","0.11983241676575815","-0.08609546200476928","0.027301346209641083","-0.04181178125859942","0.055408363864148186","0.1976054209906921","0.11012838520977626","0.19093400785805661"
"-0.006772035683991379","0.07427946481766326","-0.0774647731996619","-0.047206808039834514","-0.021872026844314177","0.13411947977492894","0.21775096672891922","0.0951415181872759","0.19392485862894335"
"-0.0019483108250263415","0.06358586909754842","-0.05832814662198179","-0.04867307567976617","-0.018566165622151038","0.1058317244930845","0.2422989968746705","0.08157945894508369","0.20529989762641412"
"-0.010555915663179516","0.05639586719617541","-0.0655007673973199","-0.0769557706622169","-0.02592340009913048","0.1725564622864125","0.2739244386628974","0.05696194674087091","0.22317962846439257"
"-0.014262770095717522","0.05385204826285231","-0.04860906992496446","-0.06924029537238607","-0.03931078583605509","0.2872485545019826","0.3124043814906869","0.021843073489201947","0.23478347571755956"
"-0.015408525102138375","0.05366611784673764","-0.03688050286963904","-0.069179642147622","-0.024917018687475083","0.36915587611851053","0.34383477650136496","-0.022335202565592904","0.24664881812009376"
"-0.016612049268546817","0.06588351200506604","-0.03231009982448405","-0.060424397290406925","-0.01644115716695763","0.46222686231092075","0.38315063409007694","-0.08642252881726742","0.25663466413655156"
"-0.02287037493387073","0.053444871038735256","-0.020465878647817157","-0.09205457263007524","-0.08109057252634824","0.5632094890505868","0.41388443346665316","-0.1687157322617681","0.26294323461503394"
"0.00928586515389664","0.042788669145325045","-0.0004604004835592344","-0.10706576438438549","-0.1252229702217716","0.5932300392252964","0.44133030145026847","-0.27698397310116396","0.24926376961376523"
"0.038707698335584025","0.03273388463141423","0.02438458308318928","-0.09713018851826943","-0.11384044942787608","0.5324366049588068","0.4469866579991759","-0.3703880386991415","0.2258109234048995"
"0.06062435481554835","0.024700444194370202","0.03603942063615951","-0.08573412150981828","-0.1057893981346329","0.40247698799391585","0.4341414345063367","-0.44207697831205256","0.1980924375719822"
"0.080659662318583","0.01590977876655748","0.03366851114865932","-0.0019337006765656555","-0.06383250746226483","0.258611327981241","0.4173952754625266","-0.4929083151410085","0.1795426254137504"
"0.09709325526025708","0.013968000443178879","-0.0102505218551149","0.035158345690588094","-0.03521824787189164","0.05618253973364959","0.410122817042503","-0.512380688138553","0.1776631290276741"
"0.10140832266553125","0.009433375724797782","-0.031130840837234396","0.10202419361978954","0.1059575588123618","-0.13771575264780564","0.39658099791556156","-0.4919980212813672","0.19328746420236095"
"0.06376988557687346","0.043707934051813786","-0.03050300417852354","0.13165762629024033","0.16628300438236404","-0.28484071733991745","0.3922063773334017","-0.4460479703664299","0.24058539934414308"
"0.04681078584317879","0.0402105725375227","-0.03200031199946225","0.12901006489180825","0.19485897121985618","-0.41099012704738774","0.38950358627308623","-0.386443511556873","0.2904819425327613"
"0.037434851177190455","0.027191288539861743","-0.04725426450353578","0.1364136093114238","0.18562084458730008","-0.4894998116190819","0.3703611382479659","-0.3048600734695999","0.33248460089985876"
"0.010599150724281534","0.02770753109186729","-0.051200961394313536","0.13293808325748205","0.12312707188540775","-0.5680823026988796","0.3345282588297634","-0.2135219791530691","0.36226236103404225"
"-0.026557972979746193","0.03759508210301574","-0.04910473044499934","0.0894583858480311","-0.015787547741219012","-0.6437282646184996","0.29404212057576057","-0.10237377962440225","0.36319393750366274"
"-0.05306438922072576","0.060381425892443566","-0.04626707396779964","0.017051913974110888","-0.1529684629811557","-0.5833474005645969","0.2522742463550099","-0.019953926599429773","0.3272546979125159"
"-0.03407759197146614","0.07434802016662173","-0.05477591289506512","0.01112041369202358","-0.15226244034991113","-0.46336227520989653","0.2202308471863222","0.03837480154016605","0.2799404193238983"
"-0.04381169542937766","0.098253062604963","-0.03076322595154185","0.06671246381190146","-0.09953331963268947","-0.29581023122752353","0.19147537941059534","0.08407287256062289","0.24078152070616846"
"-0.029744904972395746","0.12381070444016706","-0.07949078557530448","0.052173019361311856","-0.07299644188611386","-0.07497595773134699","0.1870171673523433","0.10990410991102405","0.21149406397704834"
"-0.010257441669910234","0.096782238754581","-0.07812771914520855","-0.009324536801468735","-0.06155648196289674","0.11810932864295162","0.20298313928595882","0.10267452969242351","0.19197998845552525"
"-0.0046153203777874454","0.06834838841534603","-0.10556252892913932","-0.04710283108309608","-0.02673999305431912","0.16765901117464496","0.230791236999307","0.0854712950116661","0.19823952859350122"
"0.0021494482567611384","0.06421637056448475","-0.053193929735287124","-0.036346029808666365","-0.006819385016474412","0.16523698133839917","0.2568160498893544","0.068742996257678","0.21203339772261812"
"-0.010035993223291084","0.051586605594997","-0.07445776604478362","-0.09187453845498186","-0.020805334346871106","0.21881529065182398","0.28309163720767827","0.042583261557928034","0.2308773919238879"
"-0.008408828550306863","0.04887659187632","-0.04214689589500967","-0.10950152087094302","-0.09992342705266528","0.2863506075687051","0.3268099792039144","-0.0011055666390017203","0.23546990048464833"
"-0.010093762383278691","0.0577306190660489","-0.032010638260296306","-0.07067190402673826","-0.04096934069521606","0.39005134394423807","0.36888435550366977","-0.06437890548285206","0.24074883381249756"
"-0.020492211181047645","0.06639975455707159","-0.02596977567237117","-0.05905825560881597","-0.005212286043997363","0.4922959501576995","0.40630547296762454","-0.13202165485298067","0.2550166628998424"
"-0.025055974820068466","0.05967302061987258","-0.022741786535643998","-0.09655253875861151","-0.06354770511271193","0.5890557994273578","0.430296226606094","-0.20829240689275297","0.2567817551580706"
"0.014218388597505004","0.035088656996397266","0.003178160783930171","-0.13236682385740198","-0.126680488128307","0.591045843982189","0.440466522863982","-0.3102954512981828","0.24391946249857419"
"0.05243942766463781","0.019079944297183078","0.02469602310994453","-0.11948523421703058","-0.11902433084914978","0.4873693764426905","0.435701808726725","-0.40179977318908294","0.2110527909124913"
"0.08358855872995459","0.008566150560472975","0.04899681273073808","-0.06106462577402777","-0.11209094928062258","0.32246263558808097","0.4198472920945653","-0.48044124706331237","0.18130771767197867"
"0.08523497978960133","0.018761058052785287","0.020376341677840526","0.027330228697623977","-0.04401600784631552","0.18294352410918993","0.40379772868485764","-0.5158371662722634","0.16880498084286213"
"0.10220486309982701","0.013440124256198562","-0.008169573771835114","0.04599024143377335","0.013512391455430693","-0.024853530669238816","0.398531465691047","-0.5221564526312227","0.17411660106438223"
"0.09372319503044681","0.014242117967271964","0.0007611961731100719","0.12102887071253479","0.14747168952954257","-0.2007589080146959","0.3981970997866781","-0.4937262603482224","0.2044173514973"
"0.06674210885823575","0.026865131273604723","-0.017630287422784264","0.14602185031373371","0.18173413016987236","-0.3783970802530182","0.3901723180818241","-0.43211651651452815","0.25697787652009596"
"0.028474854463112872","0.050757709103044425","-0.0461410935856241","0.1563906634995932","0.2058992505348772","-0.48879601537408063","0.37690913720852376","-0.3363641566119686","0.3171217608745391"
"0.014017159356881519","0.03234332688583257","-0.06284072260646605","0.12147173552827252","0.13389212203909617","-0.5180885004677545","0.3556769022810974","-0.24741921165977018","0.35448288034036973"
"0.004662406716221962","0.03200262757585708","-0.06804722331899912","0.10473914749018172","0.015213786331877357","-0.5617724053299027","0.32502669438061327","-0.16802971370087896","0.35338786940239486"
"-0.026846818779684232","0.04621228172361533","-0.07253501627748161","0.0892157729489748","-0.02674118970284665","-0.6349914836460699","0.2821164033199357","-0.0751045418290605","0.3388912320593538"
"-0.06062252098577079","0.0745453764742295","-0.054061335645348166","0.015072500797683117","-0.11661428071469795","-0.5517493760476431","0.23614109146920978","0.005110816935824144","0.3084924209454233"
"-0.03798663846396079","0.08379203884435697","-0.033425335994562544","-0.01691678014257254","-0.1666006830068136","-0.38545931153906554","0.20128344593875014","0.060101800923401824","0.25849781707579245"
"-0.032180837885206454","0.10243493889143045","-0.0319755289734605","0.049604403430033014","-0.09746551097711216","-0.2180577343401066","0.18891190747710024","0.09586711474206243","0.22069542454540475"
"-0.017757804274967637","0.1157398701764184","-0.07058954873634471","0.06479562935943664","-0.028044818608741286","0.014600073383731043","0.18662707379724586","0.11243710152046074","0.2017043393226159"
"-0.012356387816126559","0.08392395595523164","-0.08113472630008685","-0.029644329847035168","-0.025214026852008818","0.15941731445731966","0.20822153845440514","0.10289880499117572","0.20015171187324846"
"-0.001543926705113106","0.06394422660346774","-0.07969731079198568","-0.04060427128694459","-0.05902198038158148","0.1624970297501011","0.2380915592446949","0.08175096358530595","0.20626416098970543"
"-0.003845064911286041","0.06608502318230763","-0.06523228461563435","-0.05570403600440238","-0.007537852792405327","0.15838346204224885","0.27336716215561596","0.05398040453392984","0.2194860094795817"
"-0.012404528782782904","0.04916120044623855","-0.07455276764445697","-0.08449698827455092","-0.051526174005113695","0.2744831467478215","0.30872635654262853","0.022116161647094356","0.23229927179857177"
"-0.009284994143452203","0.05152843742012313","-0.045135315780386646","-0.08454031200652526","-0.04898927912674337","0.32399157225825614","0.3483765800357095","-0.01656077325595522","0.2422034005808523"
"-0.01355028378920374","0.05942372844184173","-0.02906558867042238","-0.07065072353555081","0.0016516899099329077","0.43019199874534536","0.38120016631459147","-0.07642248902584552","0.25567040077326025"
"-0.022023093920719192","0.05749483021432805","-0.018423344254840077","-0.09150965635679796","-0.05815082025353733","0.5402754389979589","0.4136336590383764","-0.15455208751233462","0.2602792527808561"
"-0.0031036940247784572","0.04508735077025113","-0.007198079152566744","-0.11660661291473533","-0.09261669114354774","0.5712182049419805","0.43793091475585116","-0.25956965578628677","0.25325157064161413"
"0.021767854988551893","0.03605258675144987","0.004741143623773502","-0.12186322572762232","-0.1089246172767698","0.5446923671562428","0.4369835446934722","-0.3556386396400259","0.23417876818464808"
"0.06004570039633917","0.02161649220864694","0.019129548944736112","-0.11456558376394403","-0.1438188883396371","0.421649368461192","0.4369835446934722","-0.43334343432534905","0.20379630051755304"
"0.08845666956017678","0.007396347015063229","0.022244362262721987","-0.02985132101091259","-0.07247948972221954","0.264047547252975","0.42196494282223534","-0.48578427623946785","0.1757346023010914"
"0.1042496025175883","0.015550382543229678","0.030035939112453672","0.03952056412560475","0.00010944928764815677","0.08236861381490401","0.41126523388242986","-0.5103358251205181","0.1781207455390666"
"0.10276108382857434","0.01610401892193985","-0.014040879156864987","0.08121147277931502","0.08537041754468111","-0.14296510188207381","0.4015128950050029","-0.4992539868292327","0.188237339130208"
"0.06985586658156769","0.03755041725445188","-0.01689918815573281","0.11838130931410269","0.17952272369099104","-0.2920728304782065","0.3977234147554888","-0.45322477992650045","0.23293666622515413"
"0.04365562688852242","0.04203040543714788","-0.014939263849428211","0.13523905480011938","0.20205561546444067","-0.40150101215788775","0.390841049890562","-0.3905860082514726","0.2855462215884564"
"0.03622843855278263","0.025840955908861325","-0.037694212223362965","0.13032903184302716","0.18861246590613304","-0.48049607345027245","0.37105773388206775","-0.30989967135920826","0.3288236688087187"
"0.012331262704576566","0.02677787901129392","-0.05019311833690927","0.14461623589856612","0.13614182127085853","-0.5515066876872978","0.34168926194833094","-0.21939799198037688","0.35662387187581324"
"-0.023842822460328744","0.03878752968792995","-0.05518896332842753","0.10965879794326824","0.007311358785753796","-0.6015975652625611","0.2945715332576781","-0.10836061083462291","0.36236042171505495"
"-0.053613196240608015","0.05523561985092351","-0.0456598898307569","0.03938577918168457","-0.13238132171347503","-0.5697083147131929","0.25798633055464554","-0.02890778808549579","0.3324355705593524"
"-0.03161277447866166","0.06906094855755086","-0.05465819352155684","0.007593958184271978","-0.159437544921","-0.45059686745573546","0.22569215695768105","0.025294274557059418","0.28533375677959566"
"-0.03732229312410332","0.09100593124612459","-0.05386720194166784","0.05338127010859632","-0.09791545082346462","-0.3219720364727435","0.1988035654813472","0.07388813546434626","0.24622388850237212"
"-0.03166091544531801","0.130157267805869","-0.09818338293711999","0.03260898475129785","-0.057150422084519606","-0.12623902008707794","0.18548465695731897","0.10380909885081706","0.2145012581947705"
"-0.005934382864171105","0.10664693798274329","-0.09237589384404461","-0.04433492598473526","-0.06153015569529101","0.06845529011630978","0.1964072765000367","0.09949509751599518","0.1963600322074249"
"-0.0021023619183266223","0.061587376803667784","-0.07165728410658652","-0.04937106913935281","-0.0016950966918718655","0.14148021774420094","0.21577263512806982","0.07841321943328783","0.20781678843907286"
"-0.007253445350554764","0.06831514945827526","-0.02075501395117084","-0.03870572907686892","0.014784189510492948","0.12646023512243226","0.23650332119894268","0.0655239860873522","0.2258109234048995"
"-0.01176906802291924","0.046358740878208446","-0.03701887476481544","-0.08619816681674347","-0.043549314920577585","0.19895367524116725","0.2616086278519757","0.04343682695964966","0.24655075743908106"
"-0.015071538335544008","0.046783576298269354","-0.023214729281843947","-0.05794435432227563","-0.08145196038166325","0.30149436125424983","0.3093393607006385","0.005934039208891046","0.25016265918971475"
"-0.007860021530424609","0.054796242387144145","-0.040277842684044794","-0.029805109030139956","-0.020914708022287638","0.37925171190887363","0.35041063928728705","-0.050456686496193046","0.2551800973681968"
"-0.01647725456190906","0.06459030883153102","-0.04655827452332013","-0.036442304768609345","0.015923877568115537","0.47572033514611767","0.3816181236950526","-0.11231709095790447","0.27252049446060556"
"-0.021618709800805942","0.060485297633289754","-0.03189498413895484","-0.08622319830632864","-0.06637897552885542","0.5631366825424832","0.4103457276454155","-0.18474877758962427","0.2824409666897215"
"0.006829713035090282","0.04326232428358365","-0.008625581450267207","-0.11529727345951073","-0.11969445402456837","0.5958510735170253","0.42645101870585134","-0.2831053694906359","0.26711081355807276"
"0.04404556871843875","0.028403471755536737","0.019665068831590467","-0.10448559545791349","-0.12484004269296099","0.5323395296146687","0.42447268710500224","-0.37786827954575924","0.23932695393781375"
"0.07380920276338614","0.018385042350922094","0.02809811300433396","-0.08653320367734504","-0.14704744606692158","0.3753686981433494","0.41538908003631325","-0.4649266734555127","0.20784947533274375"
"0.08767110526627865","0.019330275192622384","0.014126475570634013","-0.0041341611610225225","-0.11113363045859603","0.21393968149248754","0.40415995841459024","-0.5082118061146885","0.18290937546185246"
"0.10075687910473768","0.016385511339633015","-0.0037443579540070134","0.030399474420606344","-0.0304369190152801","-0.00887323020558396","0.40460577962041555","-0.5175522126744863","0.16839639467197595"
"0.09097049455703742","0.015425736454214254","-0.0120664980853927","0.10582705453753743","0.1271334511555888","-0.16535553000752823","0.3988936954207799","-0.49488721483588094","0.19727526523020986"
"0.06505139810926516","0.033874396345905354","-0.020042501953620697","0.13353498800912855","0.19847524307006142","-0.31935100218101453","0.3976398232793966","-0.4443856946227371","0.24702471739730902"
"0.045258721078178465","0.03412472724134466","-0.031124645080733957","0.1383391085102835","0.2066268128396174","-0.43812268573398866","0.3810608471877711","-0.36037480624308715","0.3040633468530173"
"0.024095952136052392","0.032057679598505556","-0.05481308743406775","0.14057268758096075","0.18828458420958893","-0.5061482331387672","0.3581567827385003","-0.2761000645707876","0.3487790173947989"
"-0.0012358245185125443","0.033977229369343075","-0.0557527771699672","0.13690461160713302","0.10114463843462339","-0.5547101740438554","0.3244415540479679","-0.19366042254886637","0.3716925298580949"
"-0.032614106585113496","0.037745696127242705","-0.05897250529802713","0.08778223879542375","-0.06455767646994995","-0.5909678150794384","0.28395541579396477","-0.10113630768187538","0.3585687420492314"
"-0.04136613432323569","0.06557709036956978","-0.04825384655227279","0.007698127690930288","-0.1724403278211755","-0.5534724634060945","0.24656216215537427","-0.027244193075339724","0.31431068801884227"
"-0.027819266306142246","0.07491723730645884","-0.05311338490078145","-0.0051323399457113925","-0.13542559556751943","-0.453387783599706","0.21836397088692922","0.03953179822843477","0.2651169130441483"
"-0.040875096463341046","0.10184390868601562","-0.02801024481318144","0.059727715468037894","-0.10039011997840322","-0.30114937515511947","0.19091810290331387","0.08549768034093105","0.22773945013148217"
"-0.027164549159616056","0.12608549556469856","-0.07954035162730796","0.08841572803184859","-0.046160402007654956","-0.048001146478970476","0.1839521465622946","0.11175108295957165","0.19640906254793122"
"-0.011624645122950238","0.09198024817526183","-0.09475919484454569","-0.03327774683528343","-0.06862388816650765","0.14007990590500868","0.20454351350634709","0.10739750363085236","0.18874398598210682"
"-0.001110658005206067","0.06286396049866741","-0.08401368782062278","-0.057211701877109514","-0.035392958556911484","0.1461641030988646","0.2350544022800108","0.08680375413954683","0.19314037318084193"
"0.0001352302118599579","0.06374479286104306","-0.05575897292646764","-0.04284555235441729","0.01216137526784574","0.12703540653645054","0.2616086278519757","0.0672918031481049","0.20804559669476913"
"-0.010507774696523187","0.04449528184742787","-0.07446189654911722","-0.0745951086444149","-0.02337765002165641","0.2316171016600369","0.28557151766508126","0.040804890365469366","0.22682421710869716"
"-0.007051253290598154","0.050357802900786605","-0.03961283148633133","-0.0854607006235802","-0.027969190421801193","0.28302577703197496","0.32338272868413287","0.005653035452219158","0.239702853215029"
"-0.015716627288738936","0.06020380521559659","-0.03411926072261137","-0.06487903968696886","0.008379008602018892","0.39725918824649253","0.360302297291534","-0.04754770394473061","0.25348037889731034"
"-0.025248538686693814","0.06926765332183478","-0.028660799245727224","-0.07998265540282434","-0.0347802745108145","0.5139437519004973","0.3951878066473579","-0.11914825270460402","0.2685653803264275"
"-0.015947703928689348","0.05237499210801955","-0.016444832679034172","-0.11084937031014482","-0.12111846577233282","0.5950502019278859","0.42542005716738057","-0.21613280748383745","0.26145598095300826"
"0.01644346407636093","0.03533898789183658","-0.0001357428429363869","-0.11268822204505581","-0.14594174282748093","0.5896139826561518","0.44188757795754996","-0.3176965361570056","0.23854246848971225"
"0.05191083985075121","0.02190525564819934","0.013819372573429066","-0.11673177036266119","-0.13799121001055056","0.48593751511665345","0.4418597141321857","-0.40232747977438216","0.21013755788970628"
"0.07938296388285691","0.010465756957068023","0.02618589602308272","-0.061787650723199604","-0.11625767945349308","0.32971901756240446","0.43230242203230734","-0.4683567662599582","0.17640468362134473"
"0.08559892549752325","0.018446326678021343","0.022717305008921943","0.01136687758947762","-0.04587559965810207","0.1677221101483347","0.4168101351298812","-0.5050059886089951","0.16545457424159554"
"0.10149545781517923","0.01372670638919319","0.002336983576387637","0.055457920994566506","0.024867867992603973","-0.03182839414556182","0.4032125883522119","-0.510850339041185","0.16313380479096215"
"0.08661556643137179","0.022121308869159407","-0.018623673715020838","0.12503390904616296","0.14838832230163299","-0.18786972919675873","0.39691536381993053","-0.48470247773960423","0.20152456140742597"
"0.0648867560033005","0.036769301763288555","-0.02594499264636943","0.13963882046951379","0.19337991363982518","-0.35342444797349015","0.3954385810756347","-0.43274976441688734","0.25410142987705736"
"0.03940670517143405","0.03692822552678322","-0.04269625297138167","0.14776442708870174","0.214440927724409","-0.466978331779041","0.37913824323764994","-0.3556254469753934","0.30638411630365064"
"0.01726378614818493","0.032954092722008145","-0.04999485412889532","0.13344834054517987","0.16604846127096753","-0.5264369800636317","0.3547295322187187","-0.26798657582181074","0.348010875393533"
"-0.004114654324561537","0.03535768480518889","-0.05092215235179391","0.11208492693383149","0.061009046821160824","-0.5802652583882121","0.3145498960437209","-0.15866292181181627","0.36914295215176524"
"-0.03150686435201772","0.04585392421769599","-0.05971806133024627","0.06728144882516451","-0.07294618264795748","-0.6184158686344883","0.277825374213868","-0.06897786837373553","0.3526524142947997"
"-0.04968489336145086","0.07304858468863594","-0.06102536595183827","0.0066601873477849655","-0.14495331114373855","-0.5498321380009156","0.23608536381848158","0.001410274506412722","0.3115323020568163"
"-0.03408722016479742","0.07760855411178352","-0.04920592780117313","0.01439087408128678","-0.1324267943575213","-0.39596771754201565","0.2118995634024632","0.05372974390591266","0.26815679415554133"
"-0.035050039497924186","0.10009055370053203","-0.03472851011182092","0.06644963317125711","-0.06400721814728468","-0.24203049057501214","0.18882831600100808","0.0933737011265232","0.2348161626112305"
"-0.026066935119851566","0.13152837478503868","-0.10972401204526552","0.028636679904050288","-0.04639015852494133","-0.00025221158103900886","0.18696143970161477","0.11483816648357258","0.20734282848084495"
"-0.00877469989689503","0.07617200793588076","-0.05555038245761963","-0.03731744415449108","-0.045885172846322334","0.13226048693468417","0.20635466215501216","0.10559010857620221","0.20270128957957811"
"0.0012626916509513944","0.05176838114147782","-0.06374323780336288","-0.03843904743782686","-0.06454331668761953","0.14998644477430256","0.23321538980598178","0.08965336970016309","0.21240929699983335"
"-0.007571175730486587","0.06342382918182835","-0.06693818290542107","-0.07172515208851452","-0.06727406862745024","0.1560196774124859","0.2668191631950578","0.07007545538555875","0.21687105798591025"
"-0.010344095409891627","0.045302365273802735","-0.05059171200510399","-0.08382980280214604","-0.08905546512560904","0.2504327302376055","0.3012031236943281","0.039314119261998806","0.2218231223770505"
"-0.018518431548137797","0.058168957812419805","-0.03547406614404005","-0.0676093975509519","-0.07524374782082116","0.3497650761269236","0.35029918398583093","-0.017746793806415414","0.22466688212641822"
"-0.02132986400086792","0.06086858435701218","-0.027853285648503732","-0.05718955863632262","-0.03367457127137385","0.4535143501745256","0.3954943087263626","-0.08138688872704877","0.2300275326884447"
