"AccX","AccY","AccZ","GyroX","GyroY","GyroZ","MagX","MagY","MagZ"
"0.04124569009770615","-0.06972000695222136","-0.02206851432926328","-0.08739005082083762","-0.06918870627150331","0.558428528351785","-0.37131816529301975","0.8397355100446001","-0.6689274170484545"
"0.021591659050589698","-0.0953160813315385","-0.01551133869963514","-0.028418749606960968","-0.05454412159155236","0.612839258741194","-0.2645161226725148","0.8026773150919563","-0.6511294034446533"
"0.011154697479495677","-0.13292907740935095","0.00334833756247548","0.059649732750484075","-0.10531313202067469","0.604223821948937","-0.1577140800520102","0.7376374784538164","-0.6751379268459242"
"0.03453869062314518","-0.11764954433087695","-0.013927290287690325","0.06533765738391564","-0.05430239858899066","0.5008628492778874","-0.06122165281621365","0.6636530151948534","-0.7181702223636547"
"0.018271857989968655","-0.0981050375732586","-0.008549993220961886","-0.0806970156056013","0.04442828482366119","0.4169897519425628","0.02613143970016583","0.6140881741706159","-0.7108483581813748"
"0.005277648270089961","-0.1057146813076502","-0.010295957402784764","-0.11394942402030893","-0.011552847931984625","0.29952858553545314","0.08570429832856136","0.5898004785822152","-0.6922822025763076"
"-0.002439348684920988","-0.10084309666196406","-0.021657529148067692","-0.047891323005029136","-0.04715122698845243","0.15957506189154408","0.12867031703996712","0.5749587308706722","-0.6714279644142778"
"0.003109379131888517","-0.10474867411778067","-0.025643465830014877","0.01318166058440289","-0.08148067994632406","0.05792989592813552","0.15550318086557277","0.5595496985799323","-0.682051204857318"
"0.005558791515362968","-0.1030347903938186","-0.039123366722796885","0.03427839255670921","-0.08733947113712645","-0.05070954858042366","0.1444691060213983","0.5646684524573355","-0.6773933225092157"
"0.006736319559776982","-0.09204827636451751","-0.021742204486906985","0.051848572746304","-0.06830557965818385","-0.13500249677914555","0.13312852909821918","0.5633887639879848","-0.7005192997813725"
"0.014769121256053506","-0.07861246668606334","-0.007492584111554136","0.05333505812782368","-0.05824415883868493","-0.25050031435106207","0.11036378377576872","0.5621486535125313","-0.7407568658902417"
"0.014985755606007034","-0.07845873650961098","-0.007792458726175242","0.027921356951673908","-0.021293806275810147","-0.33175237739465774","0.061128404357445834","0.5888901847225739","-0.7559399280003717"
"0.012732758366490429","-0.08837329417337945","-0.011013219480318576","0.017085610210090935","-0.036017609088283796","-0.3879590016506218","0.006375987517035861","0.6270037928458164","-0.7654191271649305"
"0.00799472442817366","-0.11883368217652347","-0.01736593514543233","0.04593247645780756","-0.011576062913418768","-0.5103710106087749","-0.09178826924060525","0.6800910753269267","-0.7637194086940441"
"0.013754309678937912","-0.1288988538645189","-0.0042501382096592774","0.09550252783325174","0.024264757134727248","-0.6255023687565701","-0.1954138357696054","0.720869601705931","-0.7908331869940499"
"0.03344203940271381","-0.0857110614554917","0.004409257600566811","0.07166966149936577","-0.018386429013315556","-0.6803499381946005","-0.3136400467893816","0.7533367493664709","-0.8301718635269696"
"0.05240284052997899","-0.0440584933761711","0.0028510248407071477","0.01860868007638896","-0.035117729395578855","-0.5745863507561328","-0.4484730977261474","0.7894186871363111","-0.8534449318206454"
"0.07365707730875211","-0.013764300158380942","0.011498029137932365","0.015989038416340334","-0.01712468280588458","-0.4706671948562891","-0.556668331614856","0.8215824035103039","-0.8657515472877367"
"0.09156705741584276","0.0010390848600541046","0.013769393470992215","0.020688219211157436","0.036906152179587676","-0.3605837546036756","-0.6644734719484676","0.8474796041838674","-0.8733349066193838"
"0.10498567789776372","0.002203383203199004","0.019199147942757677","-0.006276471569673828","0.08607883347298076","-0.14840374803741127","-0.7156593191422759","0.8614374433650342","-0.8713736929991303"
"0.09697530989194905","-0.005857894860391801","0.037379769292420505","-0.05438988280118063","0.10820007815295897","0.107651887195674","-0.7071608524062326","0.8670311331692069","-0.8464499365750744"
"0.08287703524277391","-0.030008801709315972","0.04491587444911754","-0.09111974276902887","0.08385785380587918","0.33838299202673056","-0.6414579521977405","0.8710021252235841","-0.7963736154712662"
"0.06842704269120757","-0.04154064237805955","0.025045463776569125","-0.09272560910087785","0.02195522547658823","0.49729533038081203","-0.5468881289120653","0.8628094804868124","-0.7459213950902429"
"0.047490536292366284","-0.053920076452107994","0.0208259470745555","-0.10432192802601041","-0.07632551808971115","0.5777222529992337","-0.4085442359794259","0.8419122997089599","-0.685270863883901"
"0.025948416532988263","-0.07679782737348047","-0.012477483266588292","-0.07483194504587465","-0.09720942819222005","0.6046606609975584","-0.3095997921115905","0.8127169328772754","-0.6545942141737677"
"-0.00019212836140312844","-0.10182987820000282","0.0031038117059249385","-0.040739056230864774","-0.045217442967958814","0.6700894429466427","-0.2097358420067409","0.7683631943828686","-0.6406695974699674"
"0.006263575267211752","-0.12108769895288574","-0.010342632101754715","0.004941005388083081","-0.12310011573392773","0.5959238800251289","-0.09390591996827531","0.7052231014518063","-0.6569476705180722"
"0.009726836408468692","-0.1148657816761992","-0.02900776160975164","-0.05764493919685294","-0.03328446385139803","0.46295492739195654","-6.05561420658829e-05","0.6507637818489179","-0.663893635423137"
"0.010359408710332967","-0.12448430487855604","-0.03412752173127862","-0.07406848461352677","-0.04411413302557323","0.31591004985875876","0.08882504676933763","0.6107240446893327","-0.6539568197471856"
"0.006410886625180145","-0.1110225272648903","-0.03990609729401864","-0.04136195522169588","-0.08661430212944135","0.16970972781956248","0.13003564448280686","0.5921487728867971","-0.6477789968433868"
"0.0028359384412805057","-0.0955155150739632","-0.024833886980624564","-0.007603814442407763","-0.1430147405291348","0.0791481392731223","0.15204806652042727","0.5801830260651354","-0.6579119338813636"
"0.012916656859117637","-0.09245233743640915","-0.07474896660030411","-0.002169959428265741","-0.07747190737908793","-0.03251762908894239","0.1584846101795287","0.5746157215902276","-0.6756282302509875"
"0.012023160517976004","-0.10623404001188114","-0.08843126220543368","0.04291329371399554","-0.0007820538653640558","-0.12269334314243358","0.14538861225841299","0.5808294666321269","-0.6814301538775711"
"0.0049907281088181895","-0.09603798993041951","-0.042654947928045424","0.08877772188123423","0.06183234100810363","-0.2304736708553705","0.10994582639530763","0.5854996699120257","-0.7064519709826396"
"0.006037312723926962","-0.07870283510059953","-0.019689343833095844","0.08157924312629722","0.09560176245508974","-0.2956403493752819","0.08550925155101279","0.6008691242088682","-0.7150486240180846"
"0.007909996326858515","-0.08471597017818525","-0.003145228300414851","0.10168723125998907","0.04998073399141511","-0.364563843713338","0.049119095625528804","0.6222544335781226","-0.7233674384573269"
"0.018494269255920927","-0.09508236991463458","-0.007137154213645792","0.09383504552703922","0.07539994201327473","-0.4478787578198684","-0.00800174637082771","0.6483231388919085","-0.7484219424560662"
"0.015021379921332727","-0.10861270287725878","0.01688751119244499","0.0844068386998227","0.032246402813373494","-0.5848035307266686","-0.08822169959400361","0.683428819478945","-0.7671842194231588"
"0.022611284724370934","-0.09677028570338511","0.014757410107595082","0.07236380396055468","-0.0416418571676897","-0.6887226866265123","-0.23918790541656956","0.7308036781741903","-0.8046597430168375"
"0.05144579811285099","-0.059907243594482164","0.0166171696838093","0.018875361715431027","-0.0657974043444743","-0.6177848788975905","-0.3831602910727523","0.7788117847717949","-0.827295416883931"
"0.07566166716032201","-0.025428057937999172","0.01953103396596437","0.019486707711068984","-0.06441647194370102","-0.5193262111055154","-0.5016930041715332","0.8147486032306779","-0.8416122763117821"
"0.0945982052403924","-0.00015658274882634268","0.02312994239185098","0.014963710092947544","-0.0002050299453875605","-0.3889297550920029","-0.6115322037567226","0.8410283911785834","-0.8563867522510258"
"0.10253838371682214","0.003132619796808984","0.027292664659277273","-0.0050584007764751795","0.049853889247496584","-0.15916454993512044","-0.6742536746512584","0.8566748914327079","-0.8548994985890003"
"0.09567507052352803","-0.005998848812720075","0.0330117609596131","-0.04253362148420202","0.08481517262790572","0.11182612699361262","-0.6674270374370597","0.8653820500901466","-0.8307275407193747"
"0.07999627979805866","-0.026886417179479625","0.04220626360626018","-0.08855882883454547","0.04894682966362645","0.30654227914943144","-0.6110863825508972","0.866595775236335","-0.7881365182662012"
"0.0679995509072993","-0.03992232065567597","0.0325987105262507","-0.10432192802601041","-0.006387634227740444","0.4477869048703773","-0.5376373388911918","0.8633239944074792","-0.7396945418459377"
"0.05138995459152964","-0.04872856684461562","0.013589303482046207","-0.10147218921169807","-0.0777303834610351","0.5504198124603912","-0.44262169439969123","0.8489176046288082","-0.6929849707902316"
"0.03286819908017025","-0.07705127442114516","-0.020558814995323697","-0.07490318851623246","-0.09607021879400847","0.6208237057965533","-0.3397205873301572","0.8200784397422008","-0.663125493421871"
"0.008886295130649044","-0.10370995670931883","-0.012931838743286935","-0.03840150020344909","-0.07820186298088316","0.6524217303135073","-0.19939836279666842","0.7666877259745433","-0.6410781836408537"
"0.012038565627306031","-0.1120820190215214","-0.029833862476476448","0.010024419548032636","-0.1175500598632289","0.5936426094378833","-0.08866752079982897","0.7026505318484721","-0.657013044305414"
"0.012329337065910316","-0.108498443962328","-0.038906515245281624","-0.054577618973069446","-0.016490698415997502","0.5293059251103528","0.0014719542529581502","0.6481780195809511","-0.6668354558535173"
"0.0066852901351212805","-0.12166938070162435","-0.03532536798802959","-0.08591126743611338","-0.014352766156706739","0.39218700151527647","0.08637303013729893","0.6089166496346826","-0.6444285902421203"
"0.0002594339058333106","-0.12238609571346307","-0.04759709636322657","-0.03565862659467345","-0.029254630270077325","0.2226036559568136","0.14527715695695656","0.5813703658820587","-0.6318768230724973"
"0.004530500467583596","-0.11318305947449095","-0.044922594807205014","0.01549707337103168","-0.0453754005735932","0.060342218229967486","0.1772091008241882","0.5564362297266664","-0.6393621217231319"
"0.003981693447701342","-0.09705073940366983","-0.03745051246767916","-0.002532530927411023","-0.035567669241931325","-0.09401971336764017","0.1721100207825622","0.5576499548728547","-0.6442488123269302"
"0.012084780955296127","-0.08345185109208715","-0.02813622519535697","0.02436399718178061","-0.03828645469648669","-0.12108917308055135","0.16213477130222279","0.5678742699630289","-0.6509496255294633"
"0.009612260907826619","-0.09866179010419415","-0.019666626059260908","0.0788209655239307","-0.008327162161166208","-0.1927380577052848","0.1463359823207916","0.5746816849133899","-0.6691398818573152"
"0.0018278665994967992","-0.09427009290121742","-0.023937567540228154","0.09579135271308069","-0.002324294487648807","-0.3101531133239289","0.1166610083080501","0.5852622019486411","-0.6911545047446618"
"0.0015515374508894147","-0.08908585431558429","-0.014970242631930392","0.0638271032624102","-0.046919077174110986","-0.4224207488196498","0.05118101870247066","0.620156799901558","-0.719167172620617"
"0.014603516330755715","-0.09062627223233322","-0.01481534871941949","0.04867342456738434","-0.07169448828815778","-0.5337176308739897","-0.04670459980152971","0.6635474738777936","-0.7440909290446729"
"0.02938857001025016","-0.08984619545857837","-0.015199485622446527","0.05385879390991353","-0.0534240585697813","-0.6036118786534269","-0.15007939190225322","0.7043260002567976","-0.7720709100269573"
"0.035736437873554856","-0.09144374283279272","-0.007572715895626444","0.05895559028929516","-0.029528902112587924","-0.6096790876620586","-0.2822096517787034","0.7467140317209644","-0.8019303873953181"
"0.04600779451935108","-0.07303559292003162","-0.0033990477917160457","0.07405054125875578","-0.012343353949273038","-0.5687618301078464","-0.4050891216342804","0.7782576928572307","-0.8372322325598824"
"0.06842993114920695","-0.03421352977876958","0.005953240120475472","0.038479831808621086","-0.019071390630475544","-0.5159528428967161","-0.5472782224671623","0.8105401432129159","-0.8670426795877368"
"0.09481589869161236","0.004522818401946169","0.008968570241586015","0.021050213060543062","0.034479348965750396","-0.39509403944477267","-0.6458604366052645","0.8358304813133851","-0.880738488035841"
"0.11190411249787934","0.009844188459844447","-0.021550136035393463","0.03701548966788828","0.16436118684714576","-0.12474648667095455","-0.6762598700774719","0.8410547765078484","-0.8801174370560941"
"0.1107410267434622","-0.004324332478538711","0.00826396815983476","-0.018100962149871256","0.2721744325837744","0.14305769208644517","-0.6274703118649742","0.8292473416617764","-0.8683338118877373"
"0.07827668446909428","-0.024737310861372035","0.06082451189007047","-0.09844915546948833","0.18555143897270318","0.36374392568281105","-0.5303927442965319","0.8252895422720316","-0.8025514383750652"
"0.055585921245296044","-0.05364585505627407","0.06247051786701965","-0.11638518050686647","0.03939278781980161","0.4974894810690882","-0.4318662578091578","0.8148937225416352","-0.7326995466003667"
"0.025575805451068214","-0.059241425735658104","0.06505414832770148","-0.07975833474615719","-0.05724854726377733","0.5917981778992594","-0.3396091320287008","0.7945638263429794","-0.6856957935016227"
"0.00939562655787309","-0.07115759184553257","0.048668437636214965","-0.026292035741820426","-0.09515358602191806","0.5957782670089217","-0.24336747922118102","0.7576639433659252","-0.6724412581180754"
"0.010778235120243122","-0.10379305410199577","0.027096878753863494","0.016564762676799388","-0.12551255916543463","0.5909244998020163","-0.15634875260917033","0.7062389366285076","-0.6977572572661821"
"0.02345471446018997","-0.10628597588230422","-0.0025432072937891493","-0.04661856803458287","-0.09850420189901095","0.5266120843105204","-0.07214427235893138","0.6504339652331057","-0.7198045670471994"
"0.0003441620071484728","-0.12150318591627048","-0.02228536580677854","-0.1554631867477241","-0.058957361361094696","0.40138489037236214","0.014122130968249113","0.6173071843409417","-0.7085439321775768"
"0.01228793583458586","-0.12745503666675692","-0.06693611765325426","-0.12970963496297558","-0.17343354609902803","0.26664431270866934","0.07051851350513953","0.6070300985922377","-0.6858101976294706"
"0.014207797584840616","-0.10101967862140257","-0.05931946766205156","-0.059247917279903646","-0.15141760648947272","0.15698800397026355","0.09024610186290587","0.6056712541350918","-0.6761021902092155"
"0.008871852840652141","-0.10240117277465684","-0.05134346379382356","0.022501076706883845","-0.11088472756486914","0.08569829811884107","0.10863622660319612","0.5911593230393608","-0.6979370351813721"
"0.01536414360392584","-0.10368918236114957","-0.04355333262060865","0.056099112227786796","-0.059823734895028714","-0.011697880031642535","0.10819040539737076","0.5755655934437663","-0.7257372382484665"
"0.01435992303947465","-0.10089503253238714","-0.041260902715447315","0.08626975917471946","0.011130103566817654","-0.08098006776628892","0.09531731807916759","0.5618452222259843","-0.7577050202585999"
"0.010051306523732404","-0.09689389307499209","-0.011310615792339504","0.08117007454653953","0.04710638422828043","-0.23101729278254393","0.0813018139210372","0.562412506805181","-0.7748656394358188"
"0.008334599652767399","-0.09054317483965628","7.904338241206399e-05","0.02751218837191622","0.10681675245513061","-0.3088425961780645","0.06979405404567345","0.578045814394673","-0.7628858929054364"
"0.0028523063699436566","-0.09332070518988328","0.006962735379613185","0.04854441612106075","0.02087584850475331","-0.41310151578239157","0.031453430344704644","0.6114760265733843","-0.7576559899180936"
"0.01814957993466155","-0.08702607769460442","0.0016878748203586213","0.08292516706630017","-0.007555802520318327","-0.5576952408761022","-0.05896468296172321","0.6513838370866445","-0.7767287923750595"
"0.023767630743456166","-0.09561315451035861","0.014959804819942659","0.0679264910567825","-0.028390171373787364","-0.6032235772768744","-0.18621877339946025","0.7034684770556862","-0.8010968716067103"
"0.03407076042724558","-0.10280627256395698","0.01930612800499854","0.0852136228641449","6.158334654683021e-05","-0.5791003542585549","-0.2989558108225133","0.7372812765087393","-0.8314793392738054"
"0.052810113107891604","-0.06426258568816275","0.0184946904286581","0.06200076727229177","-0.05116957274390881","-0.5709945630230228","-0.3986247141498147","0.7569911174696685","-0.8671407402687494"
"0.07400561790734399","-0.02558905913631076","0.027493200644674722","-0.010461544078395389","-0.05244041348014904","-0.5076043633008389","-0.5160428742340326","0.7929279359285514","-0.881212447994069"
"0.09403187490864724","0.0032382054213791318","0.035779198863141196","-0.028367723878191187","-0.0031368188378438308","-0.3651705646142011","-0.6138449012619407","0.8277829558875707","-0.8749692513029285"
"0.10312676261129589","0.00940782327654962","0.03120466531365259","-0.03257879062609736","0.07415542754464023","-0.14281706198226318","-0.6740029002229818","0.85514454233534","-0.8589690168510262"
"0.09341191554004692","-0.019383761338159604","0.017429639886233146","-0.061046333531638616","0.0716257125574351","0.1456908607961913","-0.6600431237155795","0.8655403620657364","-0.8219347663219047"
"0.0814231780497525","-0.02893892277860026","0.014166747987886846","-0.06763057804213936","0.03435729081594202","0.32804446787602215","-0.611002791074805","0.8674269131081813","-0.7842467779193648"
"0.06480780481798411","-0.04537247089787535","0.00853928692619247","-0.07113498658406402","-0.010012761277049434","0.45285909160159343","-0.5299190592653427","0.8547487623963655","-0.7480133562851802"
"0.044163032677080216","-0.057609600686964524","0.010502660203615647","-0.07535086707996734","-0.024409161052390008","0.5529195025719474","-0.4327021725700802","0.835553435356103","-0.7113386615864382"
"0.03287493881550214","-0.07731510864289447","-0.003280708842557717","-0.06617971439579858","-0.07455687156601712","0.5994185924141007","-0.3058381756874403","0.7969516986414587","-0.6812176890687102"
"0.01867816774854814","-0.11587333756240717","-0.007396343360580699","-0.0313965341179975","-0.046308786425069075","0.6175959506039612","-0.19864603951183837","0.7511071890435812","-0.6710193782433915"
"0.010019533485739227","-0.12050601720414708","-2.050177202827484e-05","0.009811748161518584","-0.0703638151255409","0.572941292300432","-0.10750346674594427","0.7006188614950699","-0.6780960907231399"
"0.02106788533336874","-0.10608861957469645","-0.019600537989922923","-0.04278104813125549","-0.006020502459493267","0.45106319773503845","-0.013602375269006943","0.6463178538677711","-0.6844046612016222"
"0.0064195519991783","-0.1120820190215214","-0.014608823502738288","-0.12038059134450033","-0.0016374182328447661","0.3371695502250042","0.06229868502273697","0.6183757901761727","-0.651374555147185"
"-0.0014476447718004327","-0.1112406579206673","-0.026923922173438322","-0.056550292902301215","-0.057423257948797164","0.21816488584609867","0.13237620581338913","0.5907107724418564","-0.638381514913005"
"0.005693586222000725","-0.11111601183165187","-0.03129399575841254","0.03010679854237967","-0.13099560271859162","0.08424459484037292","0.15815024427516006","0.5684283618775932","-0.6590396317130093"
"0.011747794188701761","-0.10605745805244263","-0.05820010098763944","0.03127076280809036","-0.07233828519597062","-0.048464681247229933","0.15366416839154345","0.5636790026098994","-0.6780634038294691"
"0.009185731943251467","-0.08861012174250876","-0.042770602049386895","0.030445686401378975","-0.07886241296808147","-0.12751070709528714","0.13878488564712693","0.5671882514021398","-0.6957470133054222"
"0.014804745571379199","-0.09486008438922375","-0.034732640616154546","0.06111600039041574","-0.018860541159924197","-0.19517950261035819","0.11810992722698228","0.5760537220351681","-0.7142968254636539"
"0.008611891620707909","-0.09174600959865511","-0.022442324971456255","0.06855805479400849","0.03576933607843117","-0.2779726367421464","0.08536993242419241","0.5863440004485048","-0.7461175164522682"
"0.004304237924298806","-0.08665110071014968","0.004582325732145658","0.05488123398450803","-0.008550935435814911","-0.3857019998994108","0.03708192306824783","0.6142596788108381","-0.756315827277587"
"0.014970350496677009","-0.09135856800529882","0.0037095501664509024","0.042789099015669095","-0.03388996800632982","-0.48469458208424554","-0.03344141892822938","0.65662132494574","-0.7638174693750568"
"0.025489151711086802","-0.09761580167387306","0.0018970848648566787","0.05927137215790815","-0.024649448076718664","-0.5731059517580267","-0.13065830562349187","0.7017138526595661","-0.7831190800877192"
"0.04194180847555679","-0.09297377357545701","0.006221103326510991","0.07908379616457505","-0.056686122455836735","-0.6122515842817184","-0.2623984719448452","0.7389435522524321","-0.8197937747864611"
"0.04585855752271644","-0.0798880116636545","0.010599004217197425","0.07390997981723903","-0.03020692316828822","-0.5820368834187325","-0.40949160604180435","0.7704476353948009","-0.8652775873295087"
"0.06885453447511584","-0.04097765754267322","0.012412316272180042","0.023783459173324403","-0.03093328882450086","-0.5014643477841036","-0.523454651780877","0.7976509098669802","-0.8922769615016662"
"0.08968041293258087","-0.007963063432121453","0.019824093248434992","-0.003750794270529556","0.004303463046946418","-0.4139509250436","-0.6112257016777175","0.8213185502176541","-0.8910021726485015"
"0.10210983283164742","0.005538600930029191","0.02821562585262556","-0.020122736308673946","0.083742975547236","-0.22688673688946745","-0.680327988580627","0.848640558671526","-0.8784340620320431"
"0.09999798490636717","-0.00803369621589686","0.030226355362233736","-0.04469210608612374","0.12221043911331735","0.054092992951076835","-0.6810803118654571","0.8606063054931877","-0.8523008905421641"
"0.08735260463088032","-0.025205772412588333","0.036309968670011884","-0.0770202748853787","0.08303695291599143","0.2710612408669532","-0.6281111798483481","0.8635086917123339","-0.8065719262965849"
"0.06958627716829219","-0.03891580348687643","0.029267252255966242","-0.06937122931790853","0.022297466955462714","0.4187613769730833","-0.5469717203881574","0.8564770014632207","-0.7598460117940432"
"0.05022879447577878","-0.05415898145605422","0.016295403396219987","-0.07939537814717214","-0.04028485773746708","0.524888996952069","-0.45992512995078266","0.8401840606421045","-0.7238577418623902"
"0.03229917285429234","-0.07583078146620248","-0.007150784877946747","-0.049934277655019274","-0.10088313917174689","0.5622630044452402","-0.36398997922226756","0.811555978389617","-0.7023497658269425"
"0.01914032102844898","-0.09569936805526093","-0.010666257116294158","-0.022396750862527254","-0.025410516540229765","0.5970159776466826","-0.2673582328596508","0.7707114886874505","-0.6956979829649157"
"0.014782600726717283","-0.12163821917937052","0.013260515337089737","0.008219745423901382","-0.06442843842897636","0.5935698029297798","-0.15046948545735037","0.7140885720848348","-0.7021699879117527"
"0.03399373488059543","-0.10130013232168729","0.000642650698735063","-0.006001702833996547","-0.021756909255965486","0.4887769689326931","-0.05874177235881069","0.6529405715132774","-0.7215533158585922"
"0.010269866512352182","-0.09721901162384063","-0.0035894640414961135","-0.13040281467456508","0.02147656606557496","0.4264545979960283","0.02618716735089404","0.6185209094871299","-0.7005519866750434"
"-0.0016690932184195834","-0.1191764589213159","-0.012471287510087857","-0.12805370565195623","-0.06732193456855157","0.2925148919214749","0.09278170997103673","0.6029799505500653","-0.6595462785649082"
"-0.0031036940247784572","-0.10594319913751184","-0.03528612819686017","-0.015209825102783413","-0.1406477697416742","0.15523579400857068","0.1255774324245548","0.5846157613816495","-0.6645637167433901"
"0.005414368615393967","-0.09930579489744051","-0.04262603439771006","0.028313196038641852","-0.14285438962644534","0.02753803256209762","0.1344381288903307","0.5712647847735769","-0.6880655932927623"
"0.014205871946174368","-0.10228691385972608","-0.04911092620149978","0.015297784203949701","-0.060984483966735885","-0.0518259150380119","0.1286424532146032","0.5682700499020034","-0.7115020960547926"
