"AccX","AccY","AccZ","GyroX","GyroY","GyroZ","MagX","MagY","MagZ"
"0.015374734616590243","-0.09688662205313284","-0.035153952058184196","0.048383636937955964","-0.023007406967237652","-0.14003099960549953","0.12334832639542863","0.5668452421216953","-0.7362460745636586"
"0.01193169268132897","-0.08851352102352181","-0.0210400187501909","0.07036513579213832","0.016545656143021774","-0.23162158679980363","0.10144735965926434","0.5744574096146378","-0.7500399436927754"
"0.005439401918055255","-0.08964572299874522","-0.02066414285583111","0.036174046517986586","0.041063309164237914","-0.3001058152056348","0.07313771308936286","0.5965815082033111","-0.7584404753661951"
"0.00551257618737289","-0.092852243638667","-0.006175779329994798","0.05128055048264039","0.0025793318484766234","-0.40713138211789796","0.01799520269385574","0.6354734835398703","-0.7530144510168266"
"0.020447829682835112","-0.08967584580359061","-0.002531641881655002","0.06587390891079807","-0.013551729632376035","-0.5067064163675614","-0.06877274948987833","0.6733628163643606","-0.7758625896927809"
"0.03126799334851359","-0.09065535631977015","-0.0018676633100249394","0.06669609706871116","-0.00599537284041507","-0.5748533079525127","-0.16448498961548058","0.7087851209025767","-0.8034012976105083"
"0.041077196714408966","-0.0938317541548465","0.011430991052597645","0.06915592229525443","-0.02159392572651547","-0.6011849950499741","-0.2852468087433878","0.7449857926541092","-0.8324762895307677"
"0.04874894116076295","-0.07726940507692216","0.013803470131744613","0.06534343388151222","-0.009867488145806905","-0.5680337650268106","-0.4094358783910763","0.7728487003579129","-0.8612080690674824"
"0.07253731842432569","-0.03890333887797489","0.014099833817682138","0.017980004587961267","-0.013947580965284008","-0.4846703132482111","-0.5299190592653427","0.8015427459335627","-0.8838273994877405"
"0.09285530968356635","-0.007985915215107614","0.02364191840400368","-0.0028071071131684166","0.01930584563662979","-0.3923759298089057","-0.623402193361819","0.8319782232407003","-0.8854127138307788"
"0.10037030714248729","0.0009757230981379311","0.024579542887736335","-0.008861743069022805","0.09338796267915336","-0.20118603952890357","-0.6760648232999233","0.8481392374154916","-0.8770285256041946"
"0.09480044544131569","-0.008478267266718537","0.029295546210651568","-0.04643853385948949","0.12515419449104895","0.07087246618534866","-0.671913113320676","0.8570442860424174","-0.8492283225371003"
"0.08093021455119162","-0.028383208965073164","0.0487427867142202","-0.08112351367814873","0.0928375043564881","0.28858334048388157","-0.6075755405550236","0.8570442860424174","-0.802110165310508"
"0.0658370586850966","-0.03712505467468818","0.0327205604040926","-0.08455860424891444","0.016795277025865193","0.42764377096172007","-0.5261017151904641","0.8520574588113389","-0.7493698623725222"
"0.05259829285460372","-0.05633717186159875","0.008995108731929548","-0.08382113805575117","-0.04991787838410911","0.5384310074593348","-0.4264328118631629","0.8369914358010437","-0.7068769006003612"
"0.03330724469607606","-0.07733588299106371","0.0032463141054349665","-0.04898115555158372","-0.10793618559302741","0.5738392392337095","-0.3398877702823415","0.8069253531036157","-0.6870196126952938"
"0.020594178221470378","-0.08703023256423825","-0.007140871667546051","-0.02164580617497197","-0.0381500367643479","0.613810012182575","-0.2314417619653563","0.7623209539811915","-0.6817897097079509"
"0.011027605327522933","-0.11779496476806164","-0.004566741366831558","-0.005234295128291014","-0.05848348854419157","0.594176523830643","-0.12750969335735135","0.7056056887261484","-0.6854669852459263"
"0.017092404306888374","-0.1123001496772984","-0.008637559912834719","-0.01363284125891732","-0.03944002387702867","0.480574102353023","-0.027422832649589047","0.641700421246402","-0.7037716457016264"
"0.01249590481054125","-0.09877293286689956","-0.013051623368962033","-0.09236361525149223","0.007368558585369883","0.379130367728701","0.046109802486208634","0.6045102996474334","-0.6920043639801049"
"0.008727429940683123","-0.10609900674878107","-0.02911928522675949","-0.11622151307496338","-0.0330092346900654","0.26797909869056835","0.10743808211254072","0.5869376703569664","-0.6638282616357951"
"-0.003970231424592535","-0.1098487765933284","-0.024199854565413275","-0.04026153242954757","-0.08816276532406928","0.15247642735144498","0.1444691060213983","0.577333410504519","-0.6538097287256665"
"0.006693955509119418","-0.1128195083815293","-0.036634737861788405","0.014237796894977436","-0.13827601236010342","0.02765452297506335","0.15633909562649498","0.5640352045549765","-0.6801390215775707"
"0.011897994004669527","-0.10445783324341133","-0.042109721356007046","0.03212279620358578","-0.08853851296171471","-0.08654976563621283","0.13307280144749128","0.5685207105300205","-0.6936713955573205"
"0.012365924200569135","-0.08539944623295313","-0.028105246412854796","0.054290105730458095","-0.08168650349305975","-0.13912334513780822","0.11487772348474928","0.5722410419563806","-0.720082405643402"
"0.01597938515779384","-0.0816226697357858","-0.02425148586958358","0.054215974011301994","-0.02955714301783771","-0.24372930909742907","0.0938683991602357","0.5740616296756633","-0.7486670941585979"
"0.006018056337264438","-0.08942343747333438","-0.01601319497617046","0.03378257651300284","-0.005049302514547345","-0.3519925866474531","0.04661135134276189","0.6020036933672617","-0.7592903346016382"
"0.011209578181483893","-0.09053901997002244","-0.01428870941688243","0.03239814258902272","-0.04715601358256256","-0.4276142797310386","-0.026642645539394747","0.6416344579232396","-0.7743426491370844"
"0.013775491704266701","-0.11042007116798241","-0.01368565578417332","0.055496430978543704","0.02376216475316332","-0.50498332900911","-0.1247790384716716","0.6866874076431682","-0.7860935874117705"
"0.026480855624207364","-0.10725198307217375","0.0029927011393504513","0.09763405544638941","0.03681520689149516","-0.5847549930545995","-0.22497735448089062","0.7245107771444962","-0.8098569591105097"
"0.03935182446944582","-0.08644958953290807","0.00619363547269239","0.08931974990571323","0.004013395443872376","-0.5969622175799665","-0.3219991943986045","0.749787922580333","-0.8464662800219097"
"0.05757510598753591","-0.05644312103726186","0.010563502532449929","0.041622246501160115","-0.033519006962794536","-0.5576467032040332","-0.43844212059507975","0.7771627016927347","-0.8752634333459665"
"0.07897087720827867","-0.026214367016204797","0.012272395437878529","0.013534026937794215","-0.01052851679241623","-0.4816367087438952","-0.5496187837977448","0.8060282519086068","-0.8881910997928045"
"0.09531310822343235","-0.00023448655446098226","0.017323898975292372","0.011204172907173975","0.08734249431805578","-0.36439396186109624","-0.6404827183099978","0.8272948272961689","-0.8912473243510332"
"0.09675973464326196","-0.0019776621093416757","0.03372220770499643","-0.02704683142777343","0.1454349937356811","-0.123183573630331","-0.6748666788092681","0.8440363187147896","-0.8786465268409039"
"0.08924204129020827","-0.016394332636606373","0.046640360008405574","-0.06437840989526533","0.15365118252572388","0.1296394526429553","-0.6511824272498031","0.8539440098537839","-0.8379350007738067"
"0.07898146822094305","-0.027040147355931975","0.04050243056864027","-0.07682098571829672","0.07003895660992612","0.3250836698798099","-0.5890739605132768","0.8563582674815283","-0.7904899746105055"
"0.06885164601711648","-0.042862929639031495","0.02169087468201637","-0.07259066397840196","0.008217221721096409","0.46545461750351286","-0.5004669958555138","0.8453951631719351","-0.7470000625813825"
"0.0492149457179963","-0.053845288798698744","0.013360060491530074","-0.07367279452816111","-0.027027906690043596","0.5618261653966187","-0.37850703223695153","0.8175850261266617","-0.7007644514839041"
"0.025924346049660096","-0.09359077171608336","0.001811583425150662","-0.05087103301526452","-0.03342806167470201","0.5869686795283885","-0.273293227662199","0.7825585015274201","-0.677622130764912"
"0.01207130148463235","-0.1005210942653409","0.012072396418044452","-0.016379565866090684","-0.017990099020996568","0.5876724757733898","-0.1889215644597759","0.7393921028499366","-0.672016328500354"
"0.01796760708070059","-0.10891393092571273","0.0022124488707288732","-0.01717864803361746","-0.07998247598985253","0.5145504728013606","-0.09371087319072643","0.6870040315943478","-0.679632374725672"
"0.020786742088095736","-0.09942836355163902","-0.01707473458991183","-0.07108203535609538","-0.03140572566317096","0.4383463276529464","-0.01332373701536621","0.6435078163010522","-0.6792891623421276"
"0.004839565473517282","-0.10368918236114957","-0.021686442678403056","-0.11688581029856998","-0.016088863840451866","0.3620936448324632","0.07121510913924167","0.6086923743359304","-0.6500507359535138"
"-0.0036910138179857602","-0.11121988357249807","-0.03746496923284683","-0.07127651077518021","-0.07210852867868425","0.2394777776516201","0.1272492619463992","0.5894178913078731","-0.6321056313281934"
"0.0045372402029154844","-0.1087788976626127","-0.03530265021419466","-0.010423996844017626","-0.12193936666222055","0.12540211387132694","0.15773228689469865","0.5772938325106215","-0.6394928692978153"
"0.011309711392129083","-0.11097059139446722","-0.04401801435814135","0.01634333026893052","-0.1350953205739203","-0.00575662628203003","0.1571192827366893","0.5670827100850799","-0.667407476492758"
"0.012686543038500349","-0.10413583084678817","-0.054112966949518476","0.030561216353310553","-0.05166737853136262","-0.10825338570189012","0.14795208419190778","0.5669903614326526","-0.687509916100357"
"0.015534562625889288","-0.08758386894294844","-0.030469960143854547","0.044980317103971434","-0.04112490500379537","-0.1752644957604255","0.12460219853681193","0.5706843075297477","-0.7135777138028943"
"0.01331333842436586","-0.07998045751300761","-0.024030503887734693","0.05383953891792494","0.027435875732690154","-0.2580236535217654","0.09958048335987135","0.5888637993933089","-0.7261621678661881"
"0.009835634993112017","-0.08840653313045023","-0.03160791408776797","0.04355159669841754","0.03676494765333875","-0.3454400009181309","0.06558661641569818","0.6141937154876757","-0.7262929154408717"
"0.01842398344460267","-0.08746026157134146","-0.020798384246673893","0.05760774085009337","-0.017455675788600255","-0.45312082640332624","-0.00758378899036661","0.6500117999648662","-0.7414759775510015"
"0.02086087917674649","-0.10068728905069478","-0.007513030108005578","0.052222119590882785","0.0009222129675486876","-0.5486672338712583","-0.11605766113271608","0.6936663272337515","-0.7592413042611318"
"0.023012780386284785","-0.1123624727218061","0.007931132120631337","0.0840718018392211","0.01819774910013407","-0.5562148418779961","-0.2321662214248224","0.7390490935694921","-0.7841160303446814"
"0.03675028663133733","-0.09008613917993305","0.0076227899721263035","0.1080124961282432","0.012989216719193189","-0.5653641930630127","-0.3316122141492109","0.759299833780353","-0.8236998585801328"
"0.053978975778307486","-0.052324606512710585","0.017398248053297604","0.06288457140456838","-0.026883112218212084","-0.5370424614107199","-0.4349591424245703","0.77878539944253","-0.8559618226333041"
"0.0759639924309238","-0.013716519157591698","0.017476108059986416","0.028887957549501478","-0.0023384149402736983","-0.47680721037302437","-0.5388912110325753","0.8030599023662981","-0.8770938993915365"
"0.09713340482644847","0.0076501056779504605","0.029158000416341884","-0.005339523659508696","0.08240033589934379","-0.3454642697541654","-0.6201978534449503","0.8293660756434686","-0.8766362828801441"
"0.10715548754689817","0.004020203822339643","0.03490146669224609","-0.05526791043586065","0.1503388594015121","-0.07590302726786592","-0.6592072089546571","0.8491814579214578","-0.8587565520421655"
"0.09759796515468212","-0.0237359872796148","0.04968041119795286","-0.09404265055289789","0.11501858146284298","0.20893544750216814","-0.6167148752744407","0.8629150218038723","-0.8058855015294961"
"0.07824394861176798","-0.03680720714769885","0.037183570336573366","-0.08192644684407321","0.014697073497688532","0.3906095271730322","-0.5522101195566038","0.8670179405045744","-0.7506283077788515"
"0.060888167312825085","-0.061670985754050396","0.017907126187200084","-0.07137182298552376","-0.050741172571051936","0.4842629654302711","-0.46769913722736","0.8494980818726373","-0.7146400378471984"
"0.03809341960104915","-0.06099374200373327","0.0065930552417538335","-0.04282148361443154","-0.08000640896040319","0.5326550244831175","-0.37906430874423314","0.8196035038154315","-0.6928051928750418"
"0.026096690710289788","-0.07105683625691177","-0.016729837478054226","-0.05059664937942701","-0.04838138167475652","0.567966180913354","-0.251392260926035","0.7748671780466827","-0.6787661720433933"
"0.009960801506418496","-0.10730391894259683","-0.007326331312125769","-0.05921325829432418","-0.07344398843541126","0.6106550634980866","-0.14890911123696207","0.7317271646984642","-0.6643839388282003"
"0.016439612799028433","-0.11657966540016125","-0.0005068686573125042","-0.008675836121372902","-0.11311528042019096","0.5261509764258644","-0.0759058887830819","0.6858298844420567","-0.6734382083750377"
"0.021282594044656013","-0.10173639363324129","-0.029720273607301787","-0.028828880936318083","-0.02522192473229054","0.43810363929260115","-0.00223393452046385","0.6377162365273924","-0.6865293092902304"
"0.005392223770732052","-0.11545785059902244","-0.03623407894142687","-0.10031688969238224","0.008693966494465622","0.35995798726142486","0.07586836797504229","0.6036263911170571","-0.6671786682370616"
"0.0003634183938109972","-0.10989032528966688","-0.008922358186638096","-0.05755347798490712","-0.0766629729744755","0.20112330918265398","0.13349075882795236","0.5760669146998006","-0.6531233039585778"
"0.01060300200161405","-0.10353337474988028","-0.037215073720662586","-0.006777679011137007","-0.10211329385805099","0.06661085857768576","0.1496796413644807","0.5651170030548399","-0.6651193939357956"
"0.009024941114619298","-0.09871684212684265","-0.0350857987366794","-0.00515515711121788","-0.09071162668771494","-0.007502040969633198","0.1499861434434854","0.5660536822437462","-0.6744515020788353"
"0.006425328915177046","-0.09783185489483313","-0.045358363014402346","0.03509287871782687","-0.07948227690534365","-0.08754964168083532","0.1462802546700634","0.5638768925793867","-0.6896345641889651"
"0.020870507370077764","-0.08854052767614179","-0.031207255167406436","0.07896826621264347","-0.013626400500494105","-0.18676307027358433","0.12554956859919056","0.5679138479569265","-0.7126297938864383"
"0.011214392278149533","-0.08477829322269295","-0.025211828127151163","0.06622916351298769","0.05409241833201908","-0.2614212905665991","0.09676623699809946","0.5776500344556985","-0.736556600053532"
"0.004075086923014642","-0.08849586282757792","-0.008827356586964742","0.039530191621599056","0.02466204444586826","-0.3493715523557242","0.058035519742033505","0.6024654366293987","-0.7419826244029002"
"0.013871773637579375","-0.09849144044920644","-0.00065721901505642","0.05717931727834708","-0.0017230982674161413","-0.4713709911012904","0.002224277537788192","0.6405658520880088","-0.7478008914763192"
"0.017831849554729724","-0.10301401604564935","0.0006963472550721751","0.08117585104413612","0.0182240753677398","-0.5342030075946803","-0.08239816009291154","0.6779274783271996","-0.7684263213826528"
"0.03025029331339861","-0.09610654527937798","0.008280593439777597","0.09761480045440081","-0.019730743969146317","-0.5794886556351072","-0.18875438150759127","0.7107772132620817","-0.804087722377597"
"0.041238950362374266","-0.08096204546400407","0.013080012297710367","0.07029196682258165","-0.06074515426122925","-0.5973019812844499","-0.3245069386813714","0.7450913339711692","-0.846842179299125"
"0.058380022950029885","-0.04907342102422496","0.009552148546362086","0.01639339324810087","-0.06660873204614179","-0.5594668659066226","-0.4529034459590355","0.7803685191984279","-0.8719293701915355"
"0.0811564770944764","-0.01334985191240466","0.015197721869559404","-0.0062557724532860855","-0.03161872910107186","-0.4751083918506075","-0.5605971309911908","0.8121496482980787","-0.8770612124978655"
"0.10153040815697172","0.007793968039022427","0.022992396597541303","-0.01207703790623868","0.05603338224367789","-0.3083329506213394","-0.6558078222602398","0.8413054371358655","-0.8717332488295101"
"0.10635057058440421","-0.0013974345649748817","0.02928935045415113","-0.038665293593692876","0.14449442799304008","-0.01215656103269509","-0.6694610966886373","0.8592870390299394","-0.846842179299125"
"0.09333469742953016","-0.026023243013047818","0.03886881610469197","-0.07213624616747105","0.11979799568181045","0.2426861177753845","-0.6283062266258964","0.8671630598155317","-0.7999201434345581"
"0.0747903156638423","-0.031825518456715766","0.03801173645546498","-0.08406182545560864","0.04266921148818743","0.4055591301703007","-0.5466373544837885","0.8623741225539405","-0.7514945104611301"
"0.05411377048494523","-0.05525275088716457","0.005661419989304936","-0.09576308408707904","-0.0111984006381293","0.5073668973351406","-0.45106443348500647","0.8444980619769263","-0.7070730219623866"
"0.025299476302460835","-0.08166006356249043","0.014350142380299753","-0.08112640192694702","-0.07768969741109896","0.5117838254934245","-0.35331813410782664","0.8216351741688339","-0.6670315772155427"
"0.024215341733360107","-0.07711463618306134","-0.007882297195431563","-0.02997840395803733","-0.09561788565060093","0.5341839611532928","-0.2614789657078307","0.7894054944716785","-0.6556892251117428"
"0.02733006227602516","-0.10625481436005037","-0.03816508971739611","-0.014505092396000764","-0.13303469180950814","0.5645442750324857","-0.1691939761020097","0.7392733688682442","-0.6651520808294664"
"0.0208252548614208","-0.11818967738327715","-0.027510453788812932","-0.021794069613284166","-0.08909615117554515","0.5539873313574666","-0.07649102911572762","0.6868852976126554","-0.6749744923775697"
"0.012619145685181462","-0.10602629653018877","-0.03499492764133967","-0.05481734362332748","-0.05132274375543305","0.45004390662158833","-0.0008964709029880828","0.638032860478572","-0.68175702281428"
"0.01116240003416069","-0.1154890121212763","-0.03417295727894849","-0.07500523997377202","-0.019327712745073146","0.33277689090275486","0.06475070165477598","0.6094575488846145","-0.6660019400649096"
"-0.004961935337713091","-0.10020947904280234","-0.02711599062495184","-0.0125227909707747","-0.05380459280153686","0.2054383082295928","0.11106037940987087","0.5836395041988458","-0.6623736948674405"
"0.004714398960210806","-0.09392420000419961","-0.012072693841893141","-0.006301117959419231","-0.0615373355864562","0.07792013616977525","0.13594277545999106","0.5671750587375073","-0.671068408583898"
"0.017684538196761333","-0.10565235826314248","0.0022196772533127156","-0.010999721104476676","-0.10707459865320353","-0.04629504730574324","0.1339644438591417","0.5662119942193361","-0.684061448818078"
"0.008881481033983405","-0.10216226777071065","-0.019681082824428594","0.04670941538454745","-0.08653293002956909","-0.12171288216663868","0.12607898128110775","0.5713571334260044","-0.7074979515801083"
"0.012055896375302324","-0.09983554077575608","-0.025416288091665552","0.05030432238881852","-0.045588404011494096","-0.19810389735251865","0.09930184510623062","0.5757107127547236","-0.7312776667256828"
"0.013507827929657455","-0.09456924351485443","-0.02379299988855131","0.059436002339410654","0.009138162427885939","-0.3172153446099762","0.07701078481496948","0.5937186999780626","-0.7429305443193561"
"0.00775498241422511","-0.08617848428929953","-0.013464673802324436","0.039997125177322526","0.0020178643593580592","-0.4079807913791064","0.016880649679292495","0.628362637302962","-0.7545997653598651"
"0.014376290968137799","-0.09552486353063934","-0.012039649807224148","0.035316236624894595","-0.0009309169421891818","-0.5074587502846317","-0.060190691277742875","0.6700250722123425","-0.7641443383117658"
"0.02598789212564646","-0.09730314773392607","-0.004840387278934152","0.051958326200639","0.010678009753115622","-0.5947537535008246","-0.15211345115383082","0.713547672834903","-0.7768431965029078"
"0.04417843778641025","-0.09027518574827312","0.0058850867989706755","0.05240793026357273","-0.029492045337939903","-0.6233424423494971","-0.28034277547931025","0.7557378143295826","-0.7990539407522795"
"0.048447578709494274","-0.0811407048582595","0.005780171988896626","0.03856359102377148","-0.017246022966576444","-0.5824009159592505","-0.4161231964784547","0.7937458811357654","-0.8232585855155757"
"0.06234395014451273","-0.049863884972064426","0.006297311131466353","0.014432272314062265","-0.010838448761047321","-0.5036000053551419","-0.5521543919058756","0.8296035436068534","-0.8353037058332998"
"0.07631734712618132","-0.015877051367192366","0.00976303144511526","-0.006997667294606729","0.00491686508215992","-0.44098640838606284","-0.6612134043808706","0.8627567098282825","-0.8394059109889969"
"0.0963242995998554","0.0028781548060839972","0.009354338693824831","-0.009543080960539312","0.07302818463170398","-0.25593653362279606","-0.7322104314085374","0.8817805322283224","-0.831871581997856"
"0.10483181936833005","-0.0005899356516366306","0.0156613709810087","-0.020634919095570626","0.1525550524745035","0.01677577453422637","-0.7445541060448231","0.8906460028613508","-0.8162799337168402"
"0.09298307580907228","-0.01996752052171517","0.03780727649095059","-0.06964368745454717","0.12068590888924009","0.26419316026918216","-0.6837552391004084","0.8899863696297268","-0.7770066309712622"
"0.07506471917378342","-0.03746887013688905","0.02533914263468979","-0.07886008936988914","0.0411135684023943","0.4428117934832993","-0.5863433056275974","0.8838385879109898","-0.7211283862408707"
"0.061235745092083835","-0.06333812719463168","-0.0056951951507776405","-0.09340242206927704","-0.0020438000727950314","0.5582586464995433","-0.4694545582252969","0.8653424720962491","-0.6719509547130121"
"0.03465519176245351","-0.08974440115254909","-0.003868686134449099","-0.05473069615937879","-0.07191945821133403","0.5545697834222951","-0.35972681394156414","0.8361602979291973","-0.6382507673383214"
"0.024504187533298135","-0.07461859825052748","-0.01619080666251629","-0.0064218467591877345","-0.045722428646577815","0.5620203160848949","-0.2610331445020053","0.7916746327884655","-0.6308308424750287"
"0.018834144480514677","-0.09908350937202967","-0.03133736605391559","-0.012623879678714837","-0.0443438895428596","0.5880607771499422","-0.1532280041683939","0.7387984329414748","-0.6353906641421183"
"0.006852820699085339","-0.11241440859222919","-0.003146260926498257","-0.020465475166070973","-0.00951950275400026","0.5603943040705817","-0.038345452192306784","0.6748403948031988","-0.6358809675471816"
"0.013790896813596729","-0.10282704691212624","-0.006237736894999159","-0.020372088454926274","-0.046873604530064734","0.45424241525556147","0.046945717247130835","0.6230723787853366","-0.6398033947876887"
"0.006273203460543031","-0.11224821380687527","-0.009955190795260782","-0.05279364396532593","-0.04991309178999899","0.32588454146894924","0.11512849791302607","0.5869904410154964","-0.64094743606617"
"0.0002796531118289766","-0.11327654404125252","-0.02591607911603406","-0.05217267047369368","-0.10493977768008435","0.19958466497806496","0.15461153845392236","0.5658689849388915","-0.6433989530914871"
"0.007289940676324875","-0.10486293303271146","-0.022531130814629173","-0.04061486153253832","-0.15482087490177707","0.04148047886393326","0.16467037941035365","0.5580457348118293","-0.6592684399687057"
"0.009879924682435847","-0.10390731301692657","-0.040944919133925076","0.004136435547839555","-0.13756759643180377","-0.08075922135837474","0.14324309770537896","0.5662251868839685","-0.6808581332383303"
"0.0062751290992092805","-0.10170523211098743","-0.045692933865425896","0.02777213076376228","-0.08605187732150077","-0.13363858819400515","0.11955884614591417","0.5759745660473732","-0.7025295437421325"
"0.01394013381023137","-0.09488189745480147","-0.02377854312338363","0.07256598137643495","-0.05581256903073752","-0.20404490841377082","0.10660216735161852","0.5800510994188104","-0.7253940258649221"
"0.012663435374505292","-0.08153437875606655","-0.020975995933019725","0.07585184575928905","0.0029311465155713754","-0.33493159491518076","0.06753708419118362","0.5952886270693281","-0.7502850953953072"
"0.006592859479141105","-0.0906647047764463","-0.01785126940463315","0.04629447030719318","-0.02606268998773534","-0.42135292003413066","0.006905400198953068","0.6270037928458164","-0.7666612291244245"
"0.01812165817400087","-0.09864932549529264","-0.011459313948349972","0.058233528089722764","-0.02478634466826846","-0.5084537725620473","-0.09711025988514406","0.6684683377857097","-0.7905716918446827"
"0.029092984474980245","-0.09780173208998774","0.0048353191225801295","0.07578349053772951","0.001724446140406926","-0.6015975652625611","-0.2104324376408427","0.7085080749452947","-0.8183065211244354"
