"AccX","AccY","AccZ","GyroX","GyroY","GyroZ","MagX","MagY","MagZ"
"0.055143024352057736","0.06153959580287854","-0.046857736087507866","0.030528482866929944","-0.025172862142661675","-0.4758364569316433","-0.21185349273441048","-0.8303370984460189","0.45883578838469563"
"0.03450788040448512","0.07431581992695942","-0.05133933328948994","-0.007979960710905004","0.05499708461883416","-0.5518464513917812","-0.15197413202701043","-0.7750730263005488","0.46033938549355674"
"0.013093815616412957","0.08914662708497788","-0.034474484095303036","-0.04293316256796541","0.09159298988785361","-0.5915502671442671","-0.09524338358575077","-0.7200860001123607","0.46045378962140493"
"-0.0051641273976697","0.11281068708455595","0.011175147614172974","-0.07009425426708035","0.08775174811447213","-0.5329652969569194","-0.04422471934412706","-0.6634235055158474","0.44041672380114744"
"0.008590709595379118","0.0991058495973102","0.036435949052187416","-0.0847992916487719","0.10156585871631506","-0.49396527744943486","-0.013546647618278736","-0.6205605381249112","0.42567493475557466"
"0.0013560851262646942","0.09608629809091156","0.05023183352649166","-0.0422139886171913","0.09102817178285796","-0.43234670275777126","0.012255254668855829","-0.5795445437825224","0.4174541809973451"
"-0.013174784249284293","0.09656203066398708","0.05347840993272014","0.02022128565543396","0.09191129839617743","-0.3284518156939621","0.03357108107237409","-0.5355470072331926","0.42887825033532206"
"-0.017093458935110203","0.10828187918366225","0.06583481364675642","0.03934534369850852","-0.0015488662418073117","-0.19734670966824142","0.05299216735113574","-0.49790833503671944","0.4376710247327924"
"-0.0065987282040285734","0.10877007636563933","0.0035294601775048935","0.05373748746038537","0.00022001961159222197","-0.06931646516809535","0.07703864864033344","-0.47119318915594194","0.4416915126543123"
"-0.00434573096451195","0.08946239717715028","0.002273580334866509","0.07848785416252797","-0.03249946241733627","0.011309704594169901","0.09116560809992022","-0.4499661917622773","0.4609277495796329"
"0.00047414261712057257","0.09440565332402027","-0.042002328243332825","0.05537993827701269","-0.03794899981172233","0.06629536370923692","0.1137910342955503","-0.44170758370234314","0.47485236628343325"
"-0.0031903477647598514","0.09315192141200682","-0.046341423045804866","0.0030533422484809725","-0.017044507354539856","0.1527288232462041","0.12989632535598647","-0.4501376964024995","0.48089944161254833"
"-0.0003981716986922527","0.08046502698505364","-0.0461927248897944","-0.053055511856370856","-0.00883478046654578","0.2623487287305581","0.12894895529360786","-0.48152304556317593","0.48591687979103043"
"-0.0029881557048032424","0.0840797635665009","-0.028958195557748156","-0.0661575711550117","-0.05312968303200814","0.3847850065247458","0.11245357067807453","-0.5385417421047662","0.4660759353327985"
"-0.01169204247626909","0.09006381455664966","-0.002382943725644535","-0.07868871994119063","-0.05563785834571768","0.5019549468994412","0.08191481807904688","-0.6090961125592838","0.44782030521760474"
"0.004731729708207098","0.09078468443812221","0.021566546501574288","-0.07557711323583335","-0.12130035634851785","0.5879879706418386","0.03100760913887928","-0.6800462629527757","0.41890874776569975"
"0.03142974699647888","0.07367181513371307","0.026473172599486266","-0.06669285993229469","-0.1256417972064082","0.6135673238222298","-0.023382577971797797","-0.7569990757540473","0.3815476282998691"
"0.05223338432734868","0.05706895607685869","0.03608279093166256","-0.039816742114610976","-0.13778777976086992","0.59560838515668","-0.0913424480347802","-0.8249412986113333","0.35216211088973637"
"0.06424936960477058","0.04168866740976393","0.039424368937564395","-0.016940848882558285","-0.1207498980258526","0.5682574069457683","-0.18947884096705736","-0.8948228431695943","0.325391544973275"
"0.0738226822340499","0.02459657245352402","0.03646486258252279","0.00623619242419606","-0.12565615698873858","0.4458453979876152","-0.27359972974120383","-0.9417359586027029","0.31138521103529737"
"0.09141762785534148","0.013621588187456847","0.030583024411442172","0.021797306749700627","-0.0645098105288486","0.27812347215300054","-0.33657197506401654","-0.9696912149589336","0.3056486611960556"
"0.10764171131012719","0.02061620734429817","0.03452146029355268","0.03239814258902272","0.018961210860700236","0.025608660097352742","-0.3770302494926554","-0.9819735857317751","0.3157325678935261"
"0.10400495012504081","0.028012914009955075","0.029389928234674872","0.06802469151592436","0.029704721340893046","-0.2160434209492409","-0.36440793660272885","-0.9641107178193935","0.3396593740606198"
"0.08805267056799677","0.04918820709885856","0.0035536236278565954","0.10349720050691719","0.040646875476656366","-0.3604138727514339","-0.3255657640452063","-0.9226461728795005","0.38594401549860424"
"0.06820174296725591","0.0612082449495792","-0.010498971690782385","0.10968768043125114","0.055983123005521496","-0.4430977971210666","-0.272903134107102","-0.8658517516366623","0.43878237911760276"
"0.03697654917462212","0.07636417065644621","-0.020090002753457376","0.08065115251244685","0.008599909920201517","-0.49775121587082105","-0.21898663202761423","-0.8092816056925765","0.4768462667973577"
"0.016611957459658114","0.07992697136747039","-0.014623280267905976","0.03163468215667484","-0.012294052029938671","-0.5342758141027838","-0.1557636122765249","-0.74744758656013","0.4960171299353365"
"0.007284163760326112","0.09063407041389526","-0.013033036099460726","-0.02592811639323595","-0.014971912104852403","-0.5819883457466635","-0.08220311331536327","-0.6883312563419748","0.4909996917568544"
"0.0037862411230766215","0.10089659840949844","-0.009797199004499662","-0.03524849526531633","-0.012333541431347265","-0.5264612488996662","-0.012738596682720794","-0.6229088324294931","0.46909947299735616"
"-0.006877945810635315","0.10721407768776348","0.0021261213301561306","-0.03174601222259053","0.0021518889944417757","-0.4684829996131817","0.033013804565092626","-0.569610467314263","0.4603230420467212"
"-0.0035851036913418246","0.11097215727157847","-0.0006844803436583383","0.007065601204104877","0.037451823908142806","-0.3512887904024518","0.07673214656132875","-0.5266287659416343","0.4502391353492507"
"-0.004933050757719287","0.11915725045025793","-0.006648309025761387","0.03305473781583387","0.02714628678902713","-0.21084989003785218","0.09186220373402236","-0.48726185467830585","0.4591299704277338"
"-0.0014091319984753496","0.10577545407704379","-0.006622699898892918","0.026766057432358086","-0.015158110615736565","-0.09665045519378287","0.09874456859894916","-0.46368656298005934","0.46396763069102587"
"0.003941255035710027","0.09894484839899857","-0.007771806204507122","0.027606537832660347","0.017266756545713264","-0.010157779696891465","0.10052785342224997","-0.452420027383919","0.4725806271733062"
"-0.0009758632985683106","0.10336666840682074","-0.008767877324560554","0.01112330194082187","0.048169008120729884","0.04704532296665025","0.09470431392115791","-0.45252556870097893","0.4883193664758412"
"-0.01176906802291924","0.10535477352661672","-0.01280172785677778","-0.028102967738347976","0.013920927262730514","0.12690192793826066","0.09838233886921596","-0.4626971131326231","0.49253597575938624"
"-0.005241152944319832","0.09353105326609536","-0.008310837020045056","-0.052506744584695834","-0.01213920571047588","0.23800951307153123","0.10130804053244397","-0.49661545390273615","0.48541023293913155"
"-0.0003317371647065075","0.08889006388508777","-0.013976856339693812","-0.05414245615412715","-0.007899719307131358","0.3810476057754287","0.08754331080259038","-0.5461275242684438","0.4804418251011559"
"0.0007350666563979308","0.08106021206010228","0.006849559560871885","-0.03061189319446217","-0.04833590903071026","0.536222543380193","0.039115982319825424","-0.6169853260095084","0.4758820034340664"
"0.00731882525631868","0.09025909342944052","0.01734042099262687","-0.0037816022577113113","-0.12006780836515869","0.6201441783875866","-0.01864572765990471","-0.6876056597871884","0.46504629818216536"
"0.027040253656754006","0.08691857824382718","0.016338154116072996","-0.027643736179419936","-0.15306658816041344","0.6661093538369803","-0.076017344084538","-0.7578697916197913","0.4430480187416543"
"0.04365370124985617","0.07264867848637814","0.019254496700828242","-0.042573094217778634","-0.16230950138707964","0.6235660842684548","-0.15236422558210744","-0.828318620757249","0.4082691638758242"
"0.06969796421093488","0.03973899483408102","0.01424977112499269","-0.02739534678276704","-0.13978857609890535","0.5130458049672199","-0.22090923597773526","-0.8898096306092509","0.3788509595720205"
"0.08820758819869687","0.018018375105735056","0.0078115540201729216","0.019401022996719725","-0.12170482355082408","0.3948565734790744","-0.29469264554180974","-0.9386092970848045","0.35762082213277546"
"0.10223904318615303","0.013279019186146126","-0.006914313504846772","0.030706591542824468","-0.05986202764790977","0.24407429519655943","-0.34794041581255974","-0.9651793236546246","0.36010502605176337"
"0.11289581641099988","0.019922344115445648","-0.03281195610101937","0.018746353269107428","0.05767518402345339","0.03546908817818098","-0.38981974533476654","-0.975984115988628","0.37250970219986723"
"0.1003263062989634","0.03494843014625492","-0.016496463983204472","0.06172156988845712","0.10938954678932694","-0.19705548363582712","-0.3945008679959314","-0.9586753399908107","0.4015520072264557"
"0.08254871385017769","0.05541324052777049","-0.0042899975764787495","0.061065937411245386","0.12721003666135092","-0.3758245836333584","-0.361565826415593","-0.9197965573188841","0.4446660199783636"
"0.07361760171609391","0.05833307516295677","-0.0028216032858754095","0.05778584952598789","0.061542752064440605","-0.4790642121242354","-0.30664622662299856","-0.8619994935639773","0.481030189187232"
"0.049465278744609265","0.06930400843113095","-0.008690017317871742","0.05491300472128922","0.01188542811739659","-0.5298831547805344","-0.23893713098829292","-0.8024741907422153","0.5080622502530605"
"0.020316886253529877","0.09096957613682843","0.002403484696158985","0.024597945334442064","0.026026223767256076","-0.5544917545195446","-0.18036737007300424","-0.743951530432522","0.519829531974582"
"-0.004961935337713091","0.09794352481724135","0.00579297655233086","-0.05590717616988207","0.022572696116795344","-0.581041861141317","-0.11636416321172077","-0.6891623942138212","0.5139132042201503"
"0.0006021975884264404","0.09452926069562724","0.010533577028552822","-0.06193687691111122","-0.02524298574637512","-0.4910287482892571","-0.052639594604078195","-0.642961682670867","0.4888913871150818"
"0.005812975819308438","0.10257724317638972","0.010120939645623783","-0.028521763814099963","0.01127465870894366","-0.44448112077503465","-0.006692146578716201","-0.5905868040799105","0.4659451877581148"
"-0.003642872851329432","0.11094099574932462","0.013724164448539033","0.025792717587334507","0.033577075975990384","-0.4018407758623711","0.03267943866072368","-0.5393201093180826","0.46924656401887505"
"-0.008928750990195312","0.11717330020009575","0.006199831229192826","0.026942240609053748","0.019384824439446977","-0.27857935764300956","0.06466711017868351","-0.49652310525030874","0.47321802159988857"
"-0.006531330850709687","0.12081919830379691","-0.018652587245356213","0.010583199415541722","-0.0133664884403139","-0.10792090264821712","0.08612225570902246","-0.4685018855709155","0.4739534767074836"
"-0.00904428931017051","0.10336666840682074","-0.025230415396652474","0.014040433227094317","-0.037314776092129756","-0.008382999717686518","0.10518111225805059","-0.46150977331569965","0.4746725883682432"
"0.0026770732513146022","0.08846315103020998","-0.027173817685622575","0.023976009093210376","-0.04461193881302704","0.0642956116199919","0.11674459978414226","-0.4575651665905873","0.47669917577583865"
"0.001190480200966885","0.10120717491462851","-0.014559257450734801","-0.014775625033440553","-0.021442908682340785","0.15788837778714448","0.12747217254931173","-0.47301377687522456","0.48004958237710516"
"-0.0005021561866699564","0.0968123615594264","-0.002845147160577065","-0.05113097540711058","-0.02312970444675154","0.27436180256764886","0.12783440227904463","-0.5088318613524151","0.46318314524292437"
"-0.006492818077384604","0.08912689145421707","0.009309749899543359","-0.051846298359486946","-0.02676536200310282","0.40706379800444137","0.10671362265307463","-0.5639640068515603","0.45460283565431503"
"-0.001649836831757042","0.09856779397972695","0.011977560038544445","-0.04730404574937693","-0.12323653366606653","0.5439157644031379","0.07907270789191104","-0.6322888169831883","0.43513779047329826"
"0.01797916091269812","0.08610526251300153","0.013935026694770538","-0.04126471751215347","-0.16895090071488875","0.6270365278213922","0.02334505716375819","-0.7161809713811459","0.40290851331379773"
"0.03707475674660104","0.077935750095449","0.010901687574765395","-0.026989066451807642","-0.17974945702734807","0.650892793643332","-0.045227817057233576","-0.7952446105236148","0.37612160395050087"
"0.0568549171263571","0.062440163796014976","0.010548033793720508","-0.02189130732282658","-0.13329316789145532","0.5643986620162785","-0.1096489812989786","-0.8545456380466246","0.34658899551884903"
"0.07616040757488167","0.03932454658810473","0.0021325236118732486","-0.016942774381757147","-0.09085283121396386","0.45856226806970724","-0.18348811851378097","-0.9056540208328625","0.32321786654416057"
"0.09115862945473038","0.015865113917993622","0.0003504175171311633","-0.011561966870543706","-0.050250546674763336","0.3610743537190131","-0.2537049584312535","-0.9471713364312856","0.3128070909099812"
"0.11128598248601194","0.0056445501056923","0.011467132965516857","0.0010295463155194824","0.03930902242287428","0.169991246317563","-0.3275719594714198","-0.9753376754216363","0.310862220736563"
"0.11243944004709781","0.007033523024287499","0.02019150160891085","0.02241828024133288","0.1296631661427939","-0.09146663181680796","-0.35448841477311777","-0.9726727571658748","0.32900344672390863"
"0.09065546007123834","0.047629092268757306","0.00924756515680065","0.10328539559504263","0.16661806597007334","-0.3254667488617153","-0.33824380458586106","-0.9448362347913363","0.3704013975580947"
"0.057042666896316825","0.06419144134668167","-0.007267678150588309","0.09225902443277256","0.0770656767636009","-0.3870367858813098","-0.30115705302627543","-0.8932265307490639","0.4292868365062084"
"0.05119931636357054","0.050787831907889824","-0.017252346276257668","0.02974576744259347","0.04801105051509551","-0.439797235420371","-0.2628721569760345","-0.8448226442124848","0.4600615468973542"
"0.033482477814705126","0.059328166440263244","-0.0019192946141952387","0.006342094880133343","0.014541269859403714","-0.5427456378788336","-0.19148503639327086","-0.7839121116043122","0.47452549734672433"
"0.02005596221425253","0.07287200272919743","0.012968488680702517","-0.02686583450308062","0.06488858134742335","-0.663968473871295","-0.12608863826378341","-0.7242284968069603","0.4688543212948243"
"-0.012770400129371057","0.11336120731104075","0.029750934313433616","-0.06804167212109592","0.08735206750627604","-0.6554258435871415","-0.06963652807616479","-0.6728034900695427","0.45242915722520055"
"-0.027328228446247597","0.12662562861709867","0.06411445859180201","-0.06119267147075195","0.018104410514986482","-0.4922179212549489","-0.017781949073618252","-0.6205209601310138","0.43092118118975303"
"0.002665519419317074","0.12134894418211244","0.043569330036356116","0.011273490878332926","-0.0034843255702394628","-0.356870622690393","0.028026179824923066","-0.5759561390024871","0.41336831928848355"
"-0.00030381540404584537","0.12075687525928919","0.02128484610602113","0.05837890327923668","-0.005855604292399196","-0.2376135624167283","0.07288693866108607","-0.5190825617718542","0.43183641421253804"
"-0.016727587588522032","0.12736311797710662","-0.04080035148224824","0.06765018192174614","0.031425501923485755","-0.1298380884709983","0.1012244490563518","-0.4833700186117235","0.45185713658596"
"-0.005356691264295047","0.1023975450647258","-0.07558539372786297","0.051606922596847106","0.01683333044904075","-0.034155775521272934","0.10668575882771099","-0.4666944905162653","0.46635377392900107"
"0.0038160885224035497","0.10236534482506347","-0.04187428260899049","-0.022569083040825194","-0.03771206340327077","0.1115033514743534","0.11167338356788055","-0.4754148418383365","0.4617939522619114"
"-0.0011780553585249369","0.0880829804587129","-0.002235691246150839","-0.08553290684353743","0.016551400055953937","0.21012704735146343","0.09896747920186168","-0.5109954583521422","0.45638427135937876"
"-0.018248842134862303","0.10934137094029335","0.005040605187961244","-0.10076938200411427","0.038389996353728806","0.3540849289410694","0.07673214656132875","-0.5666421177719544","0.4430480187416543"
"-0.00878432809022631","0.09357260196243385","0.03926327926855306","-0.09289890402877522","-0.08886160806414865","0.5512206840495305","0.034657770261573385","-0.6406397736955499","0.41761761546569953"
"0.008376000884091855","0.0870785407247303","0.05024422503949254","-0.056733215326192875","-0.1257830017326571","0.6419375931465917","-0.01663953223369137","-0.7192944402344117","0.39086339299607364"
"0.026415383909554745","0.0743843752759179","0.048259517707186186","-0.023219901770039773","-0.15981568585570052","0.6471796617300495","-0.08432076404303272","-0.7915506644265197","0.3690122045770817"
"0.04718821102176448","0.06038661947948588","0.04112820197518431","0.009859211716770474","-0.17286154810286716","0.5765573488695765","-0.14779455822239898","-0.8504295266812899","0.3530446570188504"
"0.06729284151678426","0.034634737488899434","0.02841306395977279","0.0027364050803486656","-0.17691818661120462","0.5281895586527646","-0.22656559252664285","-0.9069073239729484","0.3396430306137843"
"0.08487488535901193","0.009577238085869749","0.014039321929194545","0.006891439801568016","-0.12013482068270055","0.41796050538394386","-0.29530564969981926","-0.9502320346260216","0.3215508349669451"
"0.11366510905816815","-0.01247836800670516","0.0026213687997576527","-0.011411777933032653","-0.04705070851213963","0.1924132239298623","-0.347606049908191","-0.9725276378549175","0.31179379720618355"
"0.11662385286886669","-0.0006933919055194321","-0.0016152894952405114","0.048212267509257445","0.05575097319118005","-0.14578999439649273","-0.3547670530267585","-0.9720527019281482","0.31975305581504593"
"0.09257118169836065","0.03180423255084087","-0.019148247765391098","0.08365974501066513","0.09075772921563546","-0.3897063578451077","-0.30887533265212475","-0.935205589609624","0.3602357736264469"
"0.0698462383882364","0.04079640915589519","-0.0440097533494741","0.10496057989805058","0.10399026863309725","-0.4355987267863979","-0.2653799012588014","-0.8793874255495895","0.41367884477835687"
"0.03407268606591183","0.05598245766760758","-0.0031262279804801798","0.10128287642822854","0.1023173539916059","-0.4967319247573708","-0.23361514034375427","-0.8190705628498786","0.4665825821846972"
"0.005967989731941844","0.06832034304531756","0.0004394298855207595","0.0282823880514601","0.08742147312087298","-0.6522466260666185","-0.18340452703768864","-0.7571837730589023","0.4978639394277419"
"-0.008832469056882638","0.1016185070083794","0.028861430205187676","-0.0498996186694398","0.030362878031036288","-0.6567606295690406","-0.11190595115346842","-0.6939777168046775","0.48740413345305617"
"-0.00628099782409675","0.12692685666555265","0.03929838855538886","-0.09920972765303791","0.016230698250575045","-0.5663592153404282","-0.047038965705898654","-0.6417611501893109","0.4542432798239352"
"-0.01742081750837329","0.1256180727308907","0.046879929259755766","-0.06786356344520139","0.005370873533506004","-0.47093415205266886","0.0077413149598755775","-0.5921171531772785","0.41286167243658467"
"-0.006810548457316462","0.1310713391253155","0.032757734943095224","0.03988063247579151","0.026897383895300227","-0.31784633434687387","0.059233664232688596","-0.5426842387993657","0.41263286418088835"
"-0.006184715890784059","0.13749061270960977","-0.01867323976702433","0.10667427418503571","0.02678489893371211","-0.09597578155202303","0.08291791579215371","-0.5034096761884648","0.4284206338239297"
"-0.006897202197297857","0.11649813388459557","-0.04205809005183675","0.10730968892065941","-0.011923808975519909","0.014992743150769686","0.09066405924336696","-0.4797024578438933","0.4564986754872267"
"-0.005626280677570526","0.11794195108235754","-0.057037364017724274","0.04175606869548087","-0.03190353145062475","0.11419961915778935","0.09910679832868205","-0.4749003279176697","0.47517923522014216"
"-0.0024104641049271843","0.10135363406922163","-0.01781409486563053","-0.0641261695002147","0.004708169578958136","0.22659345260088984","0.09038542098972623","-0.5010086112253529","0.48125899744292816"
"-0.016939407841809903","0.10422464898621023","-0.004499207620976805","-0.09982588739667302","-0.0016556072904632703","0.3636225815026384","0.07310984926399891","-0.556655270645165","0.47256428372647064"
"-0.012269734076145148","0.09563030114859679","0.016794574844938452","-0.08531147443566857","-0.1254790530066637","0.6042723596210061","0.04973209978353848","-0.6272096410996825","0.4413973306112743"
"0.015563447205883093","0.08217891070901572","0.02391143381177265","-0.06054762923913394","-0.13008614983766642","0.6429326154240073","-0.0069150571816287264","-0.7140437597106838","0.4057195861694945"
"0.028394940458463348","0.07785473013758898","0.031601193729680496","-0.02969631832540438","-0.10148146343551348","0.630895272750882","-0.07311950624667427","-0.7861020939333043","0.3830512254087302"
"0.04939691857195726","0.04818065121265055","0.03365611963565845","-0.015685423404901762","-0.15510807054838502","0.5973800101872004","-0.16275743244290797","-0.8594005386313782","0.3661847882745495"
"0.07092074476400587","0.02586692384407287","0.01929105166418081","0.0014220593272070328","-0.15884879384545372","0.5274129558996598","-0.2355934719446038","-0.9131474543441127","0.3454286107935324"
"0.09862818184112775","0.0037377142359343554","0.0033328481712243904","0.02669673946119914","-0.09618031045854153","0.35983664308125224","-0.2961415644607416","-0.9443349135353019","0.3397737781884679"
"0.11042137072486412","0.0031729531937795576","-0.0004963358712617627","-0.002087644337514489","-0.00452349515154927","0.12319364979218499","-0.3410023232969046","-0.9643877637766756","0.3385970500163158"
"0.10726717458954088","0.002137528519502522","0.0038636179780950778","0.005301651388029504","0.05473621523983192","-0.15391762758445576","-0.3494171985568559","-0.9598362944784691","0.34135909253150615"
"0.08895473600120324","0.013259387427126198","0.012502774317086409","0.06272668047026188","0.1058498604448838","-0.3624767238143687","-0.32236142412833757","-0.9339390938049055","0.3660867275935368"
"0.06743630159742015","0.030390538157924276","0.009368878069079187","0.1466957750333346","0.1110409217573227","-0.48695158383545656","-0.27858735448137356","-0.8757330574463918","0.43007132195430986"
"0.03417859619255576","0.06354328168380147","-0.004687765143806742","0.14258483424376917","0.025238829036139252","-0.5912590411118528","-0.22037982329581804","-0.8031338239738395","0.4870936079631827"
"-0.00020464501273378128","0.09540489947096058","-4.012166761298909e-05","0.05360270251646518","-0.02613137761321575","-0.668531015045786","-0.14316916321196216","-0.721022679301267","0.5119683340467323"
"-0.018903559281388493","0.11137725706087857","0.0005137789635259918","-0.04424442752238886","-0.01504466833532642","-0.6497469359550623","-0.06060864865820397","-0.6498218682797579","0.5041561664593888"
"-0.004942678951050549","0.12296934333931296","-0.0007687426320642679","-0.06419163647297593","-0.021390974136245838","-0.5234033755593158","0.011781569637666519","-0.5799930943800269","0.48189639186951055"
"-0.015196704848850487","0.1320996693596927","0.003728343961168891","-0.029228422020081475","-0.024472583424349263","-0.4227362436880987","0.06505720373378067","-0.5316815564958752","0.46259478115684827"
"-0.010334467216560365","0.12247075898325126","-0.001154944787258113","0.03364971706828152","-0.046770692756696874","-0.27857935764300956","0.11412540019991925","-0.4939109576530772","0.4442901207011482"
"-0.0031518349914347855","0.12330173291002072","-0.010765389220301133","0.0855034104935733","-0.025212830203481282","-0.0848485202301925","0.13797683471156869","-0.4588976257184681","0.4493565892201366"
"-0.00018538862607123975","0.11154345184623249","-0.04346246152526892","0.07011193264748827","-0.01923485281933657","0.062016767916349844","0.1506548752522236","-0.4484226500002768","0.4595549000454553"
"0.003432886427819105","0.10866620462479312","-0.035552545726378906","0.0638463582543988","0.027756577538069045","0.11758512178460583","0.15048769230003897","-0.44248595091565956","0.48746950724039784"
"0.00020744166184446727","0.12211759506437424","-0.03231009982448405","-0.023497173654675574","0.026873450924749565","0.21785181786125327","0.14067962577188417","-0.46176043394371685","0.4979946870024254"
