"AccX","AccY","AccZ","GyroX","GyroY","GyroZ","MagX","MagY","MagZ"
"0.13485387412228866","0.042362795007855676","0.026830461224344748","-0.03948266800360882","0.1265853861299786","-0.026387321106620912","-0.7505726923234638","0.8692738861567288","-0.8629241309852044"
"0.10234129459933107","0.00036038690536512497","0.04517609622213586","-0.10600673982501266","0.06461335218609073","0.3030475667604596","-0.7045137889966454","0.8760944937717225","-0.8078957454902559"
"0.07567418381165267","-0.023175079879045397","0.0030422671913539396","-0.07253675000083389","-0.025191769189396702","0.546221303826418","-0.603368102925048","0.8668332431997197","-0.7549429777434093"
"0.03970517916470335","-0.09823176109709095","-0.013167277490303506","-0.10019173224445636","-0.005082569343612767","0.670793239191644","-0.45496536903597723","0.8379676929838474","-0.7023824527206134"
"0.010474947030308181","-0.06596504352063173","-0.010660061359793723","0.0024730930649046012","-0.0006856039940448811","0.5763389293452658","-0.33790943868149226","0.7948936429587914","-0.6809398504725076"
"0.02155988601259651","-0.0793624206549728","-0.013415107750320949","-0.008737837195576184","-0.032801017846274635","0.587915164133735","-0.2298256600942398","0.7494449132998885","-0.6782922120851653"
"0.02715001506073046","-0.10322175952734175","-0.009328799813066698","-0.025426523851932992","0.016183789628295742","0.6657938589685315","-0.12135178795189064","0.6926768773863154","-0.6721143891813666"
"0.00745650842095581","-0.11317267230040635","0.017367888846445467","-0.023712829564947857","0.053182965451093876","0.5898809398525316","-0.010788128907235352","0.631199060198946","-0.6620958562712379"
"-0.017440073895035813","-0.1254710864165948","0.01917684321935611","-0.0305290967289112","-0.006894773873709002","0.4337595176424209","0.08314082639506623","0.5709085828284999","-0.6602490467788324"
"0.006773869513768941","-0.12764200580028007","-0.007575194198226617","-0.058336193409243585","-0.07225451979904329","0.23279171332410797","0.12869818086533108","0.5417527939907131","-0.6643675953813649"
"-0.004856025211069121","-0.09790248767860853","0.01515228632188954","-0.06834012449691917","-0.16303227709770968","0.09295953386037151","0.1629706860631453","0.5322936534492231","-0.6565554277940215"
"0.003746765530418414","-0.1148242329798607","-0.0509717184037974","-0.022887753158236476","-0.1148767470527198","-0.060523865872786305","0.16377873699870324","0.5320693781504707","-0.6736833600775693"
"0.005619449133349967","-0.11552017364353015","-0.054302970148865176","0.017800933162467315","-0.07335064985026367","-0.16807606652699866","0.1502926455224904","0.5466736578986292","-0.68340771094466"
"0.009711431299138665","-0.0882766934543925","-0.028549275628719374","0.06449043773641737","-0.039933043070372334","-0.25292719795451474","0.10760526506472534","0.5680589672678836","-0.7112079140117544"
"0.008711062012019972","-0.08190727830570435","-0.02963146776412887","0.03905555606908013","0.0010761019681894545","-0.37805731654853486","0.07258043658208109","0.592531360161139","-0.7276330780813782"
"0.006520648029156596","-0.10005367143153304","-0.027031315286112547","0.01938369350392999","-0.04253695026628452","-0.5120940979672264","0.017242879409025698","0.630381114991732","-0.7286790586788469"
"0.013426951105674809","-0.11017077898995156","-0.030538113465359343","0.03759217667794676","-0.03643882936997547","-0.5989279932987631","-0.10307311851305619","0.6864763250090484","-0.7465751329636608"
"0.025417903080435424","-0.10312827496058015","-0.013094993664465085","0.07967973816662213","-0.010697004905092901","-0.6665409704909547","-0.23244485967846312","0.7335345597531143","-0.773558163688983"
"0.03382427867796512","-0.08084467039684788","0.00029052520429361466","0.10280402079532772","-0.01613050720921002","-0.6558626826357631","-0.3944451403452032","0.7775980596256065","-0.818911228657347"
"0.04599142659068793","-0.04568616355523083","0.0006428572239517433","0.05927137215790815","-0.012740401930708543","-0.5914289229640944","-0.5343215436728667","0.8000387821654598","-0.8598515629801405"
"0.06623662870834421","-0.015074122810451349","0.008329416001001034","0.014554541513189856","-0.0027371382296477505","-0.5138414541617122","-0.6306189241311148","0.8212921648883893","-0.8801828108434357"
"0.09961680473238231","0.018168989129962027","0.02638085582762977","0.004361045029386539","0.06029105770464092","-0.34869202494675744","-0.7268327131132706","0.847848998793577","-0.8867365330244499"
"0.12430137423121942","0.02491649741533027","0.04613437322753663","-0.0044751670691405765","0.1336767253041402","-0.045508737018224575","-0.7561175935709148","0.8587857177739052","-0.8782052537763468"
"0.11260889624972811","0.017984097431255817","0.05045694601267418","-0.043565689054790815","0.10777407127715716","0.269483766524709","-0.716077276522737","0.8620838839320257","-0.8481823419396316"
"0.08463225488706398","-0.01893399670029562","0.0324272945964053","-0.10425453555405033","0.08807244991985101","0.5334801649082914","-0.60406469855915","0.8533767252745871","-0.7915522986548096"
"0.054736714593478245","-0.07408781365480348","-0.023262230081680622","-0.12369244996653903","0.033995902960627","0.6881454569563307","-0.47711711020041797","0.8289175250459643","-0.7377496716725196"
"-0.009477558010077549","-0.1086854130958511","0.028504348105545883","-0.06119941071794796","-0.04999925048398137","0.600583496543758","-0.344067344086953","0.7978224145072026","-0.6819858310699763"
"0.004999393482816327","-0.06752104219850759","0.007649018674644816","0.014038507727895456","-0.09472997244317133","0.5644957373604167","-0.23910431394047724","0.7504871338058546","-0.683914357796559"
"0.03464556356912225","-0.09628624339104187","-0.04605022249028438","-0.026249674759445514","-0.06273398411398938","0.5826488267142428","-0.1356459303636616","0.6993259803610866","-0.6868725216737747"
"0.007081971700369502","-0.1135881592637911","-0.014123489243537467","-0.05614978906893839","0.03978050194272235","0.5983507636285815","-0.023020348242064906","0.6468587531177029","-0.6703002665826321"
"-0.011528363189637564","-0.11458532797591447","-0.010174107524942855","-0.035812666530582224","-0.0203539585222856","0.4505050145062443","0.04897977649870844","0.5997345550504747","-0.6748110579092153"
"0.01173335189870486","-0.13704239834685988","-0.013462608550157623","-0.02104890142332546","-0.08021462580419396","0.27987082834748644","0.10197677234118185","0.565776636286464","-0.6856304197142807"
"0.011715058331375443","-0.1050914508625731","-0.0051150658171201496","-0.04899559679557517","-0.06347590620105996","0.11242556724366543","0.13808829001302478","0.5445892168866969","-0.6922822025763076"
"0.003641818223107603","-0.09819436727038633","-0.01941053479057622","-0.0734340326275025","-0.11753091348678837","-0.007995669094575471","0.1532183471857184","0.5495760441177754","-0.6712481864990878"
"0.005928514139283653","-0.10804140830260477","-0.03295858900486302","-0.010610770266307015","-0.12586198053547432","-0.1204096456715846","0.13031428273644757","0.5665418108351481","-0.6755465130168102"
"0.003917184552381863","-0.09970466238228987","-0.04409649394048021","0.07189301940643349","-0.10271161812181757","-0.20262760838935445","0.09974766631205567","0.5734151891086716","-0.710603206478843"
"0.007402590538300717","-0.08826215141067403","-0.030639310821533133","0.09673195907172362","-0.03317676548392004","-0.2846708354876758","0.06254945945101376","0.5793782735225538","-0.7455618392598631"
"0.00466625799355446","-0.09123288319887493","-0.010079312450486181","0.08905403101627057","0.001205579338868542","-0.43800134155381604","0.011140701654292585","0.6027952532452107","-0.7716132935155647"
"0.007670254312909947","-0.10847766961415874","-0.006668548496996145","0.05461551509506539","-0.032039949382763534","-0.6024469745237695","-0.09424028587264426","0.6454735233312922","-0.8034830148446855"
"0.01876963558519518","-0.11399325905309124","0.00499868056897496","0.03698371893110709","-0.006617869404437826","-0.649043139710061","-0.21319095635188626","0.6986135764709326","-0.8193034713813977"
"0.03409290527190749","-0.09281484981196235","0.007364839976491484","0.04545687815568921","0.019916136385671704","-0.6504264633640291","-0.3280735083279732","0.7461995178002977","-0.8340779473206412"
"0.04640832736193181","-0.05874076394477949","0.01046253235401449","0.05586131307672761","-0.029664123396199178","-0.6417867577357375","-0.45819757277821005","0.7787985921071625","-0.8581355010624186"
"0.06262220493178637","-0.02212597529649892","0.01371507733900506","0.0322267731603242","-0.026964005658673327","-0.5759696744101008","-0.5891854158147332","0.8075849863352398","-0.8840888946371075"
"0.09045394198481492","0.01580902317793668","0.027270359935875708","0.009470549703480644","0.02680643860720771","-0.41953275733154116","-0.7068543503272278","0.8345771781732992","-0.8932248814181223"
"0.11635715191359058","0.02499959480800722","0.02116113750122909","-0.012430367009229434","0.11571503090586728","-0.11749253158023447","-0.7519658835916676","0.8538252758720917","-0.8875700488130577"
"0.10999580457962209","0.014628001484515546","0.024886645884941282","-0.03645385776380251","0.11274255596347488","0.18081029342175503","-0.7380618347349933","0.856213148170571","-0.8708507027003958"
"0.0830416773487386","-0.018598490977362436","0.023114453000599895","-0.09481766398043891","0.08949646166761549","0.42851744905896305","-0.6535787162311136","0.8524796240795784","-0.8226702214294999"
"0.05964998165042407","-0.07415013669931118","-0.0017920750807196198","-0.10337843341856918","0.06987381911312654","0.567043965144042","-0.5332348544836678","0.8390626841483435","-0.7596825773256888"
"0.030231036926736076","-0.0762961268651934","0.02335980495801716","-0.05422621536927755","-0.022641471847518004","0.5739120457418131","-0.3808475935675338","0.806199756548829","-0.7060760717054244"
"0.021580105218592178","-0.06713048445292594","-0.0012825773711670947","-0.04093160615075074","-0.02741897142884144","0.5929873508649511","-0.2821817879533394","0.7668856159440307","-0.6915794343623832"
"0.016107440129099707","-0.10807256982485863","-0.0010832805370697368","-0.03128774341326193","-0.010769043146450398","0.6464758654850482","-0.19243240645564932","0.7279144846196766","-0.680073647790229"
"0.014447539598789184","-0.1113445296615135","0.00979367978727075","0.023808490662909583","0.0075308241257033785","0.5817508797809652","-0.07598948025917406","0.6623601340608701","-0.6833259937104827"
"0.0042994238276331835","-0.09450899790516364","-0.002981453803586656","-0.02594544588602568","0.016159617328039576","0.46455667057023536","0.014122130968249113","0.6067662452995879","-0.6872974512914963"
"-0.005472229584270262","-0.11678740888185361","-0.012712922013604864","-0.09469635753091077","-0.04563387665554036","0.3417806290715643","0.09186220373402236","0.5667133154753704","-0.6801390215775707"
"0.006355043103858804","-0.11686011910044597","-0.006112582613690351","-0.09304524196788858","-0.0891703433842522","0.185479617474798","0.13583132015853466","0.5560800277815893","-0.6720980457345311"
"0.005363339190738248","-0.10787521351725085","0.004391496431932228","-0.0405561338069731","-0.14052092499775568","0.039497714959912424","0.141376221405986","0.5571486336168204","-0.6720326719471893"
"0.007330379088316208","-0.12890924103860354","-0.04409855919264702","0.0009352931297353002","-0.09947827380042296","-0.09417260703465768","0.13399230768450562","0.5607106530675907","-0.6887683615066865"
"0.012001978492647213","-0.09604941582191256","-0.032025095025463995","0.03767978689149487","-0.09308817066339582","-0.17499996544764918","0.12320900726860827","0.5667001228107379","-0.7082334066877033"
"0.006812382287094006","-0.09322306575348786","-0.035593850769715156","0.035490494302391394","-0.006530753391633412","-0.2656683368726413","0.09005105508535728","0.5871883309849836","-0.7254103693117576"
"0.007685659422239973","-0.0898254211104091","-0.028753735593233763","0.030975198681065394","-0.0036468304402784684","-0.39688993331132766","0.04560825362965538","0.6176765789506511","-0.7356413670307472"
"0.012571967537858258","-0.10133129384394114","-0.029873102267645876","0.038010010004099315","-0.0015687306073643623","-0.5084780413980818","-0.018506408533084346","0.6560276550372783","-0.738387066099102"
"0.022100990477813755","-0.09766773754429618","-0.022719068761809062","0.053645063498840094","-0.015521891768106649","-0.6086597965486085","-0.13522797298320033","0.707808863719773","-0.7578521112801188"
"0.03192367331437291","-0.09153203381251195","-0.010296163928001442","0.05969401923205785","-0.01352133475977669","-0.6360107747595201","-0.27056257277651974","0.7511863450313763","-0.7829229587256937"
"0.03972924964803151","-0.0846079435677052","0.0014414902368579494","0.0810401033506165","-0.0005901114415477341","-0.5968651422358284","-0.42186314450345447","0.7936667251479705","-0.8167375502282327"
"0.05189447192208806","-0.05332281394224243","0.0022043943872783064","0.06918095378483961","-0.0022259299786855807","-0.540318754275381","-0.537330836812187","0.8098805099812917","-0.8520884257333033"
"0.062186047773879954","-0.025312760305659907","0.017693785638368403","0.02180789699529435","-0.016844667050441818","-0.49462053602236705","-0.6412629054201919","0.8281655431619128","-0.8746750692598905"
"0.08632152140703489","-1.3032002976913605e-05","0.03475070328406882","-0.0024057368051661116","0.028328575534229898","-0.36099632481626254","-0.7359720478326877","0.8573345246643319","-0.8806077404611574"
"0.11845898651780627","0.02182319697293085","0.05701618689446912","-0.02519835219686812","0.10666358144360637","-0.11178450134491377","-0.7835913253798942","0.8765166590399619","-0.8684809029092562"
"0.11922539070697517","0.006078630110688512","0.05047966378650911","-0.054202146629291806","0.09461333077134733","0.17675254403678214","-0.7711640592675161","0.8857779096119649","-0.8382618697105155"
"0.09407106165550551","-0.021599345570408757","0.02072082573926477","-0.0851285520117769","0.02055753999642948","0.4550918245167699","-0.684981247416428","0.8799731371736723","-0.7917320765699994"
"0.06680758057288837","-0.06004747044462451","-0.011023545741152638","-0.12077531868026657","0.04274340369689448","0.6147322279518871","-0.56469311331971","0.8662527659558904","-0.7352654677535319"
"0.025443899202429846","-0.08748311335432761","0.0002911447799436589","-0.0960037714869365","-0.04736183712929826","0.651766471740575","-0.4241479781833087","0.8388516015142239","-0.6741736634826329"
"0.006841266867087811","-0.07881709401553033","-0.02070338264700054","-0.027945076804041482","-0.046770692756696874","0.5999767756428949","-0.301742193358921","0.7973210932511682","-0.6485307953978171"
"0.017270525883516817","-0.09155904046513197","-0.0410688342639338","0.001335796963098118","-0.06700841265433788","0.5854882805302823","-0.1676057380562573","0.7377298271062439","-0.6457197225421204"
"0.014862514731366806","-0.11064858899784405","-0.03632081953243298","-0.018119254392260427","0.02888142715395023","0.6054129949146289","-0.05475724533174795","0.6769907991382934","-0.6441507516459176"
"-0.0002864846560495529","-0.11679779605593825","-0.02054848873448964","-0.022882939410239327","0.048023017000370836","0.48809744152372636","0.02537911641533579","0.6268982515287566","-0.6436604482408543"
"-0.001457272965131695","-0.12611509120984113","-0.01678353403439134","-0.012590183442734791","-0.030298107786086246","0.33187894396947737","0.09384053533487145","0.5821619257600077","-0.6461119652661712"
"0.0077944580068833","-0.12092150416753182","0.0028667207571749184","-0.009067482658420964","-0.06575432499748311","0.18159417682567025","0.12613470893183626","0.5567924316717434","-0.6547086183016161"
"0.0030612381652321712","-0.10420854106538051","0.0030932789198741973","0.010872024295370677","-0.09237496814098604","0.020209814833111912","0.15020905404639823","0.5388767931008318","-0.6649232725737702"
"0.0017508410528466504","-0.10368918236114957","-0.026574894557247087","0.020557285265634977","-0.07109137743028106","-0.08988915747456372","0.14837004157236888","0.5396815456434134","-0.6823617303471915"
"0.00967773262247924","-0.10409428215044968","-0.0407941557257478","0.07056923870721746","-0.039451990362304","-0.1691002114076557","0.1300077806574426","0.5458557126914152","-0.708919831454792"
"0.014188541198178075","-0.08162682460541965","-0.03217792368580809","0.09655770139422684","0.0008370115923883253","-0.24457871835863754","0.10855263512710396","0.5494177321421855","-0.7372266813737853"
"0.008557010918719691","-0.09110408224022566","-0.009906244318907336","0.06026107874612204","0.05351802703880316","-0.33961548026984445","0.0840603326320809","0.5685470958592855","-0.7535537847623965"
"0.003787203942409746","-0.1010300657954872","0.0026738262047946776","0.030796127255571442","-0.05357004969014035","-0.5119727537870536","0.013230488556598394","0.6122939717805982","-0.761333265456069"
"0.01661388309832438","-0.10917361027782818","0.007260957792500839","0.04132186862613799","-0.04942725248782051","-0.6260605519853641","-0.09685948545686728","0.6687585764076242","-0.7742609319029071"
"0.03497195932305222","-0.08561446073650472","0.013607064650680793","0.054323801966438136","-0.08360114113711282","-0.6928969264244509","-0.2190423596783423","0.7186664267123063","-0.8022735997788625"
"0.045238501872182806","-0.07069536259876703","0.016218989066047945","0.05834520704325664","-0.07251299588099046","-0.6622453865128436","-0.3676958679956899","0.7589172465060109","-0.8394712847763386"
"0.06303236596769836","-0.03835593480371548","0.019506044414745943","0.04324640507539827","-0.05278265495902353","-0.5634712238523196","-0.5066527650863389","0.7892603751607212","-0.8692980752510284"
"0.08183911600166327","-0.004474115528838912","0.0251522373135933","0.008351834668943157","-0.042788246457066484","-0.47015754929956405","-0.6375570166467698","0.8246299090404074","-0.8901686568598937"
"0.10118340806931284","0.006452256762512243","0.02205456558859197","-0.018446589256066574","0.003192494553984619","-0.2549900490174495","-0.7222351819281979","0.8492738065738851","-0.8882074432396402"
"0.10940752196708164","0.007494401938422027","0.023592558877216875","-0.031536132809914824","0.07679762749343348","0.033260624099039036","-0.7350804054210371","0.8607646174687775","-0.8728609466611559"
"0.09985558392699774","-0.01247317441966285","0.021750766994853923","-0.07044662062047168","0.08621764470217459","0.2920537840368189","-0.6913899272501653","0.859682818968914","-0.8354998271953251"
"0.08093502864785725","-0.02680228106939421","0.01682245574919041","-0.10089453945204016","0.021198943607187267","0.4788267461585371","-0.5987984355653396","0.858205240530076","-0.7811251795737947"
"0.059226341143848296","-0.06395512533525803","-0.01748985027544105","-0.10893349860727941","0.02420492470835059","0.6229593633675917","-0.4621263721545447","0.8398146660323951","-0.7164214735522619"
"0.02080888693275765","-0.09800012711500397","-0.006413489854394861","-0.06943380804187148","-0.029122041613226648","0.6274248291979446","-0.3360982900328274","0.8046034441282987","-0.6693360032193406"
"0.008135296050810164","-0.08520936094720462","-0.007267058574938266","-0.02176037337730412","0.0030486574009751326","0.6224254489748322","-0.22787519231875436","0.7632180551762003","-0.6500507359535138"
"0.029596538986205543","-0.10050031991717168","-0.02277276531814618","-0.020073636079103018","-0.036620719946160514","0.59689463346651","-0.10842297298295894","0.7055001474090885","-0.6514726158281976"
"0.016020786389118295","-0.11176001662489823","-0.022398954675953205","-0.053492600174511996","0.06479284946522071","0.5312231631570804","-0.015302068616215603","0.6516872683731916","-0.6310923376243958"
"-0.012163823949501213","-0.09920192315659435","-0.02319820726450945","-0.07317890398365359","-0.023879045754692813","0.45116027307917655","0.08330800934725055","0.595315012398593","-0.6148959818104683"
"-0.005270037524313652","-0.1223653213652938","-0.01736386989326551","-0.07052267783882664","-0.08317034766720088","0.2983394125697614","0.13750314968037905","0.5666077741583105","-0.6034228821319849"
"-0.00303629667145957","-0.12486863031968688","-0.012975209038789987","0.014183882917409362","-0.11160989657255425","0.14724163941879756","0.16754035342285345","0.5454071620939108","-0.6141114963623668"
"0.0039104448170499745","-0.10345027735720334","-0.038685533263432735","0.03565801273269219","-0.08740409015761326","-0.022511587991906983","0.18757444385962477","0.5286392853460253","-0.6416011739395879"
"0.008812158041998286","-0.10501874064398076","-0.037898672187877354","0.03458165868052962","-0.08261270945337043","-0.14457412571116293","0.17341962057467372","0.5325443140772402","-0.664776181552251"
"0.01519179894329616","-0.08863505096031182","-0.021223826193037167","0.05796010720348469","-0.045179150215077755","-0.22137771110962987","0.13516258834979678","0.5461723366425948","-0.700355865313018"
"0.012904140207786984","-0.0751192600414061","-0.0227768958224798","0.041928400873778804","0.004804380120571802","-0.2994990943047716","0.10582198024142453","0.5642199018598312","-0.7143621992509958"
"-0.0016787214117508456","-0.09028037933531541","-0.007804230663526072","0.020453308308896554","0.0022538434489876007","-0.39975365596340184","0.07216247920161999","0.5963968108984565","-0.7092140134978302"
"0.012872367169793807","-0.09966622983817679","-0.007327157412992497","0.03838548234787696","-0.0628680087490731","-0.5163654131093031","-0.012432094603715802","0.6453547893496","-0.7247566314383397"
"0.022735488418344284","-0.11065897617192864","-0.008571471843496733","0.06160507718692611","-0.04080898979252662","-0.6106255722674051","-0.11864899689157485","0.6967006400992226","-0.7496803878623957"
"0.027289623864033836","-0.10533035586651932","-0.0037493145592073646","0.06933499372074838","-0.0477926305992102","-0.6610319447111173","-0.2704511174750631","0.7468459583672893","-0.7858484357092388"
"0.04350350143388839","-0.06941981762117588","0.0019683360646116934","0.052325133798021776","-0.06473956704613498","-0.6366903021684868","-0.415844558224814","0.7848540251734721","-0.8209868464054487"
"0.06526899527855182","-0.033218438501463124","0.0038768355919626754","0.01060052890833146","-0.0630235730576524","-0.5668931297331878","-0.5429314657103663","0.8167802735840802","-0.8447502181041879"
"0.07952353550549342","-0.003651451341337118","0.005169270397953632","-0.0032813575658475606","-0.018362256713059386","-0.4461799392974516","-0.667928586293613","0.8520706514759714","-0.8511731927105184"
"0.10386774837007023","0.015587776369934305","0.025903989102312876","-0.012368751034865925","0.0746628065203143","-0.22210577619066565","-0.7467274844232211","0.8756855211681155","-0.8469075530864668"
"0.10537330896128055","0.00827842583832904","0.03054812164982305","-0.011964396203105387","0.10047930185331494","0.04893101152653298","-0.7557275000158178","0.8860021849107169","-0.8336203308092488"
"0.09883538056161663","-0.018673278630771693","0.019983324190496202","-0.0535571043976738","0.10244419873552442","0.3228023992925644","-0.6975756964809904","0.8808570457040488","-0.8030744286737994"
"0.07859730330702548","-0.04400551878833955","0.01062808296770614","-0.08626652203830298","0.045833150194985135","0.5120993203618733","-0.6046498388917956","0.8707646572601995","-0.7628532060117655"
"0.052860179713214196","-0.08360142639890564","0.009174455230095505","-0.09572457410310184","0.02959223637930493","0.5848087531213155","-0.47405208941036947","0.8483898980435088","-0.7059780110244116"
"0.032824872210179545","-0.0696587226251221","-0.008294728053143925","-0.037184584709769763","-0.022819772478120448","0.5463183791705561","-0.36440793660272885","0.8156325117610542","-0.6736016428433921"
"0.021336511927311112","-0.07865297666499335","-0.023262230081680622","-0.01838689878090192","-0.01096313953761628","0.6107521388422247","-0.22840460500067203","0.764985872236953","-0.6537933852788311"
"0.012857924879796905","-0.10507067651440384","-0.022477434258292055","-0.01776785078846853","0.02418577833191006","0.6488542114164317","-0.1072526923176678","0.7026637245131048","-0.6426798414307274"
"0.004322531491628223","-0.12789129797831092","0.003474937520301057","-0.017181536282415748","-0.0038550472840692394","0.5104975771835947","-0.016472349281506746","0.6507110111903878","-0.6434806703256643"
"0.00824890873211913","-0.10562119674088863","-0.0038236636372125958","-0.02647592091531153","-0.015195206720090091","0.37869352868007955","0.04806027026169408","0.6058031807814166","-0.6479587747585766"
"0.012273493544588959","-0.11190543706208289","-0.014511756650898124","-0.07626259095062742","-0.038927858307244476","0.2782690851692077","0.10819040539737076","0.5764231166448778","-0.6365837357611058"
"-0.0003481050933696755","-0.11075246073869022","-0.019592276981255676","-0.056388550969596996","-0.09591465448542917","0.17166579600394533","0.15553104469093673","0.5550114219463582","-0.6278073048104711"
"0.0025990848853313284","-0.11103291443897494","-0.04201265450416689","-0.010866861659755356","-0.06320067703972732","0.007376211649693798","0.17957752598013443","0.5450509601488338","-0.6306020342193325"
