"AccX","AccY","AccZ","GyroX","GyroY","GyroZ","MagX","MagY","MagZ"
"0.010965022070869704","-0.1114587885764443","-0.013846745453184657","-0.011773771782418275","-0.02647457641091226","0.5989089468573756","-0.06782537942749971","0.6875053528503822","-0.634867673843384"
"0.007781941355552647","-0.11562404538437632","-0.020771535968505336","0.00465872720553025","-0.015575262292434628","0.47072095492300514","0.01554318606181673","0.6296423257723129","-0.6463244300750319"
"0.009064416707277489","-0.12477514575292535","-0.023861153210056107","-0.029644329847035168","-0.02299879109783941","0.3203027091810081","0.0905247401165466","0.5866606243996842","-0.6502141704218682"
"0.005415331434727091","-0.10965142028572063","-0.010179890231009927","-0.035456449178793176","-0.05939533472217184","0.17612640806709134","0.14463628897358294","0.5572805602631452","-0.6457033790952851"
"0.007735726027562568","-0.0994854930091044","-0.01914411726105747","-0.01505097141887749","-0.054213846597953204","0.0517559040409519","0.1601007120506452","0.5448530701793466","-0.6525185964256662"
"0.007649072287581157","-0.1034814388794572","-0.03860911893326069","-0.008928557891223238","-0.00511583617267819","-0.0699959925770621","0.16143817566812096","0.5497211634287327","-0.6495604325484503"
"0.007510426303610902","-0.10163252189239508","-0.032434014954492774","0.03608836180363734","-0.03763308460045358","-0.12910274273915212","0.14837004157236888","0.5577159181960172","-0.6573726001357938"
"0.009261794670568476","-0.09071456321205248","-0.02490617080646299","0.07297226170739435","0.012238439433018876","-0.22472681048239457","0.13691800934773363","0.5669771687680201","-0.6695484680282014"
"0.007813714393545841","-0.09201399869003823","-0.03175454699161162","0.06556294079018223","0.03090376316548129","-0.328354740349824","0.10874768190465253","0.5862516517960773","-0.682492477921875"
"0.008669660780695516","-0.09994564482105305","-0.024976389380134592","0.05814014137857808","-0.010457914529291774","-0.42958005544983524","0.057338924107931365","0.6195631299930962","-0.700094370163651"
"0.00968928645447675","-0.09702165531623289","-0.013813701418515664","0.06146644124460821","-0.01848431486286777","-0.5521376774241956","-0.02694914761839974","0.6598799131099632","-0.7206707697294781"
"0.0256403143463877","-0.09066989836348863","-0.008728017957741084","0.06077229878341928","-0.040598379651680776","-0.6218377745153565","-0.14924347714133085","0.7061597806407127","-0.7496967313092311"
"0.040026760821967676","-0.07003369960957684","-0.0036214754500816983","0.07679052661873315","-0.042393352442980536","-0.6278564458519191","-0.27680406965807275","0.7479013715378879","-0.7804714417003766"
"0.05057348379703816","-0.06266296087913148","0.010377960277783538","0.0676068581897718","-0.04592825219331353","-0.6031265019327363","-0.4310303430482356","0.787149548819524","-0.8227682821105124"
"0.07103243180664857","-0.03555347523568539","0.023916803467406357","0.05583628158714243","-0.027931854987742158","-0.494984568562885","-0.5532968087458028","0.8118726023407966","-0.8563050350168486"
"0.08859416016094727","-0.013066282059894574","0.026216668280368217","0.010423382982036367","-0.01022361074760078","-0.36572874784299525","-0.6391173908671581","0.8298542042348706","-0.8733512500662192"
"0.10910808515447924","0.001851154129989587","0.04478369831044157","-0.011725634302446782","0.0519934968147259","-0.17597314577263368","-0.6990246153999223","0.8499466324701417","-0.8727628859801433"
"0.11320873269426607","-0.006328537718165869","0.05136772221823827","-0.0408334056916089","0.08633491625787286","0.07485983594582142","-0.7019224532377863","0.8595508923225891","-0.8523826077763413"
"0.1009954657354865","-0.01834608264710621","0.03682008595521445","-0.06965620319933977","0.032531205162926395","0.28729709217405164","-0.6584548856698271","0.8607382321395125","-0.816574115759878"
"0.07340289300480664","-0.04247548804567522","0.025817041986090094","-0.11212019978139222","0.0007554001628105627","0.4870053439021726","-0.5705166528208019","0.8579941578959561","-0.7585385360472077"
"0.05693194267300724","-0.052902133391815376","0.0012488022096943884","-0.1360156448392411","0.003449534657698746","0.6039083270804881","-0.4663895374352485","0.8434822268002251","-0.7016469976130184"
"0.022977156070959102","-0.0870104969334775","-0.00818774799090306","-0.10801888648782104","-0.1221858762588924","0.6022095085580713","-0.35172989606207405","0.8163317229865759","-0.6462427128408547"
"0.0017710602588423164","-0.08798793001484008","-0.009424420988390095","-0.03270491082362267","-0.09489510993997091","0.5947104382234025","-0.24503930874302557","0.7773473989975894","-0.6274640924269267"
"0.01588214040514804","-0.09810711500807552","-0.031802047791448296","0.0025714860739663318","-0.10474592061862396","0.5833040852871749","-0.11889977131985163","0.7154474165419805","-0.6303895694104715"
"0.01572327521518212","-0.10444744606932674","-0.043722683298287233","-0.037034395772258706","-0.041452786700339465","0.5488423381181469","-0.01747544699461357","0.6593917845185614","-0.6393621217231319"
"0.003302905817846988","-0.11353622339336801","-0.04499281338087662","-0.06147571985298433","-0.018821530417926613","0.4439524287769221","0.05784047296448493","0.6129140270183249","-0.6414377394712334"
"0.0002517313511682974","-0.1338119872065435","-0.022840918639650973","-0.07030605917895492","-0.03704672682196232","0.2665715062005658","0.11225852390052626","0.5862516517960773","-0.6250125754016096"
"0.008712024831353096","-0.11871942326159268","-0.027853285648503732","0.01280329999182696","-0.0968288939604645","0.11671387057096633","0.14530502078232052","0.5650510397316775","-0.6356358158446499"
"0.008014943634169326","-0.09905650271940966","-0.0428924519272288","0.008260469731957263","-0.023288619371207946","-0.021722365444064168","0.16603570685319366","0.5552356972451105","-0.6385122624876884"
"0.007806011838880811","-0.09276395265894773","-0.04687838860917599","0.02239902524934428","-0.03804951828803513","-0.10115717804539451","0.1689614085164217","0.558969221336103","-0.6467983900332599"
"0.015611588172539421","-0.08693467056265977","-0.030672354856202125","0.057537460129334986","0.013287182202548951","-0.16345770702962822","0.15026478169712612","0.5633491859940873","-0.6646454339775676"
"0.016048708149778976","-0.08570586786844937","-0.024633557520443803","0.07215392454787899","0.03634372737164708","-0.2604262682891835","0.12783440227904463","0.5770827498765019","-0.6775731004244057"
"0.006807568190428367","-0.09405300096284888","-0.016680271426050736","0.04854249062186188","0.017269149842768332","-0.36917492255989803","0.08787767670695933","0.6027160972574157","-0.6854342983522554"
"0.010631886581607852","-0.09376839239293032","-0.013146624968635383","0.029874775888917075","-0.0490730445236707","-0.5012459282597929","-0.003933627867672509","0.6525052135804056","-0.6957143264117512"
"0.01473060848272844","-0.10092619405464104","-0.014887632545257911","0.03210931770919376","-0.03583811180915382","-0.5574040148436878","-0.10945393452142972","0.7053814134273962","-0.7080536287725134"
"0.022511151513725753","-0.10733508046485069","-0.011862038120878316","0.06565632750132692","0.018259974823565794","-0.5781781384892428","-0.22088137215237147","0.7483631148000249","-0.7313757274066954"
"0.03235309073694744","-0.08986800852415605","0.0009313729516553823","0.11030384017488624","0.009327711554647188","-0.6122273154456839","-0.33320045219496314","0.7773869769914867","-0.7763365496510088"
"0.05276486059923465","-0.046387297805942584","0.015173351893991022","0.06413133213583004","-0.07444917319853914","-0.611038142479992","-0.4634081081212923","0.801608709256725","-0.8202350478510181"
"0.07675928120008652","-0.014540222062501952","0.015596522062970805","0.011866544631581715","-0.08629360032406247","-0.5061482331387672","-0.6149037266257757","0.8374663717278131","-0.8473978564915301"
"0.1026225341265374","0.011701726801396794","0.021457707712383294","0.008202704755991474","-0.025839395372497652","-0.3258307814022332","-0.7238234199739504","0.8655667473950013","-0.8568443687624182"
"0.11841565964781557","0.009442828053214785","0.025257978224534083","-0.0033755144766718","0.08346774638590336","-0.0839554270641219","-0.7635850987684873","0.8800259078322024","-0.8598842498738114"
"0.11025287734156695","-0.0028008456555477005","0.03939958591156266","-0.05477498264095257","0.06383074404908402","0.17667488376147167","-0.7457522505354786","0.8823742021367843","-0.8326397239991221"
"0.0912248714248495","-0.03525847949168221","0.01847837493654029","-0.08921927505975434","0.0809547844780837","0.41783916120377124","-0.6703806029256518","0.8817277615697926","-0.7855379102193653"
"0.0681901891352584","-0.04673942300741116","-0.005253231187079872","-0.10045167463630242","0.0369683779030194","0.5943464056828845","-0.53256612267493","0.8586405984629479","-0.7223868316472"
"0.03206231929834316","-0.09282627570345543","0.007385285972942921","-0.10877945867137062","-0.039724826226581564","0.6327639731255406","-0.39046061331814036","0.8327697831186491","-0.6582224593712371"
"0.010220762726362728","-0.08307687410763241","-0.0023030184667889113","-0.024248118342230857","-0.052461953153644644","0.5498373603955625","-0.299122993774698","0.8024002691346741","-0.6355867855041436"
"0.01907292367513011","-0.09023052089970925","-0.019301076425735184","0.02059579524961217","-0.06623777100260651","0.58252748253407","-0.19864603951183837","0.7491546746779738","-0.6487596036535135"
"0.021064034056036234","-0.10808295699894321","-0.021638941878566385","-0.018099036650672397","-0.0019432815964822452","0.5877938199535624","-0.09298641373126064","0.688758655990468","-0.6575523780509838"
"0.006217359939221673","-0.10445783324341133","-0.00996882145956174","-0.04111837957304014","-0.011144790784095814","0.4987029228708145","0.013927084190700227","0.6270697561689788","-0.653907789406679"
"0.005185217614109786","-0.11670431148917668","-0.016859948364563386","-0.06929709759875244","-0.011957554463996344","0.3426057694967382","0.07904484406654709","0.5907503504357539","-0.6461773390535128"
"0.00668240167712189","-0.12725768035914917","-0.019332055208237362","-0.06992577308718013","-0.03874836102811449","0.19491776780862544","0.13546909042880176","0.5724389319258678","-0.6266469200851542"
"0.0026125643559951057","-0.10194413711493365","-0.015949172158999287","-0.019444960590675332","-0.08992662525365318","0.06784614233184318","0.1618282692232178","0.5605391484273684","-0.62630370770161"
"0.012911842762451997","-0.10334640561635718","-0.04443519529583737","0.00248531998481736","-0.0645816094405006","-0.05516287999275933","0.16336077961824214","0.5583359734337439","-0.6353579772484473"
"0.009170326833921424","-0.09617925549797034","-0.04993289656389096","0.02038013933933988","-0.039497463006350264","-0.12926291705697995","0.1565062785786796","0.5698531696579013","-0.6431538013889552"
"0.008602263427376647","-0.0912962449607911","-0.0454533646140757","0.04419182518203839","-0.021131062076065635","-0.20808809649712298","0.1337136694308649","0.5827160176745719","-0.656065124388958"
"0.007231208697004144","-0.09214176093127908","-0.04581684899543461","0.058678318404659355","0.022055743952901014","-0.30731365950788925","0.11816565487771019","0.5978743893372945","-0.6671459813433908"
"0.008522349422727123","-0.09961741011997909","-0.03454676792114147","0.07308682890972651","0.01806611776210542","-0.4048986492027215","0.06502933990841672","0.628362637302962","-0.6814628407712419"
"0.012998496502433409","-0.09825565159748559","-0.02758686811898498","0.08382533794176707","0.002257672724275707","-0.5328682216127812","-0.017698357597526405","0.6666345574017944","-0.7075960122611209"
"0.024698677038589738","-0.09166602835820355","-0.01355141439333054","0.07504698709416568","-0.013265012645179089","-0.6028595447363565","-0.1441443970997049","0.7139434527738774","-0.736948842777583"
"0.03554194836826326","-0.0762057584506572","-0.011376703861677492","0.07978564062255941","-0.023924279069033567","-0.6298707592427849","-0.27368332121729616","0.7556982363356853","-0.7716786673029067"
"0.04421406210173593","-0.07015315211154995","0.008255810413775853","0.0671428128828466","-0.029292923022958387","-0.6099703136944729","-0.3977330717381643","0.7851178784661217","-0.8064411787219012"
"0.06387964698084991","-0.04194678088476813","0.01745153155920135","0.06055182912514984","-0.0034551273461676532","-0.5092303753151523","-0.5196651715313625","0.8091153354326077","-0.8375591014965913"
"0.08498753522098776","-0.014140315860244135","0.029628877910375023","0.025378735259579673","0.011412273289609975","-0.3963560189185681","-0.6102226039646109","0.8298805895641356","-0.8562723481231777"
"0.10523081169997778","0.004141629887388835","0.07721022258155699","-0.023146732800483107","0.07297792539354758","-0.23651661102796767","-0.6901917827595101","0.8519783028235441","-0.8582989355307731"
"0.10783908927341818","0.006577214466750205","0.09675989959259951","-0.06112527899879185","0.017027426840206628","0.007841687924836022","-0.7147398129052615","0.8753425118876709","-0.8266743659041841"
"0.09450269356254624","-0.020414169007353773","0.04027731808245776","-0.08259748331487582","-0.064993256533972","0.26222738455038547","-0.7016159511587815","0.8819916148624423","-0.794608523213038"
"0.07816499742645157","-0.037355649939366714","0.01305646842300871","-0.11212019978139222","-0.06665659798724312","0.47419139847594244","-0.6319842515739545","0.8816749909112627","-0.7489285893079649"
"0.057437422822898786","-0.048534326689233256","-0.01275009655260748","-0.09929637511698661","-0.08616436228308888","0.6098784607449818","-0.5174917931529647","0.868126124333703","-0.6979697220750428"
"0.0271336471320673","-0.09551032148692086","-0.0406392618132369","-0.05790295608950014","-0.08722459287848328","0.5902449723930496","-0.38614172038670835","0.8317539479419481","-0.6596443392459208"
"0.006512945474491582","-0.0934017251477433","-0.033505880829068205","-0.02985998575730745","-0.07164422905000138","0.5451777438769333","-0.28572049377457714","0.7959358634647575","-0.6486615429725009"
"0.027714227189942736","-0.09490267180297068","-0.03475122788565586","-0.006717795986052472","-0.08196173265439238","0.572844216956294","-0.1859401351458195","0.7517008589520429","-0.6564083367725024"
"0.035756657079550516","-0.11299609034096784","-0.05121954866381484","-0.024780518870715564","0.006327235036710516","0.547556089808317","-0.09279136695371239","0.6976505119527613","-0.6599385212889589"
"0.006636186349131811","-0.107844051994997","-0.029412551034446798","-0.026207313777070605","0.050191344132260944","0.49113104602804225","0.012478165271768354","0.6431911923498727","-0.6440853778585758"
"-0.001033632458555918","-0.12940782539466522","-0.012834771891446772","-0.03455050180572969","0.023757378159053186","0.35151243232140955","0.10010989604178856","0.5954997097034477","-0.6369759784851566"
"0.0028869678659362245","-0.11110562465756724","-0.014135880756538339","0.003806212435235116","-0.02243349433343274","0.17133331295027232","0.1434102806575636","0.5667792787985327","-0.6357175330788272"
"0.0060074653246000335","-0.09886330128143576","-0.014883502040924288","0.03461150391811194","-0.06557961431246326","0.03909727916534273","0.16575706859955294","0.5481380436728347","-0.645082328115538"
"0.011124850080168749","-0.09450068816589596","-0.039670658547002066","0.014946380600157804","-0.05999605228299348","-0.07846581635311195","0.1594319802419076","0.5431644091063887","-0.6611806232484528"
"0.012863701795795669","-0.09142089104980654","-0.030641376073699947","0.013206692073988063","-0.06654650632271007","-0.14656659714959758","0.1477849012397235","0.5539560087757597","-0.668616891558581"
"0.009114483312600083","-0.09046942590365548","-0.031698785183107696","0.056903008143310715","-0.022041472275812872","-0.2158589777953785","0.09815942826630343","0.5693914263957645","-0.6938184865788394"
"0.0026183412719938703","-0.09463364399417906","-0.027944156743843457","0.08092457339868492","-0.029097629983264973","-0.3239863498636092","0.06316246360902343","0.5859218351802653","-0.717483797596566"
"0.013870810818246251","-0.09735196745212377","-0.014282513660381994","0.09518385771584045","-0.03324377780146191","-0.4256242351762074","0.01465154365016632","0.6119641551647862","-0.7400867845699886"
"0.013217056491053186","-0.10224536516338759","-0.008468828810806175","0.09618030355125035","-0.013402866555550908","-0.5273349269969091","-0.07833004158975634","0.6401041088258718","-0.7703221612155645"
"0.01690946863359429","-0.09709332681741678","0.006196113775292565","0.07034299255135143","-0.03519192160428591","-0.5945353339765138","-0.17819399169460642","0.6770963404553532","-0.8004594771801279"
"0.03250810464958084","-0.08757140433404688","0.01823013162608948","0.07964122818264494","-0.043125701341830844","-0.6462036858940214","-0.3137236382654739","0.7155925358529378","-0.8478391295560874"
"0.05506311034740821","-0.054791560357807495","0.022309004655543207","0.06314258829721557","-0.029451359288003777","-0.6116205945448208","-0.4379127079131624","0.7431124342762968","-0.8843013594459684"
"0.06954198747896835","-0.022293208799261277","0.032883715325270756","0.024685555547990175","-0.006672675906998845","-0.5007848203751368","-0.528219365918134","0.7706191400350233","-0.8964118535510343"
"0.08601688537003357","-0.0031362475067400353","0.034816791353406804","-0.005400176884272777","0.04564886632174503","-0.35359432982573186","-0.6066003066672809","0.7974398272328604","-0.8995988256839463"
"0.09814195807789874","4.700586323218199e-05","0.04314182283782603","-0.02487871932985741","0.10537838092503574","-0.17474514266928665","-0.6475044023017451","0.8204742196811753","-0.8830756009333098"
"0.09912576687248766","-0.017500566676618257","0.046632098999738324","-0.05685741002451933","0.058405139625248625","0.07472150358042462","-0.6435756029254104","0.8359756006243425","-0.8542130738219115"
"0.0962349403375479","-0.022459403584615175","0.050975324306543994","-0.06001619146024867","0.01955953512446682","0.29797538002924345","-0.6035352858772325","0.8417144097394724","-0.8240267275168417"
"0.07181231546648124","-0.04620032867241945","0.030831061196676297","-0.08671131235323958","-0.036783464145905026","0.45324739297814587","-0.5313122505335465","0.8364109585572145","-0.7853581323041754"
"0.058220194940730836","-0.06411093294652731","0.017899071703749516","-0.11303481190085057","-0.04777587751982473","0.5000377088527135","-0.4488631912812444","0.8234557618881164","-0.7408712700180901"
"0.03483909025508072","-0.06893577530883264","0.004373735263297645","-0.08742278430721824","-0.21038365933219727","0.49904268657529793","-0.38614172038670835","0.811885795005429","-0.7113713484801091"
"0.021524261697270827","-0.08945875386522208","-0.023836370184054365","-0.061265840440308625","-0.09624014288491818","0.6113345909070534","-0.2896771569762759","0.7760281325343412","-0.6963353773914982"
"0.013410583177011657","-0.11753528541594616","-0.006538024560053625","-0.0068154187954346575","-0.08175830240471176","0.6002437328392747","-0.17211967776523773","0.725025291065163","-0.694243416196561"
"0.023654980881480332","-0.10682610893470439","-0.03804737034388782","0.01072472360665791","-0.04657922899229156","0.4882915922120025","-0.09616288982276544","0.6737717889679676","-0.7127278545674511"
"0.01689406352426426","-0.0965583873520589","-0.03299163303953201","-0.0698217961304417","0.00037749855781558873","0.44790824905055","-0.018868638262817546","0.6303943076563644","-0.7072201129839055"
"0.012962872187107717","-0.12106692460471648","-0.0280205710740155","-0.09886313779724316","0.05123242835121481","0.3332622676234454","0.06667330560489716","0.6018453813916719","-0.67407560280162"
"-0.0014476447718004327","-0.11402442057534509","-0.022177972694104316","-0.027189318368489052","-0.014236212590125008","0.18611788786250605","0.13310066527285522","0.5721223079746883","-0.6603961378003513"
"0.008370223968093091","-0.10653526806033504","-0.028107311665021607","0.0453692679421411","-0.02311965259912026","0.05553941557873463","0.1569799636098686","0.5500114020506472","-0.6703002665826321"
"0.008534866074057776","-0.08889057544279343","-0.04513325052821984","0.025722436866576125","-0.010738648273851056","-0.06676095673365968","0.15865179313171332","0.5454863180817058","-0.6697282459433913"
"0.008397182909420646","-0.08579727500039402","-0.039104779453295574","0.025097612376546154","-0.006527163446050812","-0.11282563441079499","0.15828956340198042","0.552109035727212","-0.6711991561585815"
"0.010052269343065546","-0.09203788919043288","-0.024728559120117156","0.06567461974371608","0.005495803639780468","-0.19378404453837292","0.13647218814190828","0.5600905978298641","-0.6835384585193437"
"0.003197958510536177","-0.0946440311682637","-0.023295274116349615","0.08947282709202257","0.03526913699392229","-0.28365154437422563","0.09999844074033246","0.5702093716029784","-0.7114203788206154"
"0.0026231553686594925","-0.09636830206631039","-0.011907473668548179","0.08707269234064395","0.005844028361292624","-0.380411393643884","0.05530486485635376","0.591027396393036","-0.7314411011940373"
"0.010129294889715678","-0.09533893311452468","-0.0009833223321960363","0.08365396851306854","-0.034284862020415766","-0.5155160038480946","-0.004936725580779335","0.6251568197972689","-0.7481604473066991"
"0.020238897887546604","-0.09059926557971319","0.010517406104086685","0.07311667414730884","-0.057478303781063694","-0.5829105615159755","-0.11067994283744938","0.6659881168348027","-0.7828412414915165"
"0.03540619084229238","-0.07702011289889131","0.011294188749068018","0.0559123388054974","-0.06946872202694608","-0.60062681182118","-0.22965847714205548","0.7081122950063201","-0.8130275877965863"
"0.05201674997739516","-0.06532623231442769","0.020753456723500402","0.05429395672885582","-0.08988115260960691","-0.5954575497458259","-0.37572064970054386","0.7460280131600754","-0.8586094610206466"
"0.0661827108256891","-0.04787370241745151","0.02799505692121004","0.039504197382414445","-0.09154928065698816","-0.5277232283734616","-0.5011635914896159","0.7780202248938459","-0.8893351410712859"
"0.08280674943145566","-0.024833911580358987","0.02779534703667932","0.012472114129623088","-0.05034627855696599","-0.40150101215788775","-0.6023650052119414","0.8020176818603321","-0.9033251315624281"
"0.1010100043074167","-0.0072390773984235355","0.030246594833468497","-0.006724053858448765","0.030834357550884362","-0.2526602407581349","-0.6750895894121808","0.8232842572478942","-0.9069206898662263"
"0.10518170791398831","-0.01642653287626869","0.03605800790566082","-0.03164299801545154","0.10273857427329755","-0.04483891714367163","-0.6931732120734664","0.8373608304107532","-0.888240130133311"
"0.0976159698762116","-0.017513031285519797","0.058150010334048916","-0.06704522628568602","0.0694645653167102","0.1600458773106139","-0.6716902027177634","0.8456062458060549","-0.8543111345029242"
"0.08047094972929014","-0.04563630511962466","0.03809021603780384","-0.10747974671214033","0.035944046763451","0.33918386361586994","-0.6217582276653384","0.8521234221345014","-0.8041694396117742"
"0.06949384651231202","-0.04645793058971799","0.007138901389442248","-0.1186572695615209","0.0063751009778118435","0.47943346705940026","-0.5362720114483521","0.852334504768621","-0.747539396326952"
"0.048407140297502954","-0.06295276303609233","0.004743415401156995","-0.1258393815732676","-0.07588515143157894","0.5334073584001879","-0.4362408783913177","0.8416220610870452","-0.6866927437585849"
"0.025353394185115927","-0.08685053445257437","-0.01782029062213097","-0.050442609443518235","-0.11287355741762928","0.5487695316100433","-0.34493112267323944","0.8129544008406603","-0.6579936511155408"
"0.010696395476927332","-0.09467623140792601","-0.026725657965424365","-0.010295951147293453","-0.029755068684291695","0.5839350750240726","-0.22143864865965293","0.764022807718782","-0.649544089101615"
"0.017016341579571367","-0.10943328962994367","-0.03614320784608714","-0.02662610985282259","-0.0542569259449444","0.5480414665290075","-0.11123721934473084","0.7137191774751254","-0.6523878488509826"
"0.026536699145528714","-0.10948522550036675","-0.035951139394573624","-0.023129403307693367","-0.02151398960487625","0.4715218265121445","-0.030153487535268482","0.6653680615970761","-0.6562775891978189"
"0.018971827645151797","-0.10565235826314248","-0.03142204139275489","-0.05196856755861455","0.029127936750622058","0.39837555470408076","0.04764231288123267","0.6200380659198654","-0.647239663097817"
"0.002010802272790884","-0.119799689366393","-0.008814758548747189","-0.0716924186021339","0.0350202341001954","0.2793369139547269","0.11900156963863269","0.5912648643564208","-0.6145691128737595"
"0.0007052192570710026","-0.11539552755451477","-0.04247320573736597","0.012106269281839745","-0.07000003397317081","0.12532688047961987","0.1591533419882669","0.5667133154753704","-0.6138990315535061"
"0.010918806742879624","-0.0893901985162636","-0.032553799580167866","0.010364655256471147","-0.04021066552876003","0.001158050480927343","0.1780450155851104","0.5550378072756232","-0.6256663132750275"
