"AccX","AccY","AccZ","GyroX","GyroY","GyroZ","MagX","MagY","MagZ"
"0.0025547951960074983","-0.005294598409782934","0.02717721706315248","0.14376901625106786","0.15491723666785398","-0.38329938513199263","-0.2526182692420543","0.9546172336642597","0.19908938782894448"
"0.00968447235781111","-0.0038864092191311906","-1.2240763361026554e-05","0.04817568302447912","0.024829575239722904","-0.2583391483902142","-0.3723491268314905","0.9901450795195356","0.16053519674412614"
"0.016029451763116435","-0.001887085951323802","-0.008100800874680273","-0.037298189162502486","-0.023954913271338415","-0.12606913823483626","-0.43782911643707023","1.0064907909991816","0.16543823079476008"
"0.023814808890779377","-0.007849843234599111","0.00741936263369532","-0.05174039590354967","-0.096702049216546","-0.011530182374643955","-0.4707920218427725","1.0085884246757462","0.1795916557542568"
"0.028547065913097382","-0.021971206402638097","-0.0052871013226155885","-0.01821745485140227","-0.12684801892216166","0.0534280268437308","-0.4505907484538172","1.0039446067251125","0.18921794594033475"
"0.025442936383096724","-0.061308473378497215","-0.03830965736907295","-0.035666328591468885","-0.1108033554649969","0.07829630312831042","-0.4135039968942315","0.9959234666285629","0.19340186833020906"
"-0.004769371471087727","-0.09505328582719767","-0.08524251285987593","-0.013546193794968632","0.004238126037343105","0.07052784871365839","-0.38575162683161135","0.9863455921053805","0.19953066089350152"
"0.008052493588161267","-0.023520972776063194","-0.0356537430825527","-0.015215601600379994","-0.0242681958558466","0.15355153678777453","-0.34236765073974446","0.9744721939361461","0.2105624875074279"
"-0.0454292319090306","-0.04258247593874679","0.10482883980833403","0.15403192698099008","-0.06686242153397882","0.32231702257187383","-0.23854703743319577","0.9536145911521908","0.15582828405551755"
"-0.02763633063284816","-0.060380898732740766","-0.06058753249247413","-0.011965358952704817","-0.09654648490796669","0.18113792270822116","-0.16144783265079646","0.9349997413557578","0.12265108697956119"
"0.01683340590627728","0.017275692158684824","-0.055013416894248504","0.057309288474270116","-0.017420733651596285","0.1646423948555533","-0.10870161123659967","0.9201711863088472","0.10705943869854521"
"0.025278294277132046","0.0017396997520616293","0.020634498198692026","-0.06470381925987262","-0.05071963289755634","0.37296608337593123","-0.0034042151857549916","0.8861868822155718","0.10013308592968301"
"0.007106042183697666","-0.030506347347969205","-0.031097796802565397","-0.02545444359031646","-0.04151501242377119","0.29224793472509514","0.10582198024142453","0.8431787955136781","0.1268023224757646"
"0.011519606006750721","-0.022158175536161236","-0.026265106732225287","0.052815173344131564","-0.02149556121755224","0.2510151823024341","0.18361778065792567","0.808825096810693","0.1077131765719631"
"0.003479101755809184","-9.083193687070691e-05","-0.023045378604165362","-0.012565151953149615","-0.027125553209890307","0.25453416352744046","0.262110176708529","0.7752233799917596","0.10029652039803748"
"0.006630409433133064","-0.013761184006155558","-0.02284917964831822","-0.04510127466588143","-0.024395040599765112","0.21433040975264342","0.33831773907927787","0.7398538461120735","0.10620957946310199"
"0.00851272122939586","-0.011459386229004075","-0.013669133766838825","-0.04852096124305626","-0.05194739428680538","0.2119472100540529","0.3951320789966297","0.707703322402713","0.1177317094820918"
"0.005708028511997627","-0.006163693265442974","-0.017134626902749382","-0.03132432789804026","-0.022652720343676817","0.18791863549626792","0.45389688668946665","0.6732308897180358","0.12995660771500578"
"0.0050687164748014464","-0.0012062066900770528","-0.010961588176148276","-0.03037313129380357","-0.01953928020474101","0.17169491860718678","0.4901477234881303","0.6442861835143687","0.14625102420994596"
"0.002897558878600628","-0.006938888067378059","-0.00922078712474243","-0.027447335261136248","-0.029740469572255793","0.17427226899405351","0.5323056912639778","0.6141013668352483","0.15184048302766862"
"0.0057070656926644855","-0.008111600021531499","-0.012211065737069544","-0.01813273288665244","-0.020123005356471692","0.19049113211592777","0.5836308575846065","0.5808294666321269","0.15309892843399797"
"0.008075601252156306","-0.012841919099666812","-0.02047827016081803","-0.0009028846804561143","-0.016360742385907404","0.18885055879999374","0.629801216212881","0.5472013644839285","0.15278840294412455"
"0.007504649387612138","-0.007712732536682145","-0.023865283714389732","0.016836258063838604","0.018776926987460127","0.17866250143269938","0.6693121205791412","0.5187184015423982","0.1516443616656433"
"0.0059294769586167775","0.00122958563276601","-0.030969751168223054","0.0063511447263679835","0.008698274429164743","0.1720832199837392","0.6989313669411545","0.48882382348519254","0.15700501222766974"
"-0.0055781397109141975","0.018116014542130472","-0.027285341302630425","-0.01957011803860121","-0.004981093548477954","0.2038753951889693","0.7352936590412743","0.45279465637388217","0.16074766155298698"
"-0.00833180300365673","0.00913464059812415","-0.02959222797295944","-0.07030702192855436","-0.050700486521115806","0.19228459909887932","0.7751110654865399","0.4172800031832387","0.1637058254302028"
"-0.02783852269280477","-0.016552217682692574","-0.01347086955882487","-0.07342151688270991","-0.0983869303433127","0.14108463571683813","0.807293783782048","0.380393312870817","0.16802049539476063"
"-0.026856446973015476","-0.03455007421911123","-0.01661624860887957","-0.03397477754527064","-0.06742245304486436","0.05237475935983233","0.8244021725555907","0.35985233403804145","0.1604534795099489"
"-0.012173452142832475","-0.04640495600188644","-0.022933854987157512","-0.0036140838274105174","-0.018777493752113395","-0.15068744550826021","0.8155693399151784","0.36530090453125685","0.16225125866184806"
"0.013798599368261742","-0.04695963109800507","-0.002870549762228854","-0.061474757103384896","-0.045837306905221","-0.4359384904908813","0.7641048544677297","0.4205517840120944","0.16468643224032956"
"0.01948789880770774","-0.007514337511665928","0.00556765754093167","-0.13747902423037447","-0.04805828657232256","-0.5730088764138885","0.6842471309742866","0.4999584324350078","0.17668252221754727"
"-0.017257138221741745","0.02579421362548054","-0.036614085340120284","-0.15211281814170824","0.17119404993936016","-0.5133075397689527","0.5565472193307244","0.5799851360956481","0.24176212751629525"
"-0.00877469989689503","0.003847163889263982","-0.02146339544438736","-0.05341365470735875","0.20225904571412132","-0.40776237185479564","0.42848507795742896","0.637241300600623","0.322318976968211"
"-0.014436077575680344","-0.02479132416661205","0.0014697841915432737","0.10054155923666755","0.20086614682807272","-0.47447740211370976","0.26302968294554335","0.7271493100709927","0.35149202956948294"
"-0.011220261003036984","0.002191749568224231","0.0004968438957581335","0.16109850904080517","0.24804999826870566","-0.4792098251404425","0.10150308730999254","0.8108963451579929","0.3292322549796049"
"-0.0008410685919305711","-0.002747663324234453","0.0002293937401559787","0.20349800139969584","0.27775081472207896","-0.40540829475944656","-0.052416684001165365","0.8743134840463374","0.2854971912479501"
"0.006951028271064261","-0.0029647552626029822","0.013158491880049222","0.1441541160908398","0.13890847266651518","-0.32529686700947363","-0.19371414242239687","0.9300524921185769","0.22360455808211419"
"0.016029451763116435","0.00022161425959462062","-0.016110261828010626","0.04993655204183631","0.035058526853076456","-0.2074304110405873","-0.29173908005321775","0.9635090896265529","0.1873547930010939"
"0.02078770490742886","-0.0019065099668620382","-0.010705496907463587","-0.020452959421278383","0.026660447486848655","-0.11095693403613642","-0.3706215696589179","0.9889049690440821","0.1747539954909646"
"0.0206201743434648","-0.02296941383216995","0.011695653117774605","-0.023547236633845923","-0.01687218996657508","-0.033942209764169104","-0.3919373960624363","0.9906859787694673","0.19348358556438633"
"0.026375908316896547","-0.024893118472641314","-0.014018161383030059","-0.024118147146307826","-0.07841725971583913","-0.0001796477612957736","-0.3891788773513928","0.9854352982457392","0.20927135520742762"
"0.02473911545058106","-0.039044604445525696","-0.07924502056745386","-0.06808499585307025","-0.09224333680295739","0.07597134863620275","-0.3688940124863451","0.9791028192221475","0.2222643954416076"
"0.008095820458151973","-0.08182106476080202","-0.058790763107347675","-0.05070447733456316","-0.03993064977331726","0.11508300478944611","-0.32420043660236675","0.9617148872365353","0.26366234627579355"
"-0.0018231443117198644","-0.07322671692318859","-0.020544358230156014","0.03574851119503859","0.02376216475316332","0.13704144763348594","-0.28198674117579103","0.9509496728964294","0.2563241386466781"
"-0.03799626665729205","0.019402985411214716","0.03987665916209623","0.17760003717503284","0.08851999646914843","0.3171477604965196","-0.21171417360759012","0.9385353754772632","0.2151713395150238"
"-0.02444939864019859","-0.1142113897088682","0.01188753569659311","0.08912527448662841","0.01282072860651652","0.13737393068715897","-0.12622795739060377","0.9235617011193952","0.1399914840719699"
"0.0037823898457441064","0.03092340018846521","-0.10230356100990998","0.0794785235003413","-0.0386406626606365","0.11685705670357004","-0.08117215177689219","0.9120972755537677","0.08524420586259124"
"0.032388715052273136","0.01737125416026332","0.06724951138102266","0.011733685186860394","0.002593212971396009","0.3481876017846794","-0.0011751091566291254","0.8883109012214014","0.05701580448840805"
"-0.0023815795249333806","-0.009743425070225081","-0.03194661544312514","-0.10873132119139914","-0.01799919354980582","0.3022224263352856","0.13056505716472436","0.8387724455264288","0.07652497697588052"
"0.008174771643468371","-0.03420833619172727","-0.04681023528767119","0.03741695625085053","-0.028335843530637356","0.2572522731633075","0.21443517151059438","0.8013184706348104","0.07761671922448837"
"0.007935992448852928","-0.008174961783447673","-0.026628591113584205","-0.012095330148627847","-0.014426240376297276","0.26861008842746603","0.28846935550294533","0.7633499818225253","0.09728605749094821"
"0.01118069360149009","-0.011315004509227875","-0.015114810283607234","-0.06104825903083747","-0.022704654889771757","0.2222905879719682","0.3620577182894709","0.7275846680038646","0.11398906015677454"
"0.008092932000152599","-0.0030765212557534783","-0.01487317578009023","-0.0620524068630428","-0.05926131008708812","0.23832015417277316","0.4261166528014827","0.6904341243987933","0.1311660227808288"
"0.007085822977702","-0.0007374335236382146","-0.0185988906890191","-0.057121203414763115","-0.01613050720921002","0.23661405499954594","0.48488146049432","0.6527426815437902","0.12201369255297875"
"0.003111304770554766","-0.007865423995726038","-0.012611724657431076","-0.037405054368039196","-0.03562989496536305","0.2484912233548433","0.5479651611185886","0.6099588701406489","0.1328493978048798"
"0.008238317719454725","-0.00495753461073706","-0.004389336205702407","-0.030627297188053047","-0.041457573294449594","0.24570030721087271","0.6113274999964983","0.5649059204207203","0.1604044491694426"
"0.002766615449295387","3.3814152144716434e-05","-0.003635312639599342","-0.01765424633573581","-0.025359060653545838","0.2598490386190018","0.6656340956310836","0.5214756684505872","0.16025735814792355"
"0.0003268312591521803","0.011707024260179947","-0.01723375900675636","-0.012628693426711987","-0.01246254014261534","0.300305188288558","0.7277146985422457","0.46923271650595566","0.16357507785551922"
"0.002290982698730767","-0.013214818649304618","-0.05647561542835141","-0.016627955262743584","-0.004978700251422888","0.246816673668461","0.7699005301434572","0.4206705179937868","0.15082718932387096"
"-0.027703727986167048","-0.01885089930761867","-0.029827666719976012","-0.06128220718349892","-0.06382293427404456","0.1899717790247889","0.8128665488548632","0.3798392209562528","0.15501111171374524"
"-0.013868014169135565","-0.03105063527000322","-0.014431211816392456","-0.0959652615029593","-0.0822513215980554","0.07336002187888765","0.8378604002064396","0.3473588806310804","0.16867423326817851"
"-0.016380972628596387","-0.06281565233817538","-0.03150465147942737","-0.05518607671990911","-0.02871733508121493","-0.17517712795070123","0.8307829885639642","0.35494466279475795","0.17671520911121819"
"-0.0010914016185435255","-0.06360923243824024","-0.02139111161854894","-0.0003054022790499487","0.007366883277431336","-0.46935667771042466","0.7714609043638457","0.41630374600043496","0.18344870920742212"
"0.011103668054839958","-0.022459403584615175","0.013513095677090844","-0.145075118569876","-0.09426327951743338","-0.6941103682261773","0.6491944386662785","0.525407082511067","0.18756725780995467"
"-0.03726452396411571","0.050739012189692116","-0.04723154672970084","-0.16043097468078213","0.18213859737217855","-0.6124214661339601","0.48839230249019344","0.6223072042366525","0.24792360697325858"
"-0.013945039715785697","0.019076828144957692","-0.020488596421652093","-0.10881796865534783","0.2777747476926296","-0.4788700614359591","0.3426087681853456","0.6855000678262446","0.35157374680366027"
"-0.010113018769941232","-0.03454695806688584","0.021934161387266827","0.034804053837997916","0.2186148377884447","-0.49792109772306264","0.1825310914687267","0.7481124541720077","0.40436308008215244"
"-0.006752779297328837","-0.009270808649374934","0.02064874843864303","0.15991432703350647","0.25666586766694444","-0.4543828058771216","0.006654625770676594","0.8262130287963053","0.3948675374707581"
"0.0036389297651082293","-0.0003910212679161843","0.01490321691057201","0.25567902968879375","0.22129772378717408","-0.42943444243362805","-0.18599586279654773","0.9020180797745511","0.3405746070834048"
"0.006539904415819137","0.012877035549071386","0.005516439287194731","0.20885088917252584","0.13762327214794456","-0.3340579168179378","-0.33501160084362824","0.965316484681203","0.239849944236548"
"0.01345294722766924","0.012025806632836892","-0.01552373021263601","0.050785697188533444","0.022223274746755662","-0.1750169536328733","-0.43534923597966746","1.012506646071594","0.16368948198336733"
"0.026130389386949223","0.003504906503175799","-0.015110679779273611","-0.10618966224890433","-0.04520068988857335","-0.017030714061869453","-0.46137404886971467","1.0143931971140387","0.19086863407071486"
"0.030997441115904967","-0.026195670102852488","0.008044101414155954","-0.09819884057363658","-0.08312487502315463","0.036857265599355905","-0.4470241788072154","1.0004221652682397","0.24767845527072688"
"0.021578179579925923","-0.04665009331028344","-0.02448898986876696","0.010826775064197476","-0.038724428057563834","0.024969904332923995","-0.4228105145658331","0.9800526910756863","0.2723080296517448"
"0.014894287769359985","-0.06694559275421973","-0.06679568050591103","-0.02445414675650884","-0.05329960712291786","0.11232363813232042","-0.39475164242420807","0.971846853674282","0.27237340343908656"
"0.0010268009143353418","-0.08318178456588707","-0.05874739281184462","0.0034323767657765047","0.042358082871028796","0.11626489710432758","-0.36493734928464633","0.9753297171372574","0.26907202717832635"
"0.002541315725343721","0.007412447134894386","-0.052037388521872396","0.028007041666023167","0.08145498356259258","0.20539705120833412","-0.313751502090838","0.9617544652304326","0.2644631751707305"
"-0.014282026482380063","-0.13532851462289783","0.07893057763651139","0.21682245585580498","-0.17997442695052432","0.3305441579875784","-0.1870825519857467","0.9417280003183239","0.1747376520441292"
"-0.03189199208526844","-0.004610083637606568","-0.08712808808817529","0.07126626941720465","-0.06517036051604692","0.07985193551812357","-0.12319080042591936","0.9246698849485238","0.1239912496200678"
"0.029640828675529373","0.041546363124804656","-0.04038317054455221","0.06140482527024469","0.04966003218603622","0.20814913721464948","-0.07885945427167416","0.913416542017016","0.08983834876803526"
"0.016328888575718858","-0.005839094075298643","0.03260903678708476","-0.16562982251770333","-0.04946075864659145","0.39391008887372786","0.026716580032811556","0.8786011000518943","0.10875915716943166"
"-0.004085769744567716","-0.03741070196201519","-0.04326213206508815","-0.00461332163665876","-0.023496118225882198","0.26778494800229213","0.12284677753887506","0.8324531591674698","0.15025516868463035"
"0.015276527044611304","-0.016193860176773232","-0.0316492191311042","0.022692663877170387","-0.0038787409249143967","0.2675179908059123","0.2044877858556189","0.8019517185371696","0.1282405457972839"
"0.006052717833257006","-0.012739086076229086","-0.0288797159754093","-0.07299983255815964","-0.032784264766889164","0.21488859298143753","0.3070266631954202","0.7491546746779738","0.16833102088463414"
"0.006773869513768941","-0.01563295277620383","-0.017764528813627046","-0.08229421719105542","-0.06881295863385789","0.21996806036346403","0.3681320322188397","0.7121096723899625","0.19358164624539898"
"0.011262533244805879","-0.0037041143139461344","-0.02000532741461808","-0.10728719679225437","-0.03977508546473796","0.2051106789431267","0.4136336590383764","0.6844182693263812","0.20376361362388212"
"0.005056199823470811","-0.0067737319994326224","-0.02148198271388867","-0.058564365064308455","-0.03057644823359047","0.21130893966634484","0.46490309770827687","0.6436529356120095","0.22953722928338124"
"0.006585156924476092","-0.0016885870545667399","-0.00566566204479223","-0.0307707468783681","-0.05556605943406569","0.2368518895926843","0.5266214708897061","0.6045498776413307","0.23568236529350917"
"0.00521410219410359","-0.000272191996388148","-0.013111515681799583","-0.01922641643160475","-0.04674915308320128","0.242559919828005","0.5942469750483196","0.5537713114709047","0.24988482059351216"
"0.00620676892655727","-0.009267692497149548","-0.018367582446336156","-0.0028687230875319267","-0.03167138163628332","0.2596791567667602","0.6524266424085111","0.5105521421348915","0.2464853836517393"
"0.003313496830511375","-0.012103391022250429","-0.029902015797981244","0.028633791655251994","-2.864395242917065e-05","0.2601645334874507","0.7006867879390914","0.4725308826640764","0.230076563028951"
"-0.00042898191735232257","-0.003993293240461916","-0.04264255641504455","0.007250064027355635","0.0039655295027710485","0.23226507958215872","0.7437642619519537","0.43158085164484994","0.22633391370363376"
"-0.011249145583030789","-0.005107213789296415","-0.03995566334602212","-0.05436388856199601","-0.027475213909635497","0.17592497672800478","0.7783432692287722","0.3920424357412993","0.22929207758084957"
"-0.02784815088613605","-0.022456287432389792","-0.008720996100373923","-0.11750197004220507","-0.09873156511924225","0.0803373122388141","0.8039222609129946","0.3587045722150155","0.24758039458971423"
"-0.02358286124038451","-0.061715650602614254","-0.01864845674102259","-0.05276764972614133","-0.06528284547763505","-0.11960149343163486","0.8043680821188199","0.3546940021667408","0.25037512399857553"
"0.0011991455749650226","-0.07736392836109218","-0.01490415456259241","0.017019180487730275","-0.02827553244484968","-0.435695802130536","0.7680336538440639","0.4010926036791824","0.24037293453528227"
"0.012841556951133754","-0.02117243271553093","0.027002083679406826","-0.11479664366780719","-0.10506183582989272","-0.6893294075273755","0.6646588617433407","0.5003146343800849","0.23922889325680105"
"-0.0333843620516149","0.052077918929199454","-0.06944746428809766","-0.14609563314527166","0.15747806451677496","-0.6289728123095073","0.5082034823240515","0.599826903702902","0.28584040363149443"
"-0.00833180300365673","0.01933339134484777","-0.049897787277055156","-0.08559356006830153","0.2450583769498727","-0.4516404274052201","0.34132703221859806","0.6799987266744993","0.3781155044644253"
"-0.011913490922888258","-0.028132878069633858","-0.0026214803509113237","0.05915391670677771","0.16697466723127818","-0.47624902714423023","0.18718435030452732","0.7463974077697849","0.41593424044164856"
"-0.009785660196678111","-0.0015296632910720754","-0.005023781671347057","0.1630817732156307","0.24589603091914594","-0.4597219498047175","0.02448747400368538","0.8095243080362147","0.4120118132011415"
"0.0014677721689073941","-0.0019073409407888084","0.001088745166766458","0.27375946716608635","0.31353060569532076","-0.4065246612170348","-0.15019084720370962","0.8935088110865996","0.3426502248315065"
"0.00652931340315475","0.005894465514168223","0.005786987321047105","0.22267597342033846","0.21217447541326115","-0.3020230532523624","-0.29463691789108154","0.9564905920420721","0.2414025716859154"
"0.016468497379022236","0.004488696535078196","-0.017458871492938868","0.10067634418058774","0.08563607351779348","-0.17931496449458803","-0.4069559979336735","1.0051055612127708","0.1431130824175402"
"0.025266740445134526","0.0003787722034949004","0.00042084261601945115","-0.013761849705240919","0.021275529112949384","-0.04918546567745539","-0.4410613201793031","1.0140238025043293","0.1314765482707023"
"0.026262295635587588","-0.013854668572917124","0.017964333672220775","-0.03509349257980813","-0.03936822496537667","0.006734058248220218","-0.44861241685296777","1.0104749757181914","0.15975071129602472"
"0.02378303585278619","-0.026223715472880955","0.0003787114718164875","0.03813901845042292","-0.05499406143790483","0.026407104802888673","-0.43677029107323523","1.0092348652427379","0.1541449090314666"
"0.012458354856549293","-0.05122772092937485","-0.0862338338999457","-0.10990587570270355","-0.10558357458789719","0.10987491257643667","-0.40522844076110076","0.9999736146707352","0.16534017011374744"
"0.00301887411457459","-0.09940031818161055","-0.06215505888708445","-0.07316061174126443","-0.008257038557452764","0.16270574173999802","-0.3339806393051574","0.975593570429907","0.22422560906186115"
"0.01233703962057533","-0.04772828198026685","-0.046731755705332334","0.04319826759542678","0.046170605079749495","0.1854674830567807","-0.2764697037537038","0.958152867785765","0.22981506787958386"
"-0.0471815630953213","-0.074781676883656","0.15610905111027631","0.3052510065634368","-0.06275073719337486","0.43693873516294385","-0.18036737007300424","0.9412266790622897","0.1534094539238715"
"-0.03941161107698838","-0.031398605601837944","-0.052221195964718664","0.1274889205247091","-0.026742865010785197","0.06495329707652758","-0.12659018712033668","0.931068327295278","0.05880541191688944"
"0.01955914743835912","0.059187939590120885","-0.07335285613553917","0.08446556642538793","0.08182594460612785","0.1819751975514123","-0.09340437111172174","0.9243532609973442","0.010195097994220926"
"0.028885978318357996","-0.004069950585206401","0.049424319929268164","-0.15986295241711854","-0.039516609382790786","0.4214552177729158","0.054441086270067614","0.8772554482593808","-0.0017160060594524848"
"-0.006945343163954185","-0.020013224087687492","-0.04604815723811756","-0.059366335480633525","-0.016405975700248154","0.2712553915552295","0.16483756236253827","0.8323476178504098","0.06354010846511829"
"0.013186246272393133","-0.016499243094861022","-0.02864221197622592","0.018066652051909955","-0.025500265179794753","0.28169099105007595","0.23759001038814195","0.7949068356234239","0.07880161912005823"
"0.006488874991163418","-0.011271378378072478","-0.026389021862234015","-0.051660487686797","-0.03956447532389212","0.2520102045798497","0.3211814864803709","0.7555531170247279","0.0888855258175287"
"0.007493095555614626","-0.016562604856777196","-0.02021185263129928","-0.06095198407089449","-0.02582336028222871","0.20431466112119423","0.3864107016576736","0.7179012521636222","0.10671622631500084"
"0.007374668777640038","-0.003083065175426787","-0.009037805782762883","-0.08993267251293185","-0.0448345154391482","0.22191684789703653","0.444478913716409","0.6826636449302609","0.10730459040107694"
"0.004771205300865288","-0.006239727379742381","-0.015319270248121625","-0.05762183320646663","-0.025378207029986367","0.21353924569791785","0.4988691008270861","0.6470698357518226","0.13322529708209507"
"0.005504873632707876","-0.0009870373168916","-0.004466989687174538","-0.030269154337065143","-0.05592026739821551","0.2399291780018623","0.5556277130937097","0.606304502037451","0.16306843100362037"
"0.0021927751267518444","0.002211485198985006","-0.005032662255664349","-0.009664387410067473","-0.04896534615619271","0.2552379597724418","0.6231696257762307","0.5621486535125313","0.1573482246112141"
"-0.000547408695326911","0.007376819127784144","-0.022842983891817784","-0.0050432856077641305","-0.02355786528990291","0.2778079772845517","0.6807920166291408","0.5164360705609787","0.151889513368175"
"-0.0018809134717074718","-0.008091864390770724","-0.045802392230266935","-0.03112022498296113","-0.019761617501156677","0.2532236463815761","0.7320614552990413","0.4679002573780749","0.14015491854032436"
"-0.015947703928689348","-0.0138307780725225","-0.05096965315163059","-0.07709151835573651","-0.05057842837130743","0.1979198228260964","0.7749996101850831","0.4240346474750699","0.14938896600235163"
