"AccX","AccY","AccZ","GyroX","GyroY","GyroZ","MagX","MagY","MagZ"
"-0.001582439478438172","0.01946530845572243","-0.023417123994191526","-0.07264168970717173","-0.011085437017130169","-0.30903674686634064","-0.2141940540649931","-1.042264063102221","0.4531972992264667"
"-0.024786385406792955","0.07398758522588547","0.03743140059659081","-0.20667183794139787","-0.37753391895508576","-0.3276266752687882","-0.060079235976286456","-1.0252719110555832","0.3409668498074555"
"-0.016140267795314696","-0.0021134224746276412","-0.013152820725135824","-0.12429898221417983","-0.08991705206543292","-0.23603123430727713","0.03270730248608794","-1.009902456758741","0.27453073842136544"
"0.027937601275228145","0.014486735916964732","-0.00323465371923781","-0.08079617881434258","-0.08009256765438558","-0.3241319628798163","0.1438282380380247","-0.9852453665606309","0.1870932978517267"
"0.014079742613534748","0.017619507620885703","-0.03977805165967629","0.06705327717009964","-0.035952990067797","-0.31008030681582527","0.2579027390785534","-0.9328441026404096","0.18956115832387915"
"0.008061158962159405","0.018018375105735056","-0.019280423904067066","0.004916936648097335","-0.00845640020213979","-0.24135096316604543","0.3202898440687205","-0.8991368445044161","0.19689936595299462"
"0.00822772670679034","0.014425451589865482","-0.014307296686383735","0.014967561091345262","-0.01565471975466283","-0.24613192386484722","0.39128687109638705","-0.85797573085107","0.20360017915552767"
"0.007853189986204032","0.0038968353557366285","-0.007794937028775417","0.01582825923323555","-0.020697396649687616","-0.22522432162110237","0.4573520010346122","-0.8221840317031445","0.20565945345679396"
"0.008464580262739515","0.006669971931325849","-0.029152329261428484","0.04730728288579339","-0.022063490608719483","-0.20081472633757533","0.5214109355466238","-0.7776455959038828","0.23733305342388927"
"0.007613447972255464","-0.006457027061592602","-0.010261674216815685","0.0170490257253126","0.0090141896404335","-0.20193594656237043","0.5691138045699226","-0.7411810708597006","0.24797263731376493"
"0.0007687653330573742","-0.0015208341931001494","-0.001272457635549716","0.04214116853525281","-0.019824321883999414","-0.17940233230431232","0.6101293555058432","-0.7115503460951444","0.24382140181756154"
"0.006576491550477954","0.0013129946406654975","-0.0038166417798454347","0.018160038763054647","-0.016891575672721117","-0.21728355847060518","0.6565504885623945","-0.6746636557827228","0.25155185217072773"
"0.0033202365658432636","-0.008058625433699946","0.0019499553203270676","-0.0069354736704835595","-0.045451986079355314","-0.2657168745447104","0.7083493399142126","-0.6297426327091192","0.24454051347832112"
"0.003557090121792458","-0.0008608331517634842","-0.013237496063975117","-0.014225895012166105","-0.03239176404985829","-0.29214563698631","0.7634082588336275","-0.5772490201364704","0.24481835207452374"
"0.0038574897537279893","0.006815496240251355","-0.03368968827191448","-0.0032131948942079273","-0.020203898796932934","-0.266760434494195","0.8130894594577758","-0.5252831141491211","0.23671200244414228"
"0.002807053861286702","-0.002501798913651531","-0.04936082171368403","0.024807824747117766","0.016390570493853476","-0.22244068612794213","0.8534641424103222","-0.4804676323925773","0.23023999749730548"
"-0.014667154215630774","-0.009569959263011952","-0.019889673293276604","0.09381964153344834","0.012423441295375504","-0.1693501804188113","0.8750028794167536","-0.43827749089789764","0.2504895281264237"
"-0.029224982532507316","-0.004557836151960936","-0.025484441413170352","0.11711047984285529","-0.052938219267602844","-0.07726450896940287","0.8918604937620198","-0.4036599389022629","0.26423436691503416"
"-0.026163217053164236","0.01848787537435982","-0.01579840875082201","0.0562512266644967","-0.06870765356343497","0.04307494139140167","0.8941174636165096","-0.39165461408670366","0.2758055272745303"
"-0.012606720842739514","0.03989895731498414","-0.02254145707546323","0.03409258188401925","-0.02064067550948254","0.2503599237295019","0.8835013461527969","-0.4157048417117196","0.2718831000340231"
"0.009073082081275627","0.053084436097999003","0.00996627291085123","0.1196136288013729","-0.016364093001784492","0.5083133819404871","0.8371080769216098","-0.47455731863722506","0.27596896174288477"
"0.002600047704664453","-0.0062066961661532945","0.008731148852489306","0.1332076531453224","0.06665962116817245","0.5244521579034475","0.7508974012451572","-0.5576315278279688","0.3102084828631452"
"-0.019134635921338922","-0.02104467047429012","-0.01602971699350496","0.1401683327492002","0.27329928219965555","0.45776139648056785","0.633674287938488","-0.6227373277892708","0.3979891358163283"
"-0.012404528782782904","0.0052430858273217916","0.01456637428216497","0.007684071546778613","0.25980108680908137","0.5335772402524295","0.4629804937581557","-0.7193867888868393","0.4803274209733078"
"-0.007946675270406019","0.005577864448069049","0.012588688807225787","-0.044707510079714616","0.15963442516338971","0.5362953498882965","0.3039895062307358","-0.8035427965774464","0.5109877272366053"
"-0.0007929276252742259","0.013539841127410898","0.018456689788788762","-0.11328512679670234","0.19471537339655218","0.48858281824441685","0.15157438148923763","-0.8764718466658109","0.512507667792302"
"0.004161740662996053","-0.0010687843769375484","0.012969934357219286","-0.13719982684653984","0.1554772681787395","0.3850034260490565","-0.006162733896798685","-0.9584642573566909","0.47991883480242165"
"0.015075297803987819","-0.0014583034051107453","-0.0018953376890602205","-0.06946365327945381","0.07628785522070435","0.3069305805259839","-0.1312434459561376","-1.0140449534533407","0.44974883194418735"
"0.029007293554331966","0.0009454964215516907","-0.005637987665756948","0.05397143561304683","0.029939264452289546","0.18113064205741078","-0.23681948026062302","-1.0563934069236103","0.4406782189505146"
"0.02813979333518476","0.03162765059140235","-0.006051451149552714","0.06383095426080791","0.043167017275641234","0.12183944874145838","-0.29118180354593615","-1.058662545240397","0.47924875348216833"
"0.02650781456553491","0.02826116747057746","-0.0011572165646416051","-0.004712292295480148","0.005650889288948768","0.04766903205273759","-0.32291870063561917","-1.0528973507960022","0.5111675051517952"
"0.020928276530065373","0.030482984007277378","-0.03238444890248928","-0.038724021319258096","-0.03616120691158778","-0.037223356396037126","-0.3173459355628039","-1.0596783804170982","0.491539025502424"
"0.0014359991309141997","0.07149362472816854","-0.05670485841886754","-0.019510427563436558","-0.05794260340974656","-0.1215478540816039","-0.27619106550006306","-1.0551401037835244","0.47241719270495175"
"-0.007022368710604333","0.06415716367220244","-0.06650447995039055","-0.015857755583199705","0.031037787800565007","-0.126518111701475","-0.2318597193458174","-1.0463801744675556","0.4587213842568475"
"-0.05051291798793985","-0.041300698656704854","0.07220198607703786","-0.13770045663824335","0.03268437617445065","-0.3521867373357293","-0.1675778742308932","-1.0332270878289704","0.4294666144213984"
"-0.019885635001177786","0.11557367539106453","-0.027665347701323836","0.002569656849727415","-0.06869568707815965","-0.14964145867517215","-0.06682228171439288","-1.0181346794894104","0.3708590140694871"
"0.002139820063429859","-0.042075581843417406","-0.045430646840240764","-0.07993644342205172","-0.046469137327758515","-0.1991062002807446","-0.0023732536472842168","-1.0020132433085163","0.3399535561036578"
"0.02901499610899698","0.006407903529170922","0.026417823841415704","0.027239730235277572","-0.12512723833956896","-0.3734947753740438","0.10963932431630294","-0.9669999113739073","0.3094239974150438"
"0.0026510771293201717","0.03159233419951465","-0.041694605670477836","0.047783843937511165","-0.053641848601792344","-0.28401557691474355","0.24341354988923372","-0.910258260789599","0.309505714649221"
"0.010809045338903174","0.015991837441825967","-0.012960752273622304","-0.0018549477593322941","-0.015640120642626924","-0.26110579569815023","0.31984402286289515","-0.8748491489160154","0.3060735908137773"
"0.003568643953789969","0.01075078101394996","-0.016824839077727582","0.02407613505155108","-0.027441468421159063","-0.26976977016247633","0.38451596153291634","-0.8299545111716767","0.3307521955353015"
"0.008668697961362392","0.013944837044970178","-0.006852149414625733","0.01647041321605526","-0.03081625659850812","-0.22417833478801424","0.448797806647841","-0.7887274341951683","0.33089928655682044"
"0.011076709113512403","0.0033937014174258728","-0.02128784901020834","0.03564645973749903","-0.023962093162503615","-0.21883191020960802","0.510181813924901","-0.7486481190416858","0.3373549480568218"
"0.009171289653254566","-0.0018530160203262525","-0.011442791931015472","0.0009296129070986641","-0.0012800989825233608","-0.21055866400543785","0.5614512525948014","-0.713423704472957","0.32851314331884524"
"0.005132262550787818","0.0029392106153533857","-0.0023333776736410477","0.0005049440587901568","-0.00542720411954232","-0.19428155567708072","0.6063120114309645","-0.6797032536723312","0.32836605229732624"
"0.003438663343817852","-0.0043049084630004735","-0.005179088634291322","-0.00048225938046521236","-0.009213160730951768","-0.21661373859605226","0.6513399532193122","-0.6415764528844562","0.33810674661125234"
"0.005073530571467086","-0.002951355808033824","-0.015955367915499723","0.0072382222072826475","-0.015378054615097163","-0.22779196447355526","0.6980118607041402","-0.6017609910236233","0.33469096622264405"
"0.0016718898675302694","8.793132912557927e-05","-0.023854957453555675","0.012264160216146243","0.0008563972985343637","-0.24307405052449688","0.7345970634071725","-0.5560747934013357","0.3382211507391005"
"0.006349266187860039","0.0101137356273403","-0.04164503961847434","0.022524182697270165","0.007083277576405975","-0.24129029107595912","0.7776466735946704","-0.5100192011693386","0.33902197963403735"
"-0.0006552444606370958","0.0032153951870893096","-0.034495136616971164","0.04396269077737408","0.007970712124424574","-0.19547558240997942","0.8065135966718536","-0.4667208758455303","0.3479128147125203"
"-0.02533519242667521","8.512679212273176e-05","-0.0033302748945612066","0.09388607125580901","-0.039866030752830475","-0.12746945007402846","0.8361885706845948","-0.42585000081409885","0.36734517299986613"
"-0.03363469507822784","0.01629514292509683","-0.025410092335165117","0.09354622064721027","-0.08311769513198944","-0.04311582978522023","0.8492009771296187","-0.3924329813000202","0.3671817385315117"
"-0.019336827981295532","0.047209450435738716","-0.03167813266143958","0.031032000907431752","-0.06148468305124476","0.14431967156024056","0.8546344230756135","-0.39611373473248285","0.35825821655935786"
"-0.0005358548633293828","0.07356586595804995","-0.008926901741405079","0.07236380396055468","-0.006000638093936216","0.4870538815742416","0.8078231964639655","-0.4568659553650657","0.3609058549467002"
"0.0006869256897415855","0.004670679825040714","0.017145461188079813","0.0875222964035777","0.05086625390178965","0.5959238800251289","0.7222812525962508","-0.5476051027072818","0.3848653480074648"
"-0.03184385111861209","-0.04079380456137547","-0.020253157674635522","0.15141324807054088","0.2637500269499409","0.5197197348767147","0.6099900363790228","-0.6232386490453052","0.44786933555811104"
"-0.01759412498833611","0.0012399728068506286","-0.018334538411667163","0.040961800275951234","0.3374635762459842","0.509041447021523","0.44826839396592316","-0.6853101361411363","0.546845249593575"
"-0.00640616433740321","-0.000806404359560083","0.014837748416884068","-0.017538716383804224","0.19701533186647094","0.516831743388606","0.2881071257732121","-0.7611019944547496","0.5918714456252302"
"0.009634405752488534","0.011574172303637676","0.011474423305665704","-0.14814628979205724","0.21636753185373742","0.44589393565968427","0.1015309511353568","-0.8549546106502315","0.6040963438581443"
"0.005424959628058354","0.007481521842557101","0.023385207559668948","-0.22915204108808487","0.18966790990741728","0.36772401479247346","-0.055537432441941946","-0.9519998516867745","0.5525981428796523"
"0.014905841601357512","0.004840510121324229","0.0022663519522826666","-0.18249719549971433","0.07751083001584325","0.33178186862533926","-0.17128376300431536","-1.0243748098605745","0.4718124851720402"
"0.027920270527231863","0.0015743359406345013","-0.010643539342459225","-0.02253153580644743","0.026014257281980747","0.2397641499168275","-0.27563378899278157","-1.0738341095677522","0.4281591386745626"
"0.023099434126266197","0.033935680673004606","-0.0028655931570285022","0.0748794686638649","0.018585463223054818","0.1872124123676632","-0.3537639553136517","-1.0876336367733292","0.4601432641315314"
"0.024653424529932775","0.03739149349095721","-0.013650546497337514","0.036052740068458426","0.014025514344036915","0.1443536479306889","-0.4208043191396196","-1.0946125563639124","0.47343048640874935"
"0.019772893330313263","0.05946631585558866","-0.04024273339720899","-0.006770169564261455","0.02535849388889257","0.10704516629481084","-0.4708477494935007","-1.1032669443628211","0.4795592789720418"
"0.01785592003805789","0.06364092112019688","-0.0666697001237355","0.017410056825098795","0.0446269284792317","0.027101193513476136","-0.5032812422172858","-1.1074622117159507","0.5071633606771109"
"0.017188686240201048","0.0539694233300085","-0.06141156810703212","-0.038922347736740644","0.0645583063538242","-0.06681920194014256","-0.5042286122796642","-1.107528175039113","0.4986811117695143"
"0.006308827775868707","0.023154832690578955","-0.02122589144520398","-0.06411461650502154","0.08366639004147389","-0.18886717835777778","-0.4679220478302727","-1.1039133849298128","0.4841681309796376"
"-0.04988708542140747","0.13463413983633962","0.035909309749650356","-0.14646147799305498","-0.15158992387743753","-0.020330547697484058","-0.4149250519877993","-1.1122775343068068","0.41488825984418004"
"0.0038969653463861967","-0.03441504095601119","0.01922723537222632","0.0002650268586122379","-0.05675792136748873","-0.09416047261664043","-0.38614172038670835","-1.1189926006047406","0.36084048115935846"
"0.017892507172716707","-0.030466876086447655","-0.052987404518605924","0.06703017117971331","-0.07547350433810754","-0.4043890036459964","-0.28872978691389745","-1.0847708285480804","0.3878561987783515"
"-0.00474048689109394","0.05698897483640713","0.014319783173447617","-0.057747953403991935","-0.03091031317277222","-0.38757070027406937","-0.13781930874205955","-1.0437416415410592","0.36595598001885316"
"0.0010470201203309907","-0.0005753936079181644","-0.0059097748509094085","-0.02652887214328017","-0.05131795716132293","-0.35738026824711805","-0.007667380466458768","-1.003860216357064","0.3429117199808736"
"0.00500902167614759","0.008361003872301757","-0.02558770402151095","0.026323192616620354","-0.13243636754574156","-0.35920043094970755","0.1371687837760104","-0.9476462723580551","0.34761863266948223"
"0.005183291975443537","0.019475695629807045","-0.014449799085893767","0.07183717992966655","-0.11529318074030134","-0.3506578006655541","0.2582092411575584","-0.8906011904871998","0.35149202956948294"
"0.00787629765019907","0.027045868102677083","-0.0165191817570394","0.048329722960387886","-0.11185640616922608","-0.315686407939801","0.3548409875201752","-0.8428965151761424","0.3403131119340377"
"0.009023015475953033","0.011487543271771957","-0.022787222083313862","0.0009997973528971","-0.05904112675802202","-0.27557002197472824","0.4439495010344915","-0.7950994912126574","0.33304027809226394"
"0.0029957664505795506","-0.003128145510954033","-0.010157998558041718","-0.012225301344550877","-0.06566098641233552","-0.26884755439316427","0.5114635498916486","-0.7514449639437722","0.3161574975112477"
"0.0032335828258618525","0.007231814177562869","-0.010635278333791978","-0.0016545995676909419","-0.07876668108587882","-0.2879471283523369","0.5977856808695573","-0.6987402687370037","0.31932812619732437"
"0.006058494749255753","0.014438954916175487","-0.024935084336798353","-0.03271646381881582","-0.05383091906914259","-0.25625202849124484","0.6557981652775645","-0.6558904940107","0.2988824742061808"
"0.0046681836322207265","0.006316911884189662","-0.017076799842078647","-0.03886073176237713","-0.05189713504864898","-0.2571499754245224","0.7131976455275617","-0.6199932535457144","0.2714418269694661"
"0.003815125703070425","0.003981148047781477","-0.01912346473938935","-0.019487321573050245","-0.011700993019693233","-0.2363054721544673","0.7561636642389679","-0.5785550939350863","0.2576316143935138"
"0.0018307550574961729","-0.0034894114256170685","-0.026009015463540598","-0.02095166371378305","-0.006625767284719545","-0.2414480385101835","0.7967055301436988","-0.5357317045380474","0.25281029757705714"
"7.168413587360334e-05","0.0008891979380130581","-0.03786769340537518","0.023144193439302987","0.012674258826746458","-0.1714761304554359","0.8243185810794982","-0.4962064812991292","0.262910547721363"
"-0.022061606694044243","0.004941026804941083","-0.00970591485872657","0.08443764668700444","-0.009357237213666762","-0.17092280099384866","0.8470554625765847","-0.45678679937727085","0.2778321146821257"
"-0.033990938231484746","0.03016202032806266","-0.0282436183080312","0.0939987129589423","-0.08059755333300457","-0.06915871773387093","0.874194828481195","-0.42604789078358607","0.2774235285112395"
"-0.029042046859213213","0.04793655262166202","-0.026830985825931783","0.025475972969122084","-0.08410612681573183","0.1304694468353361","0.8729409563398117","-0.42614023943601353","0.2697747953922505"
"-0.0033925398247164774","0.06904848394864932","-0.01492687233642734","0.03849523580221196","-0.029495156624111493","0.4247557794736114","0.8386127234912696","-0.4808370270022868","0.2624202443162997"
"0.0015476861735569166","0.01677606908521467","0.002749414434099997","0.07323701784723756","-0.017787865419843462","0.57791640368751","0.7510924480227058","-0.5691091460582287","0.2747758901238972"
"-0.02372728414035353","-0.04175877303383654","-0.026562503044246222","0.11893970408177201","0.2365621724043872","0.5028043561606496","0.639219189185939","-0.6591886601688206","0.3207336626251727"
"-0.015427781488800916","-0.005955845912009755","-0.03635179831493516","0.04588048797943834","0.35400125889649264","0.4412343191410551","0.5052777806608236","-0.72449235009961","0.4130087634581037"
"-0.004673089537775054","-0.001115838275540871","0.017391639246363805","-0.005248158722522803","0.17798144038752833","0.48884977544079666","0.3539214812831608","-0.7962868310295809","0.4640493479252031"
"0.0026944039993108777","0.0063882717701509925","0.019242105187827367","-0.1192638018091617","0.18497465438243219","0.44907315318020724","0.1919212006164204","-0.8792686915678972","0.4665825821846972"
"0.0019029665074806823","0.008546103314489661","0.028498152349045448","-0.20155963756842535","0.22923150352471902","0.3660980027781602","0.019750623691792604","-0.956854752271528","0.45318095577963113"
"0.01111329624817122","0.0007008784718589231","0.0002529376148576363","-0.17707691525492425","0.15883745724405265","0.307076193542191","-0.10973257277507045","-1.027527856707738","0.38934345244037716"
"0.025482411975754914","-0.010314719644879103","0.008796452126003902","-0.04728479075738833","0.03706410978522205","0.21324073901469318","-0.20343861747445952","-1.0826204242129858","0.33031092247074434"
"0.0288214694230385","0.011827203864338987","0.004245070053305256","0.05004149174817416","0.008657109719817603","0.13392290220304928","-0.2622034251672968","-1.0966046487234173","0.342192608320114"
"0.025326435243788383","0.018378810046471322","-0.00738333227192978","-0.004022482207488661","0.025683982288381594","0.07260283419461043","-0.3043056652924161","-1.1028052011006841","0.3627526644391057"
"0.02105151740470559","0.038931911407706146","-0.012878142186949824","-0.02153220172223924","-0.01786062165031748","-0.01005585058554645","-0.30689700105127515","-1.0976468692293835","0.35400892038214177"
"0.009380221448543063","0.08732160059831036","-0.08645068537746095","0.015982299169144325","-0.03706108660429272","-0.06652069525691785","-0.28201460500115494","-1.0917365554740313","0.3523909191454326"
"-0.009843429356665736","0.05787188463359971","-0.04616381135945904","-0.0025907772781765285","0.07403097609777679","-0.09453421269157214","-0.2697823856663254","-1.09454659304075","0.3512795647606222"
"-0.03230600439851294","-0.06144558407641417","0.05986210438033608","-0.10283929364288846","0.05383394225007191","-0.34573122695054515","-0.207228097723974","-1.0793486433841302","0.3359820985226443"
"-0.01925017424131412","0.10975685790367808","-0.0011361509925401244","-0.015810580852827643","-0.15399040082366905","-0.21214827276569934","-0.07080680874145592","-1.0545860118689598","0.2506693060416136"
"-0.010151531543266281","-0.027642603452839858","-0.04568260760459183","-0.06933849583152793","-0.08199045221905318","-0.26438208856281137","0.027301720365456972","-1.0177916702089658","0.23976822700237074"
"0.03375688132464624","-0.0007408612910861392","-0.008837682847798803","0.0197485756021139","-0.14036057409506622","-0.39164786472786983","0.13995516631241806","-0.9768152538604743","0.20512011971122418"
"0.0064166635411789085","0.024844825914146402","-0.04709524008669125","0.12280995747148002","-0.059433627475052896","-0.32733544923637387","0.25595227130306797","-0.9250868158365096","0.22474859936059546"
"0.01132319086279286","0.023057193254183542","-0.038823905158609145","-0.006615551978593021","-0.014787867561317801","-0.2426857491479444","0.33533630976532164","-0.8828043256894026","0.23558430461249646"
"0.0025567208346737474","0.012840576568034376","-0.012690204239769928","0.029887291633709658","-0.007196329302647362","-0.22850789513657382","0.40131784822745464","-0.8456801674135962","0.24259564330490305"
"0.008290309963443569","0.004275094687202099","-0.0015805932588380692","0.00201347640613679","-0.018974222770039847","-0.232063279615632","0.47604862785390745","-0.7962208677064185","0.26464295308592034"
"0.007613447972255464","-0.004142037573353653","-4.239344499648114e-05","0.04439303984831922","-0.023731618656100725","-0.22206209228580356","0.5356772141330308","-0.7553631853396197","0.2727002723757954"
"0.008295124060109208","0.0011797271971598403","-0.011023545741152638","0.035803387922206095","-0.029179480742548242","-0.1987421677402267","0.5778630457342426","-0.7243208454593877","0.26444683172389494"
"0.005579973540691759","-0.001180758113569737","-0.005093587194585304","-0.00464008607552291","-0.02395730656839348","-0.19315062791787174","0.6241727234893375","-0.6909302112745739","0.26392384142516073"
"0.001236695528956964","0.00518595636985639","-0.004674754055155826","-0.019920558892793677","-0.01627913095632964","-0.20891081003869344","0.670231626816156","-0.6579089716994698","0.2592823025238939"
"0.004487173597592891","-7.587440618885615e-05","-0.014282513660381994","-0.03472764773202478","-0.025130740114492508","-0.2165045288338969","0.7158168451117848","-0.615059196973166","0.2632537601049074"
"0.003973990893036329","-0.0007542607456552968","-0.026077168785045398","-0.013004165770489627","-0.0026548088109534687","-0.21056837153985164","0.7584763617441859","-0.5782912406424365","0.25377456094034845"
"0.0015987155982126356","-0.0005277164788697658","-0.027574476605984107","0.024011630828389283","-0.0027469507475735232","-0.21527167196334293","0.7913278118484318","-0.5476578733658117","0.2444587962441439"
"0.006609227407804256","0.015415349280129635","-0.04412334221864876","0.04775977519752542","0.012953317263367195","-0.15085004670969154","0.8167396205804699","-0.5089242100048426","0.25470613740996884"
"-0.015793652835389086","0.0021597570720436055","-0.007570650643459633","0.07351814073027108","-0.002617234047188927","-0.10429513854465883","0.8339594646554687","-0.4803884764047824","0.2705429373935166"
"-0.02265855468058284","0.00976327237372527","-0.007883123296298287","0.08884992810119145","-0.07522938803849076","-0.05465566131963771","0.8485601091462448","-0.4495967971525678","0.28732765729352006"
"-0.028637662739299977","0.039195745629455464","-0.017188323459086493","0.01821876648861987","-0.049156809920598024","0.0627933706694547","0.8532969594581379","-0.44173396903160805","0.2843531499694688"
"-0.011451337642987398","0.06841071145985374","-0.024257681626084014","-0.0004477929448056238","-0.019628550184894986","0.35777379201831744","0.8332628690213668","-0.4808897976608168","0.27093518011756723"
"0.0076240389849198675","0.023735475721909132","0.001756854242730144","0.07356627821024259","-0.0022759498871364665","0.5690582785349078","0.7525135031162737","-0.5687661367777841","0.279564520046683"
"-0.02580697389990733","-0.040226664856355294","-0.0185988906890191","0.14108294486865858","0.13606523576509638","0.5547882029466059","0.6304699480216189","-0.6561543473033495","0.3239860085454266"
"-0.014715295182287102","-0.006479878844578763","-0.04499487863304344","0.12125993061639795","0.3322701216364902","0.43337121626586844","0.48351613305147995","-0.7266559470993371","0.4299732612732971"
"-0.007648201277136719","0.013477414211162343","-0.0029066916751480623","-0.03140327336519351","0.19935358308927076","0.4560868467941855","0.3354199012414138","-0.7947169039383156","0.4866359914517901"
