"AccX","AccY","AccZ","GyroX","GyroY","GyroZ","MagX","MagY","MagZ"
"-9.0982","-1.6848","-1.6964","-0.13374","-0.092488","1.3831","0.5691","0.72468","0.087612"
"-9.4797","-1.5496","-1.4037","-0.63392","-0.28503","1.3443","0.60824","0.69012","0.095549"
"-9.1435","-1.984","-1.4889","-0.97159","-0.36761","1.2721","0.6448","0.65411","0.10828"
"-9.1584","-1.9391","-1.489","-0.73425","-0.34782","1.1441","0.67676","0.6186","0.11576"
"-9.1806","-1.8649","-1.3249","-0.56815","-0.26766","1.09","0.70407","0.5832","0.12079"
"-9.0551","-2.8506","-1.5644","-0.55134","-0.2463","0.99241","0.73206","0.55079","0.13077"
"-8.8754","-2.5955","-2.1283","-0.19431","-0.097486","0.93092","0.75366","0.52065","0.13389"
"-9.1804","-1.7001","-1.4738","-0.03452","-0.021162","0.86331","0.7712","0.49152","0.1324"
"-9.1576","-1.3407","-1.7488","0.16314","-0.0217","0.80038","0.78336","0.46755","0.12619"
"-9.6552","0.81052","-1.1464","0.047884","0.013232","0.7721","0.79758","0.44395","0.12399"
"-10.44","2.0409","-1.6642","-0.46297","-0.10262","0.88504","0.81558","0.41375","0.13056"
"-12.077","-0.3488","-1.7132","-0.80242","-0.25823","0.71924","0.82954","0.38416","0.13432"
"-12.022","-2.9693","-2.0779","-0.67036","-0.40385","0.54074","0.83997","0.36178","0.13301"
"-12.338","-3.9843","-1.8918","-0.21824","-0.25863","0.10482","0.84411","0.34698","0.12384"
"-10.723","-5.9105","-2.1385","0.047194","0.034326","-1.0251","0.83867","0.36387","0.12235"
"-7.7364","-4.2122","1.6059","-1.0382","-0.32174","-2.0627","0.81949","0.4089","0.12529"
"-9.1141","1.838","-0.95526","-1.2279","0.079601","-2.4554","0.77649","0.47773","0.14134"
"-13.675","2.2663","-1.9871","-1.6103","1.1262","-1.8431","0.72658","0.53419","0.195"
"-11.507","-0.91793","0.094767","-0.60331","0.79334","-1.6568","0.67163","0.58883","0.24955"
"-10.442","-1.0409","1.7928","0.38027","0.71798","-1.8203","0.62063","0.63621","0.26816"
"-9.7993","-1.3544","0.89916","1.9288","1.1939","-1.7444","0.57299","0.67634","0.26419"
"-10.026","-1.9705","0.094543","2.7464","1.0585","-1.5518","0.51675","0.73505","0.2163"
"-9.5591","0.055508","-1.0871","1.6769","0.51792","-1.1858","0.46908","0.77721","0.16337"
"-7.7759","0.95405","-1.9881","0.019568","0.17383","-0.8159","0.43013","0.81396","0.13335"
"-7.256","-2.2187","-0.97962","-0.95585","0.31762","-0.47616","0.40929","0.81862","0.15811"
"-7.3628","-4.2705","0.69346","-0.73557","0.087272","-0.42744","0.39703","0.81442","0.19566"
"-7.0332","-3.7611","-0.17341","0.06669","-0.19148","-0.26684","0.38642","0.81716","0.20369"
"-7.9837","-6.3616","-2.8105","0.688","-0.066665","0.049537","0.38359","0.82322","0.18464"
"-9.2536","-8.715","-3.0474","0.3571","-0.045398","0.29899","0.39431","0.82316","0.17337"
"-10.205","-5.2111","-2.0682","0.2201","0.094401","0.4905","0.40404","0.8198","0.16188"
"-10.11","1.3469","-0.15187","0.1433","-0.21226","1.1197","0.42969","0.80707","0.15665"
"-13.409","-10.988","3.12","0.94021","-0.32533","1.1036","0.47463","0.78594","0.11866"
"-9.9754","-1.2334","-3.5771","0.72294","-0.43405","0.71881","0.5005","0.77428","0.09137"
"-6.656","-0.67616","-2.9146","0.25902","0.006376","1.0922","0.5292","0.75485","0.07374"
"-8.2796","-0.70489","-1.0675","-1.584","0.028777","1.3238","0.57074","0.72052","0.10469"
"-9.7535","-3.9376","-1.609","-0.062893","0.044821","0.84337","0.5933","0.69802","0.11738"
"-9.0522","-1.0124","-1.7984","0.04404","0.03456","0.94571","0.61821","0.67808","0.11302"
"-9.3659","-0.58611","-1.5486","-0.77417","-0.10822","0.94508","0.64568","0.64945","0.12342"
"-9.3605","-1.8635","-1.4847","-0.95363","-0.18971","0.84916","0.67209","0.61749","0.15628"
"-8.6318","-0.64238","-1.387","-0.92642","-0.23188","0.89637","0.69445","0.58789","0.17202"
"-9.3059","-0.66941","-1.3013","-0.85438","-0.17862","0.84892","0.71377","0.5605","0.17604"
"-9.4855","-0.89457","-0.74484","-0.54707","-0.25758","0.78713","0.73152","0.53127","0.18654"
"-9.2158","-0.62546","-1.1727","-0.04357","-0.17258","0.82341","0.75111","0.50533","0.18378"
"-9.1114","-0.58663","-1.7385","0.24682","-0.012452","0.88792","0.76888","0.47707","0.18381"
"-9.5612","-0.86111","-1.6721","0.2996","-0.020483","0.9178","0.78769","0.44962","0.17876"
"-9.8674","-0.21651","-1.9146","-0.050856","-0.03342","0.86984","0.8022","0.42493","0.17137"
"-10.465","0.83158","-1.8173","-0.6298","-0.23702","0.91536","0.81884","0.39349","0.17295"
"-11.39","-1.5679","-2.1381","-0.82008","-0.19487","0.71763","0.83138","0.3611","0.17799"
"-12.395","-3.316","-0.70343","-0.66011","-0.40525","0.55719","0.84168","0.33237","0.18086"
"-12.126","-2.8362","-1.5714","-0.24424","-0.3055","0.27629","0.84976","0.31457","0.1725"
"-10.259","-5.4263","-2.3833","-0.17364","-0.12658","-0.60803","0.85011","0.31689","0.16699"
"-8.0268","-6.1278","-1.2571","-0.074944","0.042578","-2.0082","0.83118","0.36597","0.16872"
"-10.218","-0.49014","-0.083961","-1.2249","-0.11197","-2.6786","0.79108","0.44182","0.17824"
"-13.882","4.2174","-2.2243","-1.9168","0.92554","-2.1801","0.73673","0.51271","0.22424"
"-10.712","0.096169","-0.49402","-0.87125","1.0186","-1.8007","0.6851","0.55395","0.28346"
"-11.061","-3.0881","0.70141","0.64092","1.0309","-2.0501","0.63391","0.6019","0.31034"
"-10.856","-0.87394","-0.54388","2.0437","1.3891","-1.9636","0.56773","0.66879","0.30252"
"-10.413","-0.30788","-0.68424","3.0171","1.2813","-1.7535","0.49956","0.73849","0.25611"
"-9.4991","-0.19328","-0.50419","2.2222","0.71115","-1.431","0.4407","0.79255","0.18656"
"-8.4126","0.95745","-2.1109","0.545","0.28555","-0.80349","0.40289","0.81898","0.15268"
"-7.059","-0.75509","-1.1591","-0.64717","0.13428","-0.24856","0.38474","0.83139","0.15891"
"-7.6277","-1.679","1.1067","-0.29789","-0.090702","-0.008192","0.38329","0.82755","0.17933"
"-7.151","-2.5809","-0.067663","0.54325","-0.23559","0.11882","0.38598","0.8293","0.1688"
"-8.8849","-6.5432","-5.1937","-0.84382","-0.22694","0.40355","0.40682","0.81388","0.18017"
"-9.203","-9.0085","-4.6082","-0.93268","0.12706","0.50588","0.42284","0.79531","0.21514"
"-9.4833","-3.7004","-1.4395","0.45074","0.43172","0.65462","0.43014","0.79619","0.20809"
"-11.091","-5.6412","4.6523","2.3569","0.19867","1.6189","0.46567","0.78381","0.17066"
"-12.814","-10.805","-2.8891","2.1016","-0.057808","0.55318","0.49505","0.77718","0.1016"
"-10.306","4.405","-7.257","1.2729","-0.011111","0.64599","0.51672","0.76358","0.056379"
"-7.5727","2.5442","4.3604","-0.44085","0.046049","1.7259","0.55236","0.73769","0.050675"
"-9.536","-3.6916","-1.7615","-0.40901","-0.002511","1.1368","0.58809","0.71221","0.057071"
"-8.5753","-2.2532","-2.1671","0.73258","-0.021515","1.1515","0.61879","0.68659","0.043182"
"-9.3065","-1.0578","-1.2949","-0.28347","0.030347","1.0606","0.65055","0.65558","0.039615"
"-8.8285","-1.8068","-1.3187","-0.69248","0.021717","0.80627","0.68287","0.61959","0.077441"
"-8.9166","-0.76821","-1.3324","-0.77592","-0.12469","0.93574","0.70427","0.59302","0.092846"
"-9.3959","-0.78856","-1.2808","-0.55942","-0.012971","0.83125","0.71908","0.5722","0.090487"
"-9.5452","-0.71447","-0.90967","-0.31652","-0.023611","0.8795","0.73885","0.54655","0.099327"
"-9.3489","0.28589","-1.0381","-0.46822","-0.13164","0.92967","0.75781","0.51726","0.10324"
"-10.186","0.8486","-0.64743","-0.45377","-0.18869","1.2389","0.78197","0.47515","0.12244"
"-9.5905","-0.38229","-1.8655","-0.32697","-0.11281","1.2498","0.80821","0.43243","0.12376"
"-9.3274","-3.1396","-3.9896","-0.26622","0.050375","0.9757","0.82326","0.39976","0.11894"
"-11.24","-1.0604","-2.2387","-0.95584","-0.10112","0.90302","0.83797","0.36751","0.12571"
"-12.514","-2.8074","-0.72647","-1.1839","-0.30856","0.47052","0.84862","0.33546","0.13298"
"-11.948","-4.198","-1.109","-0.32039","-0.1922","-0.21483","0.8515","0.32682","0.14316"
"-10.815","-6.8866","-2.6581","0.57068","0.16472","-1.3212","0.84011","0.35668","0.1396"
"-9.1465","-5.5055","1.6981","-0.44125","-0.18167","-2.3973","0.81236","0.41748","0.1346"
"-9.8829","3.3952","-0.96405","-1.7518","-0.093671","-2.7372","0.76566","0.49244","0.15374"
"-12.521","3.0971","-1.9056","-2.192","0.83621","-2.0088","0.7099","0.54869","0.21155"
"-10.554","-3.6364","-1.2483","0.11082","0.84149","-2.0982","0.64794","0.61115","0.25887"
"-11.419","-2.1124","-0.18331","1.5261","0.9155","-2.383","0.58264","0.67916","0.25463"
"-10.736","-0.003799","-1.7793","2.4459","1.342","-2.1965","0.51541","0.73469","0.22799"
"-9.9252","0.091457","-0.19694","2.04","1.0343","-1.639","0.44981","0.78838","0.1808"
"-8.7351","-0.076611","-0.71503","0.86847","0.39094","-1.1","0.40153","0.81938","0.14805"
"-7.3414","0.25989","-0.55614","-0.35281","0.029535","-0.43078","0.36799","0.84474","0.12719"
"-7.4092","-0.76039","0.8291","-0.55177","-0.21587","0.054771","0.36467","0.84483","0.14366"
"-7.2553","-3.0333","1.3036","0.41524","-0.34036","0.19269","0.37551","0.83282","0.15899"
"-7.3716","-6.4317","-4.9512","-0.75714","-0.41295","0.42855","0.38733","0.82847","0.14796"
"-8.9674","-11.67","-4.0737","-0.019485","0.11567","0.44387","0.40715","0.81617","0.16179"
"-9.5212","-3.8489","-1.6646","-0.30244","-0.000205","0.52788","0.42217","0.81052","0.15954"
"-13.583","-4.2643","5.1069","1.9295","-0.22192","1.3414","0.45263","0.79993","0.12856"
"-14.699","-4.2077","-3.2019","-0.10085","-0.37636","0.6891","0.47426","0.78581","0.11877"
"-8.0895","2.1245","-3.1031","1.0163","0.26807","0.8032","0.49549","0.77402","0.10192"
"-6.2775","-0.63347","1.4684","-0.52803","-0.10273","1.6613","0.53895","0.74573","0.08873"
"-9.5969","-3.545","-3.0318","-0.29745","-0.069846","1.2374","0.58579","0.71125","0.096775"
"-8.8011","-2.8342","-2.2994","0.34665","0.003158","1.0659","0.6162","0.68571","0.087845"
"-9.2031","-1.7218","-1.6385","-0.60045","0.008855","0.9436","0.6426","0.65765","0.10496"
"-9.0673","-1.245","-1.4856","-0.74212","0.009027","0.80458","0.66439","0.63296","0.12264"
"-8.7826","-1.209","-1.4657","-0.82393","-0.15655","0.87772","0.68585","0.60575","0.13882"
"-9.3803","-0.43024","-1.2497","-0.50762","-0.022342","0.8021","0.7044","0.5805","0.14315"
"-9.5305","-0.93902","-0.79053","-0.25826","-0.14929","0.94635","0.72442","0.55335","0.14986"
"-9.5148","-0.41586","-0.90835","-0.11266","-0.16401","0.98928","0.74831","0.52168","0.15804"
"-9.5606","-0.69808","-1.3057","0.00328","-0.065397","1.0557","0.76924","0.48855","0.15469"
"-9.7847","-0.17287","-1.689","0.012114","-0.038301","1.1482","0.78947","0.4549","0.15247"
"-9.5472","-0.96235","-2.6431","-0.064267","0.017985","1.0221","0.80946","0.419","0.14634"
"-10.394","-1.4734","-2.7334","-0.30943","-0.024199","0.91966","0.82396","0.3855","0.1498"
"-11.9","-2.5104","-1.0738","-0.79124","-0.21039","0.56217","0.83825","0.35651","0.1584"
"-12.95","-2.9223","-1.481","-0.75059","-0.070059","0.12572","0.84269","0.34085","0.16417"
"-10.587","-5.0238","-1.7156","-0.040901","0.050457","-0.65406","0.83981","0.349","0.16827"
"-9.3442","-5.944","-0.78594","0.18838","-0.065842","-1.7648","0.81585","0.39543","0.16365"
"-8.2198","-1.592","0.49949","-0.9438","-0.3929","-2.5029","0.77975","0.46459","0.16156"
"-11.92","4.6661","-2.8771","-1.4711","0.44423","-2.4603","0.7351","0.53031","0.1845"
"-11.104","-0.22111","-3.22","-0.7947","0.86507","-1.9763","0.68268","0.57844","0.23567"
"-11.72","-2.5262","-1.0409","0.32054","0.64468","-2.1791","0.62316","0.63241","0.2562"
"-11.373","-0.57084","-1.097","1.1103","1.0881","-2.2833","0.54575","0.70239","0.26021"
"-9.2599","-0.49308","-0.52336","1.8175","1.2286","-1.821","0.47559","0.76176","0.24005"
