"AccX","AccY","AccZ","GyroX","GyroY","GyroZ","MagX","MagY","MagZ"
"0.02263150393036659","0.05224619114937028","-0.04603370047294988","-0.0973997584061098","0.09147332503510029","0.1075912151055877","0.8010522869004945","-0.46742008707105187","-0.7073345171117537"
"0.021850657451200798","0.041122566422152215","-0.018770306618864495","-0.08113699217254074","0.05397993337043096","0.1723914342013777","0.8116684043642075","-0.45197147678641464","-0.680841789791495"
"0.022463010547069416","0.03210234444706942","-0.02523248064881928","0.004950151509277665","-0.047814170272705805","0.2281733538267375","0.8159872972956395","-0.4582247998222114","-0.6275621531079395"
"0.02397174844207904","0.02085822850046978","-0.010111736909505132","0.044878265646431874","-0.11576226696309434","0.27734686939989567","0.7940027390833834","-0.4947816735188211","-0.5895636392155263"
"0.028362204601137038","0.00637580716124945","-0.004777603613063064","0.056286848399675606","-0.07583728549047761","0.26128089994503895","0.7776745374200343","-0.527961225069515","-0.5520554287281766"
"0.024025666324734133","0.011030611483789584","-0.0043548464945166445","0.073567240959842","0.018961210860700236","0.25941219957038036","0.7758076611206417","-0.5681988521985873","-0.4979913065965196"
"-0.005125614624344634","0.0589178730639208","-0.014701759850244833","0.042897889720404675","0.05526992048311172","0.31365304810754774","0.7627673908502536","-0.6199272902225521","-0.4495983605167625"
"-0.028974649505894342","0.04017629486304346","-0.0051526534065561265","0.012449008139236774","-0.0016170752078767025","0.36971405934730467","0.7398075987502548","-0.6833708144401615","-0.39411235851042165"
"0.006251058615881116","0.027474858392371834","-0.006395935210976959","-0.009773178114803046","-0.09848984211668055","0.32161322632687256","0.6868663305585097","-0.7453235675543003","-0.3973320175370046"
"0.013822669851589905","0.03455475624844787","-0.023749629593048258","-0.03212629831436532","-0.0616522138450994","0.3176088683811756","0.6588074584168846","-0.7864187178844838","-0.39324615582814293"
"0.016398211567703977","0.0389142532117623","-0.016831034834228018","-0.0690121237173212","-0.009941441024808456","0.3295491357101628","0.6181820010360611","-0.8368806601037302","-0.4026109508648538"
"0.01731770403084004","0.05552542200788437","-0.023024726082497244","-0.07294591858059156","0.015342067054028909","0.3276561664994697","0.5440920893929823","-0.885495629274429","-0.43225796342435374"
"0.011415621518773018","0.07131600405132156","-0.023468755298361822","-0.07028487868776746","0.009736965351063534","0.35168231417365126","0.48376690747975676","-0.9425275184806517","-0.4561357392509411"
"0.013230535961716963","0.06781760381962201","-0.02338201470735572","-0.11008879812659522","-0.03839175976690961","0.36845207987350925","0.3786366943810964","-0.9940448738704968","-0.5068657982281671"
"0.023347841514212903","0.030366647657529652","-0.012948360760621435","-0.15944897008936368","-0.060122897026912","0.27409484537126905","0.31555299375682744","-1.0284117652381142","-0.55968781840033"
"0.02938857001025016","0.003333933617742977","-0.0010078988329810974","-0.058745361989001266","0.09628145881872859","0.02861314199842716","0.30747248440124525","-1.0349025562372958","-0.6067896321800867"
"0.004346601974956387","0.03833984248488289","0.009923914588909916","0.10662613670506421","0.2701640630575186","-0.20849095917529614","0.37247878897563536","-1.0193352119709662","-0.5568604020977977"
"-0.025941768606545068","0.05148169513674234","-0.0034963211687728934","0.12591963867763842","0.22972452271806265","-0.3371885966663917","0.5025192619497799","-0.9868548716457938","-0.4673146568863865"
"-0.021195069294230165","0.05321219833923981","-0.0019013269203439758","0.11354830632496485","0.09949087016957253","-0.3841487943932011","0.5725131912643402","-0.9359179934997778","-0.39068023467497787"
"0.009126037144597594","0.031659850831064665","0.009989362430076188","0.07740379811356995","0.018358100002823518","-0.3542253195626296","0.6525938253606958","-0.8862344184938481","-0.3081621716028085"
"0.025490114530419924","0.05599699971132605","-0.0456082585265866","0.05096573136362683","-0.0020155591675452486","-0.3847069776219952","0.7019127962551108","-0.8265376110318637","-0.29147551238381764"
"0.01173335189870486","0.052210874757482574","-0.014115228234870221","0.010635187893910936","-0.00715660057153326","-0.3371885966663917","0.7290521621597211","-0.7671046568625293","-0.3055308766623016"
"0.029352945694924477","0.03617203925342299","-0.02029446271797176","-0.0021726551271441445","-0.03893743149546473","-0.3379409305834621","0.7457704573781669","-0.698555571432149","-0.3489390714572475"
"0.035742214789553625","0.03545116937195046","-0.03473883637265497","0.06600580560591997","-0.03581178554154809","-0.24156938269035613","0.7502008056110554","-0.6535949703646479","-0.3801387114661149"
"0.01806774029134578","0.04582276269544213","-0.038468681785917475","0.028873516305510032","-0.055680937692708876","-0.20738672713572517","0.7840274896030442","-0.619571088277475","-0.38768938390409113"
"0.01871379206387383","0.046443915705702325","-0.03627125348042949","-0.02506645550174623","-0.003279698672031291","-0.22072730630390455","0.8055383627841107","-0.5757714416976324","-0.4233671283458708"
"0.02097449185805545","0.043151181520878226","-0.021911555164585567","-0.04475949855808383","0.01510178002970025","-0.19962555337188354","0.8173526247384792","-0.5377369895621847","-0.46854041539904495"
"0.015645286849198865","0.030964948884803684","-0.0168454915993957","-0.039853326599389303","0.010952281595626223","-0.17079417616286566","0.8237055769214888","-0.49647033459177886","-0.5125860046205734"
"0.012556562428528232","0.03202340192402632","-0.007993614287222731","-0.015722970639279524","0.0014484989899577762","-0.15285707944974694","0.8339037370047411","-0.4644385448641108","-0.5502576495762775"
"0.008206544681461548","0.0222085611314702","-0.01730191232826116","-0.00026920289411138634","-0.005070602858337435","-0.12489452657076514","0.8603743711006135","-0.43169435124628874","-0.5644764483231158"
"0.009830820896446378","0.027984868639926604","-0.01925977138239894","-0.0011416465811147172","-0.008251773303931618","-0.1345292544764723","0.8769254833668747","-0.3996229835247232","-0.5881907896813487"
"0.006751724669107026","0.023315833888890542","-0.02836959869020673","-0.007931341856133797","-0.011127559045299336","-0.09881280848445921","0.8754765644479425","-0.38005826187475134","-0.6218582901623686"
"0.0048289744608528955","0.018949065903716884","-0.030147780805831876","0.013152778096419994","-0.016008688389107146","-0.08130527016915158","0.8692629313917536","-0.36741968915683293","-0.6390515962332584"
"0.002996729269912675","0.010531923255987044","-0.03237825314598885","0.02743709390316069","-0.022137682817426542","-0.06810787713357591","0.8638016216203948","-0.36400278901701993","-0.6605105419281996"
"0.001585236127548858","0.006693031457793703","-0.024992911397469092","0.08739521345645296","-0.07940569139958152","-0.07879344563957806","0.8633279365892051","-0.3579341632860779","-0.6697936197307331"
"-0.01728602280173555","0.032638322629835737","-0.06491010527761167","0.10147542634811452","-0.1375939226994095","-0.09043520628534056","0.8397830041565607","-0.3758761871862544","-0.6899614331256742"
"-0.04526555262239904","0.08203764514146489","-0.05119270038564628","0.048940106206426415","0.026488130098883886","0.035828266951491966","0.8256839085223385","-0.39681294595800437","-0.6915794343623832"
"-0.04281036332292582","0.015556614847680448","-0.070157911033481","-0.016945662630555438","0.010685428973986328","0.14415949724241267","0.8161266164224599","-0.4122087855841117","-0.6756772605914938"
"-0.036763857910889805","-0.046888998314229664","-0.07441026524494694","-0.041374470966488476","0.013116779452228226","0.017949900821576777","0.8040058523890867","-0.42379194513143154","-0.6890952304433955"
"-0.022735580227232974","-0.005872852391073653","-0.02647782770540693","0.012479816126418526","-0.0275005828584192","-0.11702656992837157","0.813730327441149","-0.4267339093444752","-0.6892423214649144"
"-0.008938379183526574","0.017115729677781702","-0.0014498627966788675","-0.0027298945952941426","-0.0438030044084146","-0.09219227001424031","0.8103588045720963","-0.4472221175187209","-0.7026112609763097"
"0.0005790899244314009","0.05441399438083017","-0.01010781293038819","-0.011089256817223652","0.035372048767290144","-0.01801651418159193","0.8060956392913923","-0.4751773738749518","-0.7215860027522631"
"0.01256522780252637","0.08751584075369276","-0.019270097643233","-0.08478581315437987","0.11686381349229913","0.1113917148285946","0.8227582068591105","-0.48554680827608315","-0.7193632939826423"
"0.010400809941657423","0.05359133019332838","-0.04377431460245753","-0.09468673003491647","0.03834213041262748","0.15477225924031124","0.8185786330544988","-0.47682645695401205","-0.7199353146218829"
"0.011823856916018768","0.030503758355446615","-0.02754762832781555","0.00024529049182392605","-0.037800615394308214","0.17984682063118432","0.8210585135119015","-0.4675124357234793","-0.6914977171282061"
"0.02127489148999099","0.011130743841965308","-0.02058979377782588","0.07803825009959424","-0.08257441670048937","0.2505540744177781","0.7996590956322905","-0.4944386642383765","-0.6461936825003484"
"0.026167939340941165","0.014388057763160855","-0.0036499759299837052","0.10180276121192067","-0.11069565709751891","0.28720001682991353","0.7539345582098413","-0.5493465344387695","-0.6092248057585685"
"0.025081879133174185","0.030203569024401137","-0.006210269041180558","0.06607223532828062","-0.04882892822405393","0.30355721231718463","0.7076527442801107","-0.6028295968588544","-0.5632343463636219"
"0.022734525599011162","0.03483624866614104","-0.028326228394703678","0.030654603064455253","0.033009864573939666","0.25167044087536633","0.6761387577933402","-0.6437400498841833","-0.5201039901648787"
"0.0069885782250562025","0.04933155010122629","-0.025626943812680377","0.012738795768665158","0.043837140451059804","0.32100650542600934","0.6649932276477096","-0.683555511745016","-0.4667262928003104"
"8.997770320300326e-05","0.05068084401481825","-0.014150337521706021","0.004309345375897155","0.0056714716436223386","0.4196835927423953","0.6260117359633669","-0.7364185189273744","-0.42053971204333856"
"0.007621150526920477","0.03949905111272633","-0.01627961250568921","-0.029099413573757876","-0.05585564837772871","0.38148444482405014","0.5523397817007485","-0.8024609980775829","-0.40818406623574105"
"0.01781451880673343","0.041585834386326195","-0.024833886980624564","-0.05195316356502367","-0.057203074619731065","0.33265554672258224","0.49273905924698935","-0.8479097277364858","-0.40540568027371515"
"0.01604678251111271","0.0506901924714944","-0.023225055542678005","-0.03653665422935347","-0.008784521228389387","0.31290071419047744","0.4233302702650751","-0.8940576686209103","-0.4166499716965024"
"0.019006489141144358","0.06278190182339892","-0.02513747904914593","-0.029859023007708027","0.01728350962509873","0.3118571542409928","0.37643545217733415","-0.9430948030598486","-0.4156530214395401"
"0.012670175109837182","0.06631977331662002","-0.016120588088844683","-0.0332026523665279","0.009797515766556714","0.319331955739627","0.32834248959893847","-0.988583110712649","-0.40823309657624746"
"0.014224165513503768","0.07240146374316421","-0.015292421969953066","-0.06308928818162876","-0.021725078405133103","0.31656530843169095","0.23240733887042353","-1.0342693083349364","-0.42925076920663163"
"0.014471610082117349","0.05398708152595235","-0.0011404880220904304","-0.12364431248656753","-0.06768092912681152","0.3013730170740772","0.15006973491957787","-1.0747180180981286","-0.46840966782436144"
"0.03684464292598375","0.008195951676097168","-0.0010068662068976914","-0.11898460442532706","-0.05145198179640664","0.11237460268799293","0.07146588356751815","-1.0858130490540465","-0.5561576338838737"
"0.019668908842335568","0.03623643973274762","0.0037706816305885372","0.039336678952113645","0.06484550200043215","-0.10376607791910614","0.09211297816229884","-1.0855360030967645","-0.5695756037357752"
"-0.007407496443855028","0.10157176472499863","-0.0012565551938652647","0.08039409836939906","0.09828464845381911","-0.21540272367792934","0.18799240124008587","-1.06983673218411","-0.5131907121534848"
"0.00019588782984693892","0.0648769948362665","0.014801193453531498","0.01342427348345921","0.053285877224461715","-0.2664449396257461","0.25104823803899057","-1.0408260626572805","-0.4906694424142395"
"0.02574526165369852","0.027242185692876376","-0.004315606703347219","0.05506030541000198","0.053623332109226075","-0.3368973706339774","0.37376052494238327","-0.9846648893168015","-0.45108561417878806"
"0.022609359085704675","0.046977816453651726","-0.022933854987157512","0.12325282228721773","0.11071064676372355","-0.3918420154161461","0.45587521829031635","-0.9354034795791112","-0.39993062558384057"
"0.01705100307556392","0.0472260699142741","-0.041149379098439465","0.0967406238181185","0.06999827055999","-0.36495214508989043","0.5386307796216231","-0.8924613562003799","-0.3482853335838297"
"0.009947322035754718","0.0432280466091044","-0.04377018409812391","0.04768949447676704","0.023896189388247033","-0.35631243946159885","0.6160643503083914","-0.8377777612987392","-0.3176904011078738"
"0.004663369535555086","0.051991705384297114","-0.035649612578219074","-0.002839262949789373","0.01231789689524708","-0.37732925146749907","0.6655226403296268","-0.7739516498067877","-0.33007873380914227"
"0.009950210493754108","0.03683162480779627","-0.002537837638155437","-0.013902411146757679","-0.010223850077306286","-0.34798822870175616","0.7461605509332642","-0.7017481962732097","-0.3336416052192696"
"0.027631424727293834","0.04032379273504504","0.002555487255636349","0.013208617573186926","-0.054496255650451034","-0.261785323107117","0.7665290072744038","-0.6520778139319123","-0.3719506446015562"
"0.02105440586270497","0.0429829093007074","-0.015709602907649094","0.00979393729392913","-0.06029042782076664","-0.221346161622785","0.7816869282724613","-0.6160354541559696","-0.40842921793827275"
"0.012645141807175892","0.038460333704264466","-0.030936707133554064","-0.019007872272534178","-0.05757403566326635","-0.21214827276569934","0.7997426871083833","-0.5700326325825024","-0.44850334957878746"
"0.01741109750615332","0.03280971100223195","-0.038468681785917475","-0.012975283282506732","-0.03067816335843079","-0.19186195272443837","0.8030584823267081","-0.5309427672764562","-0.49326805046107547"
"0.015531674167889899","0.03459526622737789","-0.03948272059982217","-0.009030416798842915","-0.026021764608093707","-0.17275995188166232","0.8252659511418771","-0.4911273054156233","-0.520953849400322"
"0.016871918679602346","0.026794498489829316","-0.03196933321696007","-0.018750818129486407","0.02327871874803992","-0.19150520083473085","0.8350461538446676","-0.45974195625494696","-0.5485252442117201"
"0.011563895696074552","0.028211309034971294","-0.012211065737069544","-0.038874210256769154","0.03144943489403642","-0.14346018613717815","0.856584890851099","-0.42046739364404595","-0.5639534580243816"
"0.005991097395936883","0.020088538900799542","-0.014140011260871962","-0.040289452167931034","0.016775412660308145","-0.13674742609002805","0.8733867775456368","-0.38314534539875233","-0.576080295576283"
"0.004416887786274647","0.017519790749673365","-0.01807638189081566","-0.02938920120318626","0.0037113613555230032","-0.11029682169599728","0.8739997817036468","-0.35491304308523935","-0.598519848081351"
"0.0009420728130201796","0.02217843832662481","-0.01777072457012748","-0.028550646302082854","-0.01688176315479534","-0.09157098781175642","0.8792660446974571","-0.3221952347966822","-0.601919285023124"
"0.0027589128946303738","0.0024082182761476826","-0.02260754514480122","0.001634923263640973","-0.03553655638021546","-0.07380862671808626","0.8597335031172396","-0.3105856899200974","-0.6220707549712294"
"-0.0037872957512984336","-0.012891777535272979","-0.021306436279709646","0.04984316533069162","-0.0792309807145617","-0.08616874491047076","0.8491173856535262","-0.2978547685497516","-0.6357338765256627"
"-0.011846093569569388","-0.0031992976534336694","-0.05328686608279367","0.1008015016285136","-0.10482968601555129","-0.14026883419863787","0.8232318918902994","-0.3063772299023354","-0.6519138888927548"
"-0.06766073031092738","0.07846549597376455","-0.027667412953490646","0.10100367904439388","-0.009245470241195165","-0.023504183385719128","0.8043680821188199","-0.3374459551118322","-0.6549210831104768"
"-0.053314722247338735","0.004730572270812625","-0.05571147212663097","0.03579568592541066","-0.07008858596420825","0.055765115753855725","0.7900739397070485","-0.3720371217782018","-0.6552152651535148"
"-0.03282592683840137","-0.01336647139094005","-0.0771033540704698","0.004598940455405655","-0.015307691681678212","-0.005215188550099738","0.7762813461518306","-0.40937236268812793","-0.6823780737940268"
"-0.01625580611528991","0.007775582740892653","-0.020339898265641625","0.007605511179465136","-0.014021533844285559","-0.03163909722449251","0.7799036434491605","-0.4317603145694512","-0.6901575544876996"
"-0.007667457663799261","0.036751643567344706","-0.00035280084566832753","-0.013923591637945135","0.016315899625735403","-0.005160826357382397","0.7829408004138446","-0.4600849655353915","-0.6930176576839026"
"0.01211559117395618","0.06488842072775958","-0.0034349831794185763","-0.05197241855701226","0.0800884109441497","0.07827446117587933","0.7902411226592332","-0.48393730319092026","-0.6987542075231443"
"0.016782376481621564","0.04564514201859515","-0.030620723552031825","-0.10210760394732177","0.05010757873533362","0.18265715184398254","0.7968448492705192","-0.48752570797095557","-0.6940472948345358"
"0.014910655698023152","0.021357851573939938","-0.006629515231043396","-0.014701493314284456","-0.03885605939559248","0.1455379671291738","0.7799315072745248","-0.4958107013601547","-0.6974957621168149"
"0.02734450456602206","0.02412914961971618","-0.0023804654230443626","0.015200546494407286","-0.017817542303326283","0.1521221023453409","0.770903627856564","-0.50322497888361","-0.6811686587282039"
"0.027649718294623243","0.02716739803946712","-0.03925347760930604","0.08172943206380828","0.0310449676917302","0.16832155039838753","0.7637983523887246","-0.5282250783621647","-0.6404244457674357"
"0.0024700670946923363","0.06470872261609567","-0.011597685843526375","0.0740120312747786","0.004954918505335477","0.331539180264994","0.7406435135111771","-0.5766685428926412","-0.5860661415927407"
"0.00396725115770444","0.05101738845515989","-0.01832214689866629","0.055831467839145284","-0.006794734056807229","0.359642492392976","0.7070676039474649","-0.6282122836117512","-0.5171458262876628"
"0.020523892410152126","0.01797994256162197","-0.019086290200386734","-0.005499051268134223","-0.03719511123937644","0.28278308867162966","0.6712347245292625","-0.6677111215214044","-0.48037307090790826"
"0.025748150111697902","0.023378156933398255","-0.019183357052226898","-0.04114437381222474","-0.023639476719480673","0.3171720293325541","0.6574978586247732","-0.6968537176945588","-0.4531285450332189"
"0.015072409345988446","0.04344409983006447","-0.024955736858466474","-0.039458599263623065","-0.01590434063750625","0.3558565539715899","0.6278507484373956","-0.7382391066466569","-0.4336144695116958"
"0.002992877992580177","0.043542777983868346","-0.02206644907709647","-0.03359449145349585","-0.0006104544665157984","0.35148816348537504","0.5744636590398253","-0.7890968288048779","-0.42719149490536534"
"0.016092997839102806","0.041723983801651626","-0.020104459518625054","-0.028423563354958117","-0.008172315841703415","0.3270009079265375","0.5447050935509917","-0.8344664024759858","-0.4218635312370097"
"0.016213350255743643","0.04717205660903409","-0.017165605685251564","-0.03816851480038707","-0.0032957337623002354","0.3240643787663598","0.482875265068106","-0.8847964180489074","-0.4259984232863777"
"0.012252311519260168","0.06227916259770338","-0.02201894827725979","-0.046880435925627795","0.030482542883789605","0.3115416593725439","0.452503695421263","-0.9312345975552465","-0.4133649388825776"
"-0.045072988755773695","0.010918326131934858","-0.004988465859294571","0.08066174275804058","-0.021163850245720043","-0.20746438741103568","0.8013030613287716","-0.7840308455860046","-0.5741517688497002"
"-0.04276222235626948","0.059050828892203915","-0.006492795537600442","0.013277935544345875","-0.022983473996686987","-0.33747982269880605","0.7718231340935783","-0.8181866543195023","-0.5933716623281853"
"-0.03671571694423346","0.040188759471945","-0.023859087957889297","0.054447033915165165","-0.07470525598343124","-0.37975613507095174","0.8010522869004945","-0.8830945643113173","-0.5425435426699466"
"-0.022774093000558056","0.027466548653104134","-0.016954949964236736","0.1222515627038107","-0.13559073306431899","-0.3522838126798674","0.8555817931379922","-0.9293612391774341","-0.46486313986106953"
"-0.009034661116839248","0.03463058261926559","-0.023049509108498987","0.09781697787028108","0.022874251545733706","-0.3808967703645745","0.9130927286894459","-0.9826068336341344","-0.40498075065599354"
"0.00024210315783703519","0.0388654334935646","-0.02335929693352079","0.04678258435410412","0.013836922536097685","-0.3378195864032894","0.8813279677743986","-1.0073694651493044","-0.29219462404457724"
"0.01256522780252637","0.055584628900166695","-0.023396471472523408","-0.002530412878292277","0.014842585958636564","-0.33728567201052984","0.8407303742189397","-1.0474355876381543","-0.2856735887572341"
"0.010346892059002313","0.07114877054855921","-0.01277901008294285","-0.013339202631091215","-0.03468932922272197","-0.2454038587838114","0.8423464760900559","-1.0139394121362806","-0.28611486182179113"
"0.011858518412011337","0.06787784942931281","-0.0009298323010756054","0.012877431710983057","-0.04274516711007528","-0.21028685304185113","0.8943961018701503","-1.0078971717346035","-0.3535152365711725"
"0.02131918117931483","0.030384305853473504","0.010088025721841299","0.010200987824568072","0.029130330047677126","-0.22021523386357603","0.8242628534287703","-0.9500077593272694","-0.38631653436991364"
"0.02634124682090398","0.003250327253535882","-0.003227012286220606","-0.0200149083535378","0.11825671237834776","-0.20069095527379924","0.8735818243231857","-0.8957067516999707","-0.38902954654459776"
"0.025105949616502355","0.038297255071135954","-0.0018224342875717559","-0.012441920004422593","0.039423900681517465","-0.16823866772843","0.8287210654870226","-0.8486749022851697","-0.4380925739446081"
"0.02289916770497583","0.051517011528630044","0.01014634844303207","-0.010762884703016931","-0.03668055237253718","-0.15611153036197695","0.8474734199570457","-0.7720255207704453","-0.44812745030157225"
"0.006951991090397386","0.053193501425887496","-0.04543271209240758","-0.01951331581223485","-0.0783478541012422","-0.12078581263011978","0.7891822972953985","-0.6820647406415455","-0.5201039901648787"
"-1.490133444030541e-06","0.03149053989348538","-0.013861202218352344","-0.038679734837684325","-0.11033905583631401","-0.13427928546531667","0.7966776663183349","-0.6635290468329074","-0.584317392781348"
"0.007497909652280266","0.05608944556067915","-0.02033370250914119","-0.037613971031115474","-0.04586841976693686","-0.10136346315168798","0.7902411226592332","-0.625666099337682","-0.5643130138547614"
"0.017776968852741493","0.052243074997144895","-0.034769815155157154","-0.02966839858702092","0.0337470000669001","-0.07759213825586898","0.836606528065056","-0.5594785008765162","-0.59335531888135"
"0.016157506734422303","0.03628941432057918","-0.03827248283007033","-0.027748675885757794","0.043085645175768975","-0.07018286261452795","0.8442969438655413","-0.5057843558223116","-0.6085056940978086"
"0.01889961619516729","0.03555815726502203","-0.03579624548206273","0.0012689821408976864","0.006053681183316434","-0.08069854926828841","0.7994919126801064","-0.5026840796336782","-0.6268430414471798"
"0.012771271139815493","0.04566903251898977","-0.021917750921086002","0.04905563615835799","-0.05981894830091858","-0.08879463296940655","0.8510957172543756","-0.4736470247775838","-0.637907554954777"
"0.014275194938159486","0.046281875789982274","-0.016624509617546815","0.10058969671663905","-0.05914643182844493","0.03356398454947063","0.8163773908507364","-0.4276442032041165","-0.6814138104307356"
"0.014531304880771204","0.04341709317744446","-0.007741860048088346","0.10135989639618292","-0.007515020738499996","0.14405271436386075","0.7766993035322918","-0.3878551266725487","-0.6772298880408613"
"0.036900486447305106","0.03092340018846521","-0.017574525614280342","0.037238847574956005","0.011864127773606502","0.016546434033700094","0.7009932900180961","-0.3757046825460321","-0.6500343925066783"
"0.019738231834320694","0.032141815708590975","-0.019406404286242598","0.004621950170832029","0.010631579790247335","-0.11785171035354548","0.6630427598722242","-0.39627204670807264","-0.6553786996218692"
"-0.007407496443855028","0.022188825500709428","-0.028278727594867003","0.00739890511542749","-0.022475137702190895","-0.09440558786058914","0.6442904054022007","-0.34825074744583556","-0.6815282145585837"
