"AccX","AccY","AccZ","GyroX","GyroY","GyroZ","MagX","MagY","MagZ"
"0.02074148957943877","0.045150712532167306","-0.03411719547044457","0.032888182135132504","-0.04074197747498476","-0.18095068404331513","0.6403894698512301","-0.7660228583626656","-0.3241297191610397"
"0.019896134204953484","0.04163984769156622","-0.03337163943822542","0.0498845635634671","-0.056992464478885216","-0.15752397661918643","0.6360984407451624","-0.7449937509384881","-0.348007494987627"
"0.02305129315960986","0.0415941441255939","-0.04222331022518171","0.052157615367720976","-0.055142445855318946","-0.15152229346784796","0.6349560239052352","-0.7268538370688243","-0.3726697562623158"
"0.02291649845297211","0.03694588372272707","-0.055236464128264204","0.0321978906723413","-0.04877627568884247","-0.16521477075852797","0.631166543655721","-0.7117614287292642","-0.40880511721548807"
"0.017707645860756373","0.04238460807343338","-0.058881634202687404","0.012921718192556829","-0.04571285545835756","-0.1835838527530613","0.6466031029074191","-0.691721771152523","-0.44333882037878647"
"0.01744383336347964","0.04280113375422658","-0.03487514301566457","-0.024776667872317845","-0.006391463503028549","-0.17944358932557103","0.6670830145500151","-0.6727243340817477","-0.4781830490319584"
"0.023224600639572674","0.04123059303263225","-0.01726680304142535","-0.040151778975212556","0.011722205258241065","-0.16390182672906006","0.6784514552985585","-0.6520514286026474","-0.5214441528053853"
"0.02124504409066407","0.03883842684094458","0.004812188298311835","-0.019290920654766553","0.016757941591806158","-0.14394313597426522","0.6980675883548682","-0.6303231099529484","-0.5563210683522282"
"0.014787414823382923","0.03283879508966888","-0.008004766648923514","0.009496255117785422","-0.002622499300710073","-0.10555954490205766","0.7122224116398191","-0.6177636932228249","-0.5908711149623619"
"0.007012648708384367","0.031664005700698515","-0.02057946751699182","0.009181532273731802","-0.018534813430729668","-0.08790396668693942","0.7275753794154253","-0.6077504607667705","-0.6206488750965454"
"0.006571677453812315","0.030136052392851116","-0.03593668262940595","0.01150358803259666","-0.0010637449287453637","-0.09465070310453787","0.7533215540518317","-0.5957847139451087","-0.6441017213054112"
"0.00831438044677175","0.023010450970802756","-0.05242565592923306","0.004315025598533792","-0.015402226915353331","-0.10122270390268771","0.7702906236985543","-0.5920248045248511","-0.6755301695699749"
"0.01115758593749505","0.03327505640122286","-0.03776030029270095","-0.01523389384276916","-0.0031506999607632145","-0.11136222359791302","0.786284459457534","-0.5812859755140102","-0.695812387092764"
"0.012526715029201304","0.02032536646992885","-0.026824790069431347","-0.014773699534241694","0.003988026495088672","-0.12250404622136424","0.8055940904348393","-0.568818907436314","-0.7172876762345406"
"0.004059681813684615","0.016700242714396955","-0.024084200444071804","-0.007391913255573253","0.0006946104176118783","-0.12467610704645439","0.8300585291044981","-0.5519191040421036","-0.7291693620839103"
"0.0032460994771925052","0.023378156933398255","-0.015455576891131216","-0.017222934515191232","-0.014224246104849679","-0.14059160971789708","0.8455508160069246","-0.5315496298495503","-0.7410837348269508"
"0.006387778961185105","0.010176681902293089","-0.029237004600267777","-7.078020166889405e-05","-0.028653194720139153","-0.13990722854172344","0.8696530249468508","-0.5106260637424328","-0.761807225414297"
"0.0033683775324996087","0.00815336426235023","-0.03649223546227838","0.022264240305424104","-0.05502038770551056","-0.13025065868358524","0.8834177546767044","-0.49672099521979607","-0.7737542850510083"
"0.004114562515672832","0.0028575258783519446","-0.03582722426456491","0.03761817091713136","-0.09111130729591102","-0.14594774183071713","0.8859533627848355","-0.4981853809940016","-0.7932847040193668"
"0.003882523056389295","0.006592171997432056","-0.0339870845839354","0.07759731078305536","-0.10155804894127561","-0.1494230391508614","0.8819131081070443","-0.4975785184209074","-0.7901631056737967"
"0.002361268510049027","0.006297903355614811","-0.045362493518735975","0.07045370875528587","-0.09920065134203526","-0.1425598123202972","0.8721050415788892","-0.5120508715227409","-0.7772517826737938"
"-0.04640167943548861","0.041330309903844585","-0.02135187182737951","0.03616634452119115","0.0009786947780482534","-0.10180515596751637","0.8750864708928457","-0.5167078821380073","-0.753455724081384"
"-0.039883392550220484","0.0017007478492443095","-0.019745105641599765","0.014472707797238317","-0.0276231196676386","0.02092841506809425","0.8768140280654186","-0.5121036421812708","-0.742848827085179"
"-0.024507167800186212","-0.029032407345361826","-0.04458595870401466","-0.0019424616979204674","-0.02861705593460765","0.03166616157157062","0.8716313565477002","-0.5199005069790681","-0.7655989050801204"
"0.0006079745044252046","-0.016471197724832548","-0.039036626131790784","0.004299910429822743","-0.011899158015852725","-0.02042422540457733","0.8676746933460011","-0.5386472834218261","-0.7643568031206266"
"0.0028186076932842303","-0.009479590848475768","-0.025319221239825388","-0.043823705947438014","0.018326987141107653","-0.07885654461326783","0.871213399167239","-0.5433834500248873","-0.7603690020927775"
"0.006139371573238417","0.007474562435920405","-0.00429371503037901","-0.03950673674359456","0.0286061979926176","-0.09068274841289274","0.8820245634085004","-0.548673708542513","-0.7626407412029048"
"-0.03166091544531801","0.025276932356066536","-0.025951188402869866","-0.03478637545759","0.0945798246125764","-0.0579901993907817","0.9016685602901743","-0.5484362405791282","-0.7521809352282189"
"0.027638164462625722","0.037169207965546375","-0.07765684165117541","-0.07565894695178489","-0.060575230170319544","0.0781482632284998","0.8895199324314369","-0.5528162052371125","-0.7731986078586031"
"0.008441472598744476","0.013797546916450286","-0.04279331982322183","-0.11455595626794973","-0.030263404978787784","0.1358862510382425","0.8532969594581379","-0.5267606925879591","-0.7936769467434176"
"-0.01588030657537048","0.014655008137135554","0.01891558882025439","0.04820649101166087","0.015035007041863899","0.11274106211211427","0.8418727910588663","-0.5161669828880755","-0.7754866904155655"
"-0.004239820837868015","0.007247602682171489","-0.0287599313497342","0.04287767197881664","-0.028512947512712265","0.11150092459074996","0.8244021725555907","-0.5328029329896362","-0.7569532217041693"
"0.007847413070205268","0.021239437789375284","-0.026409674383902133","0.007004081504701309","-0.02138882016889628","0.0893337697568132","0.8045909927217324","-0.5327897403250037","-0.7422114326585966"
"0.008343265026765554","0.022491092266571828","-0.027940026239509835","-0.04068803050209499","-0.006079616896753405","0.08301173796981896","0.7904918970875097","-0.5203490575765726","-0.7340233657940379"
"0.013205502659055658","0.03275465897958347","-0.008227813882939212","-0.03910912115903003","-0.03982055810878421","0.10917111633143539","0.787399012472097","-0.49697165584781317","-0.7180067878953003"
"0.014244384719499433","0.027141430104255574","-0.0041419189961183255","-0.0356990620778495","-0.025926032725891054","0.13279925509465068","0.7883742463598395","-0.4722222169972756","-0.692412950150991"
"0.009847188825109546","0.013726290902229803","-0.005851947790238674","0.00810748882060786","-0.0424172854135312","0.18680954968949004","0.7802658731788937","-0.47182643705830113","-0.6646290905307319"
"0.010165882024374495","0.016971347958005503","-0.029555053433956823","0.02013656369068413","-0.07867334250073123","0.24073490335820857","0.7687581133035299","-0.4867209554283741","-0.6377441204864226"
"0.006679513219122516","0.025899124083735188","-0.021510896244224035","0.024011630828389283","-0.05229202906273493","0.25637859506606453","0.7399747817024391","-0.5200192409607605","-0.6123627475509743"
"0.007874372011532823","0.021264367007178372","-0.0008397873066026011","0.0283468922746219","-0.021125796822544493","0.27052732647419364","0.7335939656940657","-0.5571565919011993","-0.5663232578155214"
"0.005579010721358635","0.021166727570782952","0.0038652701798285267","0.0312399548209086","-3.055859007322315e-05","0.2835111537526655","0.7166248960473433","-0.6097821311201729","-0.5244023166826011"
"0.0032393597418606166","0.02987429560591873","0.007464591656148503","0.04579095226669137","0.030520835636670678","0.31290071419047744","0.6957548908496498","-0.6643865700340187","-0.48387056853069366"
"0.005004207579481967","0.03457553059661711","-0.001766879004284511","0.03429283380070066","-0.01918459358118018","0.3121483802734071","0.6680861122631222","-0.7072495374249551","-0.44680363110790117"
"0.006288608569873058","0.03668620437061161","-0.0023360625014579024","0.011730796938062104","-0.040624705919286505","0.29593679780234317","0.6157578482293867","-0.7588724341318599","-0.4355920265787848"
"0.015199501497961173","0.03558100904800819","-0.014346536477553164","-0.007380263985420151","-0.02740891958121016","0.29236927890526776","0.5753831652768397","-0.8020124474800784","-0.42603111018004863"
"0.012890660737123206","0.039752498160391024","-0.002058079559805005","-0.007983619159382838","-0.03306188722527686","0.2891415237126757","0.5235564500996577","-0.8547039500222144","-0.41890536735979395"
"0.012331262704576566","0.061298613364115385","-0.024288660408586193","-0.0228723491646456","0.005963214554634924","0.2897239757775043","0.45403620581628706","-0.8977516147180055","-0.4284662837585302"
"0.013022566985761572","0.06668124697476474","-0.026283694001726598","-0.04054361806218051","0.007922128194206726","0.3133132844030644","0.40496800935014876","-0.9323559740490076","-0.4286297182268846"
"0.01751604481346415","0.05991919664567804","-0.024526164407769578","-0.06885327003341528","-0.011842197545942146","0.3208366235737677","0.3083919906382599","-0.9782268689761501","-0.4514288265623325"
"0.023253485219566477","0.06097868840230914","-0.03512916903218245","-0.11176398242960317","-0.02401426703830406","0.29503885086906567","0.24101726090792291","-1.0138206781545882","-0.4876785916433528"
"0.017417837241485212","0.04933362753604322","-0.02946624759078391","-0.12941118258715234","-0.0041187886195375506","0.24159644703743427","0.17308525467030508","-1.0433062836081872","-0.5455017065471625"
"0.02379940378144935","0.016721017062566193","0.006364844877321106","-0.056356780232815804","0.04561057356886397","0.06450917737709573","0.13315639292358344","-1.048543771467283","-0.5944176429256538"
"0.022352286323759834","0.039251836369512405","0.033061327011616584","0.02233452102618248","0.134607717858561","-0.13173591144889826","0.17645677753935815","-1.0436229075593668","-0.5801007834978027"
"0.0044833223202603925","0.06083534539994139","0.032245552405725846","0.05168201706560264","0.19321956273713572","-0.27081333011196096","0.2573733263966362","-1.0104829340025703","-0.5443413218218458"
"-0.010719594949811076","0.11262371795103282","-0.02647782770540693","0.06626574799776601","0.23254143335187571","-0.25661606103176277","0.36484410082587854","-0.9752717120984737","-0.4705670028066404"
"-0.009073173890164331","0.0677854035799597","0.033970037965013876","0.014972374839342413","0.1067329870582033","-0.2319904731075284","0.45601453741713677","-0.9421053532124123","-0.3987538974116885"
"0.027296363599365724","0.037302163793829494","0.006625892751206145","0.014019252735906857","0.06198311872257281","-0.3108811784049647","0.5007638409518433","-0.9010629735407587","-0.39095807327118043"
"0.03731353594121648","0.04223087789698102","-0.01976162765893426","0.06627922649215803","0.05832616082243144","-0.294402638737521","0.5423088045696812","-0.8631340627223708","-0.3754808291180126"
"0.02057781029280723","0.04688640932170708","-0.04482139745103123","0.07985592134331779","0.04311675803748483","-0.25957685902797506","0.5778073180835147","-0.8237143808005124","-0.3573722900243379"
"0.0027377308693015833","0.04882361728848845","-0.03939598000881607","0.036663123314496955","0.01627353826786073","-0.2965868339806284","0.6255937785829058","-0.7799806975438323","-0.3436764815762337"
"0.01430407951815329","0.03918951332500469","-0.028183725995193653","0.005632355875433657","-0.015375182658631081","-0.3127013411075542","0.6875907900179757","-0.7195319081977964","-0.35593406670281863"
"0.014907767240023762","0.03620423949308531","-0.01498056889276445","0.03724173582375429","-0.03102758472847047","-0.2489956465169214","0.713977832637756","-0.6732388480024147","-0.3820508947458621"
"0.012575818815190756","0.04011189438371882","-0.025626943812680377","0.034425693245421975","-0.06467494802564819","-0.20254752123044054","0.7249840436565662","-0.641655608872251","-0.4087887737686525"
"0.010725280056921136","0.03404682343571002","-0.035145691049516946","-0.0053096784219263705","-0.030622399537047734","-0.21348305874759832","0.726070732845765","-0.6125921686868917","-0.4571163460610679"
"0.016910431452927414","0.0373156671201395","-0.02078392748150621","-0.0125227909707747","-0.016339920701528326","-0.21272101729611415","0.7518447713075358","-0.5702437152166221","-0.49897191340664626"
"0.02105825714003748","0.027359560760032563","-0.01996402237128184","-0.004695059077650354","-0.01239289519831291","-0.17441023273201017","0.7734392359646951","-0.5394784212936725","-0.5400593387509589"
"0.018516414100582843","0.03094625197145137","-0.026589351322414776","0.019014960407348357","-0.001893740347442372","-0.15375988015023132","0.7842782640313207","-0.5165627628270499","-0.5842193321003352"
"0.010743573624250553","0.029689403907212517","-0.03777062655353501","0.00838967072820075","-0.005135221878824227","-0.14051152255898314","0.8077674688132369","-0.4920112139459997","-0.6176907112193297"
"0.01233222552390969","0.02922094235599622","-0.03367110100241317","-0.007432348738749306","0.0045877867370882975","-0.141518679254416","0.8214764708923626","-0.4757446584541485","-0.6621775735054151"
"0.010206320436365827","0.02312990347277587","-0.03127127798457761","-0.021082597659305504","0.010130902046327456","-0.1447197387273701","0.8432659823270702","-0.45244641271318403","-0.6930993749180799"
"0.008785199100670731","0.01846086872173981","-0.03658930231411855","-0.045487337255252794","0.008110480672440449","-0.15118738353057148","0.8706282588345934","-0.4285940750576553","-0.7210793559003642"
"0.004792387326194079","0.014362089827949308","-0.022341127615282466","-0.06171448175364293","0.024013460943945283","-0.15493934558150932","0.8943125103940585","-0.3990820842747914","-0.7549920080839158"
"0.003113230409221015","0.0074719656423992515","-0.00922780898210959","-0.030428008020971068","-0.004301875844250126","-0.17314582637461134","0.9210896465689359","-0.36657535862035406","-0.7819260084687315"
"0.005864005243964156","0.015692686828188952","-0.02291939822198983","0.003710707674971675","-0.04088078870417861","-0.15538346528094116","0.9357738825358038","-0.35088928037233214","-0.8186333900611444"
"0.006739208017776372","0.012199168568309176","-0.0270581635642811","0.028432576988971156","-0.07613166102825077","-0.11560198925314484","0.9364147505191778","-0.3444776453609455","-0.8503069900282396"
"0.0024719927333586023","0.0014373291144583818","-0.03062691930853226","0.03824203265756191","-0.07758199904362098","-0.09831529734575141","0.9378915332634736","-0.3489895366652546","-0.875459554707992"
"-0.0017268623784071908","-0.005760047680514694","-0.024904105554296174","0.06460211668995124","-0.08542004689896325","-0.11766484031607963","0.9277769646563141","-0.37307934228416795","-0.8931268207371095"
"-0.0029592711248094213","0.0061116613242776","-0.041717323444312775","0.0703295140569594","-0.0932174087043694","-0.10824853193468323","0.9282227858621395","-0.4006520113660569","-0.9051065672674918"
"-0.04106766032996641","0.035082424691946494","-0.040323278231714665","0.0501810904400915","-0.040394949402000134","-0.03832516155200464","0.9242103950097121","-0.4354938386604437","-0.9014456351763518"
"-0.0392864445636819","0.01846710102619058","-0.06345616775217602","-0.0054790260764660806","0.02321170643049806","0.0588132815597923","0.9215354677747613","-0.44790813607961","-0.8902830609877418"
"-0.02358286124038451","-0.013670815591619376","-0.04953843340002986","-0.013645357003709908","0.017352915239695652","0.05946854013272452","0.9157119282736689","-0.45658890940778357","-0.8725340777244469"
"-0.025893627639888724","-0.019435697208582698","-0.017237889511089986","-0.002067234046006576","0.020291884023317122","0.0333601263267806","0.8970710291051018","-0.4727103455886775","-0.8596390981712797"
"-0.010286326249904037","-0.018751182436406336","-0.014243273869212566","-0.02550932031748396","-0.03882733983093168","-0.003476083759865548","0.8942289189179663","-0.4832117066361337","-0.8611917256206472"
"0.011072857836179905","-0.005398677894110814","-0.022493956275626555","-0.026792665533523954","-0.04919988926758921","-0.01678559881792073","0.8679533315996418","-0.5125917707726727","-0.8808038618231828"
"0.0028811909499374603","0.02377286954861376","-0.018569977158683734","-0.007284085300437108","-0.028508400248307635","-0.023339155300684342","0.8538542359654193","-0.5288715189291564","-0.8746750692598905"
"0.003436737705151603","0.04548621825510049","-0.006351945339823861","-0.022434298096905017","0.029314613920917235","0.053413465542110086","0.8394765020775563","-0.5497291217131115","-0.8692000145700158"
"-0.0004155024466885452","0.048172341473382854","-0.03209118309480198","-0.029755046050969607","0.04816422152661975","0.12357224363432358","0.8284424272333819","-0.5500589383289236","-0.8617474028130522"
"0.00702035126304938","0.028098088837448947","-0.029094502200757752","-0.024939372554621485","-0.011127798375004843","0.15067567971768311","0.8152349740108098","-0.5314704738617554","-0.8488033929193787"
"-0.001534298511781827","0.01911526068907078","0.0015486768243154923","0.026106573956748636","-0.03811653060557699","0.19137937151479142","0.7836095322225831","-0.5275786377951731","-0.835679605110515"
"0.00041541063779984057","0.020961061523907504","0.017279702578922595","0.07351428973187336","-0.05597291993342696","0.19748783754468183","0.7564980301433365","-0.5339111168187647","-0.8015054577775965"
"0.009357113784548024","0.02587731101815749","-0.0058994485900753495","0.10031049933280439","-0.07048826657240434","0.2175217616911837","0.7298044854445515","-0.5506789935666503","-0.7603853455396131"
"0.009317638191889816","0.007230775460154407","0.0070007360194825246","0.07689354082587213","-0.10539929071465708","0.1938475121395028","0.6992935966708878","-0.5707846144665539","-0.7316535660028981"
"0.01842013216727017","0.023137174494635104","-0.017898770204469828","0.03559543400872924","-0.06347590620105996","0.17256131605361938","0.679454553011665","-0.5846896829891908","-0.7015652803788411"
"0.007731874750230052","0.04677838271122704","-0.019652169294093226","0.024512260620092808","-0.032731612231677705","0.21358535648638347","0.6606743347162776","-0.5993995040544089","-0.6682083053876948"
"0.00884778235732396","0.024422067928902422","-0.018470845054676752","-0.02847940283172505","-0.02121602412152049","0.20241441125969076","0.6576929054023217","-0.60243381691988","-0.6350964820990803"
"0.012843482589800004","0.01594925002807903","-0.01936509924290636","-0.023232417514832363","-0.0170713122815566","0.20239984995807003","0.6517579105997733","-0.6068797449010267","-0.6115455752092018"
"0.016241272016404323","0.027259843888820228","-0.019241184112897637","-0.019644249757757307","0.001430788591750286","0.22142904429274252","0.6443461330529289","-0.6287927608555803","-0.5840885845256517"
"0.011764162117364913","0.03352642601407063","-0.007826741912144322","-0.007364859991829274","0.0037841175859970196","0.24311567617319566","0.6425071205788999","-0.6566820538886489","-0.5463515657826058"
"0.007715506821566902","0.034474775007996304","-0.022415476693287698","-0.026044609094766958","0.04327232234606414","0.23139868213572615","0.6282129781671288","-0.6918405051342154","-0.5242388822142466"
"0.007875334830865947","0.0343688258323332","-0.00846098085257229","-0.03858731087613905","0.006661578635303285","0.23135985199807088","0.6328941008282937","-0.7177508984724114","-0.5024857544762673"
"0.010004128376409202","0.042884231146903526","0.00459451071992985","0.00557151010074969","-0.01962113096402428","-0.14139248130703647","0.8842815332629909","-0.6235288876672198","-0.7308037067674549"
"0.010078265465059959","0.0411339923136453","-0.007669576222249927","0.03630498046350905","-0.003906742500458673","-0.12935271175030774","0.8436839397075313","-0.5988454121398447","-0.7165195342332747"
"0.006424366095843922","0.03886335605874767","-0.0204039210828128","0.033812421750585166","-0.03582135872976835","-0.14285103835271154","0.9219534251552224","-0.5864311147206785","-0.7699135750446784"
"0.007826231044876477","0.03286476302488042","-0.0362733187325963","-0.005420490900820747","-0.023801981589519676","-0.14604239029125182","0.9421546985441777","-0.5769719741791883","-0.769423271639615"
"0.005513539006706014","0.03159648906914849","-0.05223152222555273","-0.011400224937839494","-0.04172322926756196","-0.14226615940427945","0.8600678690216085","-0.5721830369175971","-0.7996913351788619"
"0.0033125340111782504","0.03006957447870956","-0.037632254658358615","-0.004350876095854181","-0.07725411734707689","-0.0977668216513711","0.865835680871972","-0.5454019277136573","-0.7953766652143041"
"0.004817420628855367","0.02315587140798742","-0.026744245234925676","0.01748611404345375","-0.04972162802559368","0.02264228026885253","0.8586468139280405","-0.5237395723871205","-0.7715642631750584"
"0.006497540365161556","0.0335762844496768","-0.024154419017743414","0.009501550240582284","-0.016075461376943496","0.03247916757872728","0.7999655977112955","-0.5212197734423164","-0.7523443696965734"
"0.015152323350637969","0.020311863143618842","-0.015457642143298029","-0.006323068650286232","-0.002184765269338439","-0.020461114035349812","0.7441264916816865","-0.4915626633484952","-0.747539396326952"
"0.012697134051164736","0.016813462911919298","-0.029239069852434588","-0.021397416778319064","0.02819215760209112","-0.07394210531627617","0.8050646777529218","-0.48546765228828825","-0.807781341362408"
"0.012264828170590821","0.023344917976327477","-0.03659549807061897","-0.046504963581850155","-0.019939200142642596","-0.08982120473366703","0.753739511432293","-0.4791219806000641","-0.7573127775345492"
"0.012895474833788846","0.010287720793257661","-0.035911899603404206","-0.0631326119136031","-0.039799018435288616","-0.05514589180753516","0.8130058679816836","-0.523805535710283","-0.7500562871396109"
"0.01742746543481649","0.008064242308704206","-0.03397469307093453","-0.03106246000699534","-0.028262608640752328","0.07997570658189967","0.7682008367962485","-0.5202962869180425","-0.7545997653598651"
"0.023208232710909524","0.0029849661171961308","-0.045271622423396246","0.0026291547749721796","-0.03520388808956124","0.13340597599551385","0.7852813617444275","-0.5090561366511673","-0.7700933529598682"
"0.01732155530817254","0.0066350710264015305","-0.021182521149700925","0.027846262482918376","0.006564650104573096","0.11807777915610673","0.738497998958143","-0.4994914547926174","-0.7878423362231632"
"0.023677125726142247","0.006356071530488674","-0.020032175692786636","0.03774910486265383","0.012788897755684136","0.11290851708075253","0.7399469178770752","-0.5273543624964209","-0.8192544410408913"
"0.022376356807088004","0.04137497475240844","-0.04464172051251858","0.06348917815301032","-0.013894449770661534","0.09055206532574643","0.673909651764214","-0.5519718747006336","-0.7855052233256943"
"0.004402445496277745","0.0017684722242760228","-0.03882803566294277","0.0698645060004348","-0.026344620380822158","0.08314764345161231","0.6601170582089961","-0.5392673386595528","-0.7636867218003733"
"-0.01081587688312375","-0.029049026823897213","-0.0252180238836516","0.04786471490386327","-0.0061385398702491385","0.11365114346340903","0.577528679829874","-0.5551513068770619","-0.744646606237078"
"-0.008928750990195312","-0.016377713158070982","-0.003976698822773367","-0.00404279622403663","0.0452228594459432","0.1274746724686755","0.581986891888126","-0.5694257700094083","-0.7255084299927702"
"0.027217412414049326","-0.00945258419585576","-0.025856186803196513","-0.015903967563972336","0.1330496814757128","0.18907140520790797","0.5197112421994153","-0.5323675750567644","-0.7107339540535267"
"0.037437739635189836","0.007436129891807317","-0.07775390850301558","-0.0018179781747141876","0.19143655643111132","0.2415648975505894","0.4659619230721119","-0.5271960505208311","-0.6947990933889663"
"0.020548925712813425","0.02518033163707958","-0.04305767210057376","-0.027084378662151194","0.23263716523407843","0.25569906765709777","0.448797806647841","-0.5310878865874135","-0.678978636852254"
"0.0027743180039604","0.03722737614042024","0.01909774406136721","-0.027753489633754944","0.10534726806331987","0.2729542100776463","0.3210143035281863","-0.5343728600809017","-0.6508679082952861"
"0.01425305009349757","0.013838991741047914","-0.028495579072382263","-0.008216412012524977","0.05980043180835232","0.2833898095724928","0.23118133055440418","-0.502816006280003","-0.5968691599509709"
