"AccX","AccY","AccZ","GyroX","GyroY","GyroZ","MagX","MagY","MagZ"
"0.007684696602906849","0.04271595892673271","-0.014375450007888533","-0.03901188344948762","0.022893397922174236","0.2409339078136917","0.6232532172523232","-0.7544660841446108","-0.4918625140332271"
"0.009543900735174608","0.044598114870865596","-0.01646961570503591","-0.05892443341449523","0.018934884593094503","0.24691374901259908","0.6008785654849695","-0.7896113427255446","-0.49668383084968387"
"0.007081008881036378","0.0524934058925842","0.0032423901263180246","-0.05024524577563511","0.021909752832541967","0.26754225964194683","0.5951943451106981","-0.8191761041669384","-0.49805668038386125"
"0.01080134278423816","0.056792657246207835","0.0037033544099504658","-0.05985156127874616","0.015993761842123474","0.2580774135884814","0.5577732276467434","-0.8574084462718734","-0.5155605119446245"
"0.0077674990655557455","0.06027755415159738","0.007439189054496716","-0.07527673536081124","0.00891391049382622","0.24819999732242903","0.5484945738005061","-0.8917753376394908","-0.5260693482598167"
"0.005619449133349967","0.06071381546315136","0.018037856649359283","-0.08626267103990527","0.0035036231711432445","0.2494619767962244","0.5196555145486869","-0.9233849620989193","-0.5558634518408355"
"0.010699283934926723","0.02393906433396766","0.02980339171847064","-0.09409078803286938","4.267629981180712e-05","0.17281128506477503","0.4724820582073058","-0.9482531349311493","-0.6014780119585668"
"0.00996657842241726","0.008851070745614063","0.015857982987289205","-0.01736349595670799","0.11340789254478333","-0.07400520428996593","0.49137373180414934","-0.9497043280407224","-0.6026874270243898"
"-0.008543623256944619","0.04336515730702137","0.014365838296767526","0.06539831060867972","0.17016971879979179","-0.22780652577517602","0.5403304729688317","-0.9246118799097401","-0.564329357301597"
"-0.019230917854651596","0.055609558117969776","0.023640885777920277","0.07670869290278161","0.15382349991368865","-0.25569384526245076","0.6116061382501391","-0.8956012103829107","-0.49197691816107525"
"-0.002006079985013949","0.05852835403574761","0.0043873659275986045","0.06924353250880254","0.08305849258948703","-0.25748973912900575","0.6506433575852103","-0.8560627944793602","-0.4341211163635946"
"0.018821627829184024","0.03662492004351236","0.015249766224163066","0.05581221284715669","0.031664831628992376","-0.2382639672224536","0.6599777390821758","-0.8292816852754202","-0.4096059461104249"
"0.03165408390109742","0.03668308821838622","-0.02324777331651294","0.05204304816538882","0.027691958517582257","-0.27173554588127297","0.672042775464821","-0.7983185013829832","-0.38866999071421793"
"0.01487503138269746","0.054930236932835726","-0.028813627906071317","0.04544532516049605","0.017810034977213323","-0.26612944475729733","0.6851109095605727","-0.7555478826444743","-0.3914483766762438"
"0.0021706302820899293","0.04865222891609224","-0.03291108820502635","0.016027548400317525","-0.0067959307053347615","-0.24877722699261062","0.706426735964091","-0.714241649680171","-0.39873755396485294"
"0.019651578094339286","0.034686673359322524","-0.024689319328947728","0.02982182466094843","-0.010205421689982274","-0.2381717456455224","0.7281605197480707","-0.6700989938198837","-0.4206704596180222"
"0.0310706153852226","0.021122062722219094","-0.03439600451296418","0.04462313700258296","-0.028298268766872813","-0.22381430224749635","0.7267394646545031","-0.6385817180128827","-0.4483889454509395"
"0.013680172590287153","0.05008565893976961","-0.024360944234424618","0.03516027118978696","-0.0419266595172426","-0.18949088744386514","0.734039786899891","-0.6117478381504127","-0.46378447236993"
"0.01776252656274459","0.04088989372265676","-0.014557192198567988","-0.020139103051864254","-0.0072461098813927415","-0.18415659728347614","0.7353493866920024","-0.5868137019950205","-0.5108045689155096"
"0.015378585893922742","0.030263814634091928","-0.004719570027175649","-0.013589517526942976","0.009210918658359954","-0.15667214047437453","0.7556899792077781","-0.5511275441641547","-0.5456814844623524"
"0.013788971174930479","0.029962586585637985","-0.013154885977302634","0.014221430151787128","-0.01697318710229888","-0.13715514253540811","0.7656095010373897","-0.5236076457407958","-0.5894492350876782"
"0.01684977383494043","0.032815943306682714","-0.030075496979993455","0.024836707235100664","-0.01365583805427142","-0.09537148753476331","0.7640212629916369","-0.5128424314006899","-0.6291801543446486"
"0.01305722848175414","0.027282695671806384","-0.037045723042984","0.03185130081654656","-0.0035235756419425513","-0.09125549294330758","0.7751389293119035","-0.5011405378716777","-0.6577811863066798"
"0.009458209814526337","0.028121979337843574","-0.035651677830385885","0.007438185299084228","0.000596485238354158","-0.09893415266463185","0.7795135498940636","-0.49971573009136955","-0.6882617146547877"
"0.007919624520189777","0.021625840665323096","-0.0248566047544595","-0.00948435323497409","0.0042515285008514776","-0.1012906566435844","0.7975971725553489","-0.48519060633100614","-0.7099984989459315"
"0.005515464645372263","0.013200388278325564","-0.024011916618233382","-0.0010579836409242633","-0.0016553679607577642","-0.11400267295846954","0.8100244386677273","-0.4777499434782858","-0.7331735065585946"
"0.0053575622747394835","0.015773706786048978","-0.025575312508510077","0.004132873374321664","-0.01474167692815502","-0.13207082138617474","0.8183835862769503","-0.4722090243326431","-0.7545017046788522"
"0.0010556854943291284","0.012950576741590485","-0.025445201622000924","0.026775684928352382","-0.0581532135505924","-0.1208197890005681","0.8246808108092317","-0.4649266734555127","-0.7711556770041723"
"0.0009844368636777606","0.0018499076690994328","-0.007447974664750998","0.046811466842087014","-0.08813883235351862","-0.14419795875262775","0.8172968970877513","-0.4752697225273791","-0.7933173909130378"
"0.0011250084863142643","0.0010093775421720955","-0.015032200196934754","0.07162633776739143","-0.12909293155981388","-0.145775433094872","0.8096622089379945","-0.49389776498844473","-0.8064084918282305"
"0.0038526756570623666","-0.00012739478964856463","-0.02467486256378004","0.08452525690055256","-0.10810850298099219","-0.14906628726115384","0.7923309095615386","-0.5307448773069688","-0.8063431180408887"
"-0.0132325534092719","0.018077581998017383","-0.04745665921588335","0.0704835539928682","-0.03391629427393555","-0.14331457312097098","0.7883463825344759","-0.5677898795949804","-0.7865185170294919"
"-0.06278886448530598","0.061978973266657904","-0.05634963504617588","0.06145103725101733","0.025593037000289066","0.015389781308294544","0.7916621777528011","-0.5915630612627142","-0.744973475173787"
"-0.04988708542140747","0.027732460309670373","-0.04533771049273423","-0.03436180288424144","0.03924918999649762","0.06926586923986298","0.7803494646549859","-0.6026976702125296","-0.7351347201788483"
"-0.029504200139114055","0.009017161659227115","-0.03248564625866307","-0.051271536848627335","0.018226468664794868","0.11612656473893077","0.7727983679813212","-0.5906395747384404","-0.7491737410104966"
"-0.010517402889854467","-0.0002251380977848254","-0.007319102929541925","-0.03140808711319066","0.0017210955245298332","0.11232606501592388","0.7590615020768315","-0.5879350784887815","-0.7456762433877112"
"-0.003286629698072525","-0.0068963006536311225","-0.006218530049847805","-0.03845541418101717","0.015111113888215007","0.0689115442337589","0.7492534355486764","-0.5886474823789355","-0.7647000155041709"
"0.0068066053710952425","0.018074465845791997","-0.004907714499572222","-0.018216492101802838","-0.0010711641496160694","0.07533550513209815","0.7411171985423664","-0.5890828403118075","-0.7821548167244278"
"0.011968279815987788","0.015812139330162064","-0.03055876598702747","-0.03849488691459379","0.028819201430518502","0.0523868937778496","0.7364639397065654","-0.5907187307262354","-0.794347028063671"
"0.005796607890645287","0.018539811244782912","-0.006346988734623514","-0.03533417997966559","-0.007957637095863966","0.07485740906221795","0.7378014033240412","-0.5788849105508983","-0.7917647634636703"
"0.009878961863102723","0.03694380628791015","-0.006520676441852403","-0.037703506743862455","0.008658067038639628","0.08790918908158647","0.7366311226587501","-0.5696500453081604","-0.7819096650218962"
"0.010352668975001094","0.037621050038227286","-0.03129606101057936","-0.031709427737812206","-0.0006346267667719686","0.11053259803297233","0.7261264604964931","-0.5592938035716615","-0.7729697996029069"
"0.0037015130217614594","0.039680826659207157","0.013042011657841024","0.03893039862115425","-0.0339904864826426","0.19558030703236803","0.7136991943841153","-0.5556526281330963","-0.7558582107661945"
"0.006092193425915196","0.007657480571550539","0.019877583279555425","0.09000426487090786","-0.09609893835866927","0.24039756653732866","0.6756650727621508","-0.5831989118857203","-0.7275350174003656"
"0.021064034056036234","0.010692612839076096","-0.022407215684620452","0.09067433859211103","-0.010352609458868853","0.23584230601364797","0.6446526351319339","-0.6183573631312866","-0.6854016114585845"
"0.01750930507813226","0.045283668360450426","-0.030073431727826644","0.05975756070562022","-0.017778531561328702","0.24880671822329217","0.6192686902252601","-0.6551780901205458","-0.6293272453661677"
"0.013304673050367722","0.03855381827102603","-0.024042895400735564","-0.0030200673245622993","0.022094036705782076","0.2781720098250696","0.5900674012437083","-0.6852705581472389","-0.5862949498484371"
"0.023086917474935555","0.038592250815139124","-0.022535261318962795","-0.027623518437831913","0.004378612574475499","0.31078932545547355","0.5663274220335149","-0.7080279046382716","-0.5558471083940002"
"0.007177290814349051","0.044652128176105615","-0.009753002608129883","-0.030212352110698785","-0.035828538620933555","0.36558835722143507","0.5135812006193187","-0.748568963053891","-0.533914202740831"
"0.02255447838371645","0.03418497285103545","-0.0024044223481793805","-0.03410667424039253","-0.09247548661729883","0.3375093139294876","0.4701136330513593","-0.7895058014084849","-0.5233726795319681"
"0.023193790420912623","0.049469699516551724","-0.008453339419555084","-0.025458294588714177","-0.06597211502949414","0.32598161681308735","0.41934574323801205","-0.8295587312327023","-0.5175380690117136"
"0.018038855711351973","0.04623928837623534","-0.0015403208415852348","-0.011766069785622836","-0.05922062403715199","0.3067606986737421","0.36052520789444686","-0.8722765793126813","-0.5175380690117136"
"0.007112781919029555","0.057587276063681164","-0.011178439653663537","0.005559186905876988","-0.017036130814847124","0.26472707466194173","0.3236613669377736","-0.9129363717099931","-0.5061466865674074"
"-0.0003336628033727736","0.06403667245282085","-0.018487367072011252","-0.031228052938097276","-0.00590083760673995","0.2234918953556773","0.27679441267539723","-0.9463401985594392","-0.5073561016332304"
"0.0008140178417143289","0.06358379166273148","-0.023084618395334794","-0.04371876624110016","0.021076885457378878","0.20632897451205995","0.26135785342369894","-0.9754564094033288","-0.5098566489990537"
"0.009696989009141763","0.07333734812818835","-0.0123411766235787","-0.08928474203251557","0.019016256692966763","0.2054941265524722","0.23148783263340886","-1.005258638808107","-0.5204962328889293"
"0.009416808583201881","0.04471860609024717","0.00026078557309152056","-0.13909644355741665","0.07032375895947901","0.13633522450488125","0.19860851870379892","-1.019823340562368","-0.5666174398585594"
"0.014131734857523592","-0.0031446611177485765","0.023501481256660465","-0.08798214182448698","0.17596149767305233","-0.03529883769849915","0.22145685550234154","-1.0179763675138203","-0.5925054596459066"
"0.007028053817714393","0.013680171849294098","0.047642007309309405","0.07629856157342449","0.2154772253492527","-0.19442716869328786","0.2825064968750329","-1.0016042707049093","-0.561550971339571"
"-0.012077170209519783","0.047380838808134915","0.024122296058004155","0.10236115597958996","0.1671039052722518","-0.3095949300951348","0.38326208939153306","-0.9746648495253797","-0.47738222013702153"
"-0.01705494616178512","0.07353158828357072","-0.010860390819974485","0.07846763642093994","0.07642427315284313","-0.3272626427282703","0.4722591476043933","-0.92492850386092","-0.4233507848990355"
"0.003702475841094584","0.04014201718856422","0.016140302958492406","0.05490819097329207","0.003606534944511097","-0.26627505777350446","0.5037731340911635","-0.8911420897371317","-0.39844337192181495"
"0.03662512011803085","0.036611416717202354","-0.016213524436351223","0.03571770320785684","-0.0026706045715169068","-0.3079203804087524","0.5245316839874002","-0.8574876022596682","-0.38396307802560936"
"0.021644614113911668","0.06850938961365761","-0.02622586694105586","0.000723584492820676","0.016589932138540504","-0.3050809265927128","0.5532871517631275","-0.8098884682656706","-0.4033464059724489"
"0.011443543279433697","0.051478578984516965","-0.024460076338431593","-0.02777370737534297","0.028194550899146187","-0.269939652014718","0.5955565748404313","-0.7608645264913649","-0.4275347072889098"
"0.013003310599099049","0.044444384694413246","-0.010430818369277587","0.03382397474577832","-0.01684658168808587","-0.20175150340850803","0.6144482484372752","-0.7230279643254044","-0.45987838857625835"
"0.021665796139240457","0.035930018097251375","-0.019026397887549187","0.06755294421220372","-0.030740149752157005","-0.17020444344722666","0.6131665124705277","-0.7083709139187162","-0.4823669714218327"
"0.017358142442831355","0.03126513821584916","-0.032219228729144324","0.03560409875512412","-0.027659737112581115","-0.19334235172254452","0.6234482640298714","-0.6902310000490525","-0.49248356501297413"
"0.006305939317869333","0.028395162016269043","-0.023702128793211583","-0.02151968597744666","0.01098530909498614","-0.21599245639356837","0.6302470374187064","-0.6673944975702248","-0.5388989540256421"
"0.01870223823187631","0.02384350233238917","-0.02005902397095519","-0.05115504414709633","0.030291079119384303","-0.25079154038347634","0.6562439864833899","-0.6367215522997026","-0.5835329073332465"
"0.017066408184893942","0.04068734382800669","0.006177733031007939","-0.004246514039275986","-0.016547658885908083","-0.18528024439187474","0.6743833367954033","-0.6121568107540197","-0.6380546459762961"
"0.025268666083800774","0.0359320955320683","-0.012673682222435435","0.016366436259316837","0.0052086079931725066","-0.14747182473368542","0.6867548752570533","-0.6063916163096248","-0.6844863784357995"
"0.01504737604332714","0.03158194702543003","-0.03975739913800817","0.03703474465987688","-0.01831486943136907","-0.09905306996120103","0.7024143451116643","-0.6050723498463766","-0.7137901786117551"
"0.010561600770289593","0.036399518365876134","-0.042749949527718774","0.03842110408305586","-0.012355559764253878","-0.08142418746572076","0.7110242671491638","-0.6192940423201929","-0.7406588052092291"
"0.008592635234045383","0.03182812305123549","-0.02175046549557423","0.03146042447917804","-0.031262127839866975","-0.0819969319961356","0.7188261382511052","-0.6289510728311702","-0.7494679230535348"
"0.008918068168642221","0.024192511381632354","-0.020480335412984847","0.012366211673685805","-0.021525956090151583","-0.09802649819694055","0.7313091320142115","-0.6393205072323016","-0.758146293323157"
"0.007331341907649332","0.022959553817788126","-0.03046376438735411","-0.01491233547655959","-0.012168403934547689","-0.11789296737480416","0.7484732484384825","-0.6274339163984347","-0.7719238190054384"
"0.006343489271861275","0.021530278663744604","-0.019346511973405048","0.012380652917677254","-0.03414844408827698","-0.12018394549646351","0.7733277806632384","-0.606998478882719","-0.7769085702902496"
"0.002095530374106029","0.024607998345017097","-0.009618761217287103","0.05306356274078447","-0.07169448828815778","-0.07973022271051079","0.7737457380436995","-0.6051778911634363","-0.7807656237434148"
"0.0011866289236343698","0.014828473944348683","-0.02885080244507393","0.08127886525127512","-0.1012517069182271","-0.033308793143667956","0.7673927858606905","-0.6067346255900693","-0.767592805594045"
"0.004747134817537124","-0.007594318752117492","-0.028650472984893167","0.06664314584074252","-0.07641646337780367","-0.06450880874965559","0.7553277494780456","-0.6081198553764801","-0.7476538004548003"
"-0.009718262843359242","-0.007644177187723662","-0.03454263741680784","0.06458863819555921","-0.052251343012798795","-0.11101517924261928","0.752987188147463","-0.6092676171995061","-0.720997638666187"
"-0.056049129153418704","0.04185382347770936","-0.030602136282530515","0.057193758522338524","-0.004860471376902611","-0.07785181480143842","0.7528757328460066","-0.6073546808277961","-0.683293306816812"
"-0.06137352006560965","0.04136978116536614","-0.03346457578573197","0.017460119804269147","-0.004412206838488684","0.004803715030033958","0.7510367203719776","-0.6087135252849417","-0.6661000007459222"
"-0.038535445483843044","-0.012749473250313705","-0.0363931033582714","-0.05592258016347294","-0.028927466562649752","-0.0170770675386954","0.7568323960477054","-0.5855867841841995","-0.6884251491231421"
"-0.016121011408652155","-0.018605761999221673","-0.021157738123699185","-0.050827709283290175","-0.026485106917954554","-0.04279548114956448","0.7668912370041373","-0.5614837859006536","-0.7097696906902353"
"-0.0013609910318190044","0.010419534032391473","-0.01221726149356998","-0.04138121021368448","-0.002241007750132498","-0.044203073639567034","0.7720460446964915","-0.5535286091272665","-0.7316208791092274"
"0.0008766010983675589","0.03924560406506163","-0.007688576542184598","-0.06704330078648715","0.03958185828715184","0.02860828823122025","0.7842504002059565","-0.5390958340193305","-0.7492227713510031"
"0.011967316996654662","0.017822057515535766","-0.02297102952616013","-0.07736397649237516","0.017592244945202288","0.09086027954338494","0.7809903326383595","-0.5250720315150014","-0.7670207849548044"
"0.012226315397265755","-0.00323908053017776","-0.009741643721212417","-0.07229991359937414","0.01776695563022213","0.06314526879195534","0.7819934303514663","-0.5011669232009427","-0.7748166090953124"
"0.024121948258046814","0.004150874472324146","-0.017303977580427968","-0.038449637683420586","0.02087584850475331","0.04755982229058222","0.7922751819108105","-0.4843726611237922","-0.7579992023016379"
"0.014451390876121682","0.038721051773788394","-0.027091207598950093","-0.06753622858139524","0.10556984468944104","0.0453246624918023","0.8045352650710039","-0.47012458332071083","-0.7363604786915067"
"0.0002257352291738843","0.06669475030107475","-0.021566658052727963","-0.03390353407491283","0.11139034312736239","0.13674536783386473","0.8264362318071682","-0.446707603598054","-0.6991954805877013"
"0.002521096519348055","0.040041261599943416","-0.012423786710251182","0.004514411040575715","0.007855594536075884","0.23440316403680056","0.8236777130961246","-0.4545308537251163","-0.6488249774408553"
"0.009622851920491005","0.026308378742669163","-0.024794647189455135","0.005427097660835213","-0.008220899771921263","0.29202951520078435","0.8190523180856879","-0.4729610062166947","-0.5911326101117291"
"0.0148008942940467","0.001894780261144985","-0.0006543276620228803","-0.02014873054785855","-0.040215452122870164","0.30047507014079966","0.8100801663184556","-0.5050983372614225","-0.5300898361813365"
"0.019746897208318834","0.014744337834263273","-0.02526139417915465","-0.037984629626895965","0.009051285744787028","0.2693866911805709","0.795702432430592","-0.5385549347693986","-0.5028126234129763"
"0.010552935396291456","0.016303452664364525","-0.0072218295524850845","-0.03382362585816015","0.022213701558535394","0.2609411362405556","0.7909655821186993","-0.5702173298873572","-0.4748326424306919"
"0.011233648664812076","0.011224747767431105","0.0010313311565290839","-0.002226184004872444","0.02590655891450276","0.2695080353607435","0.7713215852370253","-0.611919342790635","-0.45499169797245975"
"0.0045613106862436486","0.033824537910299185","-0.016040043254339015","0.04348035322805973","0.03510878609123285","0.2662560113321169","0.759200821203652","-0.6552572461083407","-0.4168460930585276"
"-0.0032770015047412625","0.06062136961379825","0.016028366291051196","0.0789692289622429","0.026404364701956565","-0.22182911145987208","0.7859500935531654","-0.89039010785308","-0.38778744458510384"
"0.006728617005111986","0.023796760049008388","0.014407969440970489","0.05574482037519661","0.039215683837726695","-0.19244440478926703","0.8195538669422414","-0.8562870697781124","-0.4232690676648582"
"0.011990424660649703","0.008895008491992","0.02360474386500106","0.03669296855207928","0.020277524240986725","-0.18126617891176397","0.831479584198066","-0.8186088195877417","-0.452033534095244"
"0.0058668937019635305","0.04318026560831516","0.004368365607663934","0.0017705746822006387","-0.00031919021491422467","-0.15898253366486148","0.8246808108092317","-0.7801785875133195","-0.4620193801117018"
"0.009661364693816071","0.05552542200788437","0.014915608423572884","-0.028408159361367244","0.013760815689746578","-0.1368372207833558","0.8464424584185753","-0.7365504455736992","-0.5025674717104447"
"0.0104142894123212","0.058557438123184535","-0.02297102952616013","0.03296423935348747","-0.0021172742923855686","-0.09199326555875717","0.7617085654864189","-0.7148221269240002","-0.5355485474243756"
"0.003947994771041916","0.036777611502556255","-0.028578189159054745","0.06815562546144681","0.030755378748067174","-0.09104920783701409","0.8203340540524354","-0.6741359491974236","-0.5930447933914764"
"0.006049829375257615","0.036589603651624655","-0.03290695770069273","0.03545583531681192","-0.010878177492161422","-0.10079557238848004","0.7712101299355689","-0.62910938480676","-0.6518321716585774"
"0.021003376438049254","0.05501852791255498","-0.024522033903435953","-0.021893232822025436","0.004127795043104548","-0.10580466014600638","0.7629624376278025","-0.606972093553454","-0.6344754311193332"
"0.01750930507813226","0.048677158133895324","-0.034412526530298686","-0.05003536636295941","-0.0011353045106918475","-0.11121175681449896","0.7692039345093553","-0.5889904916593801","-0.6714769947547841"
"0.013251717987045754","0.03474276409937947","-0.024360944234424618","-0.0053455889819851036","-0.03319351856330551","-0.13237175495300288","0.7493370270247689","-0.5473148640853672","-0.7062068192801079"
"0.02317934813091572","0.02122385702824836","-0.01485665376275573","0.015133154022447198","-0.09701317783370463","-0.1199485377869286","0.7055350935524406","-0.5310878865874135","-0.7603853455396131"
"0.007109893461030182","0.05004099409120575","-0.0047707882809125855","0.03764320240671654","-0.012146864261052092","-0.14700343619821907","0.7588943191246469","-0.5183833505463327","-0.7257045513547956"
"0.022596842434374032","0.04103012057279911","-0.012983470047457235","0.038268026896746514","-0.012504183511373498","-0.14588706974063081","0.7221140696440661","-0.5007711432619681","-0.7630983577142971"
"0.023084991836269296","0.030311595634881172","-0.030329522996511333","0.03087025897472754","0.023927302249962902","-0.1472679665109954","0.727854017669066","-0.48416157848967245","-0.803613762419369"
"0.018207349094649158","0.03004256782608955","-0.037060179808151676","0.013253866804360128","0.0026133166666585644","-0.14620013772547621","0.7255970478145759","-0.4737393734300111","-0.799658648285191"
"0.007121447293027693","0.0328408725244858","-0.03550091442220861","-0.01433468571690168","-0.0392318070332379","0.014806843866745212","0.6868106029077814","-0.4862064415077073","-0.7848514854522766"
"-0.0001642066007424663","0.02730450873738409","-0.024532360164270014","0.011233055395156871","-0.09216196470308513","0.06709866218197974","0.733092416837512","-0.47964968718536344","-0.794788301128228"
"0.0008977831236963495","0.028211309034971294","-0.02379299988855131","0.053026015506406704","-0.06638615542002062","0.11708032999508766","0.6919654106001356","-0.43844899553811983","-0.7575415857902454"
"0.009794233761787561","0.021702705753549278","-0.025050738458139824","0.08068773699722517","-0.05663107662357021","0.11094274136195585","0.6085411174600907","-0.4539371838166546","-0.7385178136737856"
"0.00955641738650526","0.01323591241369496","-0.02539976607433106","0.06688190774140113","-0.015497958797555987","0.06779760465977411","0.6222779833645803","-0.48759167129411796","-0.741639412019356"
"0.014261715467495708","0.015784093960133597","-0.00737445168761249","0.06349110365220918","-0.005852995598609173","0.07451521847413115","0.6191850987491679","-0.5164704141746227","-0.7098677513712479"
"0.007035756372379423","0.012868933553285384","-0.01468110732857671","0.05676726044979111","0.019301059042519653","0.048011222640824414","0.5890085758798732","-0.5642938234673724","-0.7500399436927754"
"-0.012086798402851063","0.0018445063385754312","-0.024495185625267396","0.017135673189261288","0.02410201293498274","0.07468267344276937","0.479197240120048","-0.5678690355827752","-0.7515271973548011"
"-0.017045317968453856","0.0009880838352986274","-0.047607422624060626","-0.05597745689064045","0.06994322472772348","0.08537066883237497","0.52726233887308","-0.6057715610718981","-0.7980896773889882"
