"AccX","AccY","AccZ","GyroX","GyroY","GyroZ","MagX","MagY","MagZ"
"0.024648610433267146","-0.04559267898846926","-0.042770602049386895","-0.02796240629683122","-0.21350930528611392","0.39014841928837624","0.30407309770682794","0.6579933620675184","0.9013182680075741"
"0.03265349036888299","-0.04906822743718264","-0.030773552212375915","-0.0032620062988990206","-0.16973350885189545","0.36187522530815247","0.3881939864809747","0.5974390314044226","0.9056165945252965"
"0.027048919030752145","-0.03616112491963557","-0.029365050234610123","0.007278176315658987","-0.15314556696323062","0.32685529491033033","0.4502188617414086","0.5495892367824078","0.8998146708987131"
"0.014864440370033056","-0.03565007595467234","-0.020391529569811925","-0.015972322785531855","-0.10793139899891728","0.27829335400524224","0.4990641476046347","0.49056525521668026","0.911271427130361"
"0.014302153879487042","-0.02820974315786003","-0.013582393175832722","-0.006644241916656029","-0.10984603664297035","0.22158193795976006","0.5369589500997785","0.44512971822240976","0.9182664223759323"
"0.015376660255256493","-0.030058660144922145","-0.024354748477924182","0.02321158591126308","-0.08633907296810873","0.20354291213529627","0.5604202910563307","0.4042324578617133","0.9152919150518809"
"0.016244160474403694","-0.026010778404146274","-0.03432991644362621","0.027545884607896264","-0.06705149200132907","0.1794852149742699","0.5798971049858203","0.3746281184264221","0.9185279175252993"
"0.011499386800755056","-0.011916421888727293","-0.04908407792333122","0.0339135104585253","-0.03500524443399074","0.1682875740279392","0.5855534615347276","0.3491398903564656","0.9224993751063129"
"0.009774977375125038","-0.017556657416675194","-0.013689786288506943","0.02984493065133475","-0.030743739697739608","0.15871351821231838","0.5891757588320575","0.320155606158901","0.9271572574544151"
"0.0042426174869787","-0.004575702091386481","-0.010579516525288055","0.015746425517284012","-0.015185154872458816","0.11593484093425802","0.5759125779587575","0.2970288650581588","0.9289713800531496"
"0.004024057498358923","-0.003941045754816284","-0.017836812639465467","0.024712512536774214","-0.04862789127142835","0.12289756999256374","0.5543459771269622","0.276672583530238","0.9305566943961879"
"0.0033183109271770145","0.005136305677731912","-0.015036330701268379","-0.0015725733018195187","-0.04183810752620515","0.09917963653602072","0.5404697920956522","0.25249042925889714","0.9332533631240367"
"-0.0008506967852618334","0.00972702113616995","-0.010225532303896473","-0.033093861661792325","-0.04188836676436154","0.10995499973535061","0.5304109511392205","0.22184386931763986","0.9411799348392281"
"0.003043907417235896","0.011169488001300933","-0.0032875241747081976","-0.07706071036855475","-0.03545518428034321","0.11044523022324806","0.5066988357543916","0.1737566067322404","0.9610208792974603"
"-0.0012839654851688725","0.016891366717553938","-0.023472885802695447","-0.14756864003239933","-0.020649052049175273","0.1090473452676593","0.47574212577490277","0.10871677009410063","0.9815645919696164"
"-0.00157281128510691","0.019401946693806255","-0.038280743838737585","-0.2024935046798723","-0.021280403812301774","0.1449433806463279","0.4368163617412879","0.011106883011287528","1.0085966530354449"
"-0.02443014225353608","-0.015440790055638384","-0.05966229952174235","-0.20586312827787678","-0.009404624495357075","0.13084561379387127","0.4047729625726002","-0.09592520515204472","1.0141697684063322"
"-0.06665939820447553","-0.04061099029748618","-0.054848196720903554","-0.10402347565018717","-0.027270587011427327","-0.008570597820233412","0.3839586850256349","-0.16077902521886647","1.0120124334240532"
"-0.03812143317059851","-0.008772224293313244","-0.06197538194857181","0.03249056655056798","-0.03102758472847047","-0.0883820627568196","0.4011785291006343","-0.166106223197463","1.0115875038063316"
"-0.02654834478641493","0.004010844978489402","-0.03957772219949553","0.07856198588168407","-0.09829119846111004","-0.11121418369810239","0.445565602905608","-0.11652687024212971","0.9907822959848084"
"-0.015764768255395283","-0.0212222911511371","-0.018028881090978985","0.06717362087002837","-0.09131473754559166","-0.15992173761939768","0.5078691164196829","-0.05925091674020603","0.95423834886075"
"0.0009449612710195702","0.0022291433949288577","0.012326608307257344","0.06362203759773163","-0.0523159620332856","-0.1743301455730962","0.5675534303495345","0.004577833284671822","0.9279417429025164"
"0.01281652364847245","0.030182794676231903","0.011672377725854634","0.018653929307562163","0.002661421937465398","-0.07110993215104688","0.6095442151731975","0.04445002360342432","0.9215024248493504"
"0.018612696033895516","0.0011345429898917498","0.010492354595303255","-0.002506825513106246","-0.018680086561972193","-0.032969029439184575","0.6405566528034148","0.05686959808844357","0.9132980145379564"
"0.01639147183237209","-0.02836970563876316","-0.016901253407899625","0.039430065663258344","0.026583861981086542","-0.07501721475260568","0.6639622661092388","0.08202800954258807","0.9009423687303588"
"0.006507168558492835","-0.06924011950951198","-0.045560757726749924","0.12148136302426682","0.0460844463857671","-0.15032098608413888","0.6705381288951606","0.14394118466282946","0.8898288248822553"
"0.008700470999355586","-0.05586247800593168","-0.02565998784734937","0.08151666440233428","0.05426952231409398","-0.23522065518372393","0.6877301091447962","0.22716051316453034","0.8557527382303494"
"0.011416584338106142","0.01664622940915694","-0.008663582090136547","-0.014622547847131205","0.05014347819115963","-0.2022611489652331","0.7066496465670039","0.28907368828477176","0.8274295448645205"
"0.012101148883959278","-0.004601150667893796","-0.018627804219354466","0.026949942605849184","0.11121084584823242","-0.19243712413845668","0.7217239760889693","0.32345377231702166","0.8129655944151505"
"0.019089291603793263","-0.01296448775386531","-0.004378183844001622","0.039034375577892674","0.1580524558099909","-0.23353154419572086","0.7025258004131205","0.3783220645235173","0.7908365673999558"
"0.007743428582227581","-0.02273050882822372","-0.022277104798111295","0.05311266297035539","0.26925461017659347","-0.30296953785770897","0.6642130405375153","0.440380358954716","0.7780069616341302"
"0.001700774447524073","-0.012299708612449719","-0.02352038660253213","0.047346755619370004","0.24673368488841915","-0.2705463729155812","0.6118290488530519","0.5044043604161546","0.7722704117948886"
"0.006005539685933785","-0.026908230245057323","-0.024059417418070057","0.03357654809872485","0.2506347590881773","-0.26081456966573596","0.5677206133017189","0.5553016605682728","0.7789712249974217"
"-0.0009277223319119652","-0.032767635146190674","-0.02557737776067689","0.06540601260547516","0.2343842720842768","-0.3187685501161859","0.5136647920954105","0.6110538613051448","0.7847241182834989"
"0.00715803442768651","-0.02768830701881218","-0.025257263674821027","0.0824110587802046","0.1901010966743843","-0.3071923153277166","0.4453426923026952","0.6857375357896295","0.7671058825948874"
"0.0082980125181086","-0.03279256436399376","-0.03789454168354373","0.07008786390750253","0.152825495041726","-0.2994748254687371","0.3813394854414119","0.7511863450313763","0.7491280910758963"
"0.0102275024616946","-0.04397227983126876","-0.04004446918919504","0.019101607871297045","0.15315337673827006","-0.3018046337280517","0.3049926039438426","0.8081258855851714","0.7437510970670344"
"0.012301415305249638","-0.05640572721055723","-0.03602548847257886","0.01571561753010226","0.13941106504807915","-0.28959740920268473","0.22156831080379794","0.8623477372246754","0.7463660485607059"
"0.017892507172716707","-0.04003346341838138","-0.007652641154482065","0.04632142729597721","0.0852722923654234","-0.23051978164383613","0.13728023907746684","0.9130735327365714","0.7503538495885549"
"0.022350360685093582","-0.004921802731885972","0.0019549119255274157","0.04744303057931299","0.01891334491959891","-0.05193997856737418","0.08977241683171655","0.9526779119632847","0.7186802496214594"
"0.01078690049424126","-0.01186967960534651","-0.029668642303131487","-0.0342347199371167","-0.042974923627361654","0.13442284022536052","0.09233588876521136","0.9393928986783745","0.7242697084391823"
"-0.0013898756118128253","-0.04538805165900228","-0.040164253814870134","-0.09914233518107783","-0.1363661613101605","0.26123236227296986","0.14594588876569445","0.8817805322283224","0.7619250099480509"
"-0.0002672282693870284","-0.06586948151905324","-0.045787935465099246","-0.09365658796352652","-0.19935055990834144","0.2623244598945236","0.2111193762922692","0.8293924609727338","0.7861623416050181"
"0.01726860024485057","-0.022016909968610426","-0.013749678601344495","-0.09110433877543798","-0.2313896275845146","0.27523548066489184","0.27130523907867443","0.7676244051634495","0.8249126540518618"
"0.022549664287050818","-0.04321089997086622","-0.06736775535611797","-0.047150005813468156","-0.3184434146654977","0.35158523882951315","0.3465097037363165","0.7051043674701141","0.8288677681860399"
"0.004386077567614577","-0.04254092724240832","-0.04333441589092658","-0.04660894053858857","-0.22850091803904948","0.32869972644895434","0.4379866424065791","0.6286528759248767","0.8408638581632575"
"0.018539521764577883","-0.02925157671854728","-0.051390964593660236","-0.08892852468072653","-0.20404142213627147","0.28945701858112455","0.49892482847781433","0.5603940291164112","0.8575505173822485"
"0.02294153175563341","-0.03147235453783874","-0.036430277897274016","-0.04517733188423638","-0.20508968624639057","0.2619118896819367","0.5451230509314531","0.5085468571107542","0.8642023002442752"
"0.01493568900068444","-0.03205403628657738","-0.03610809855925134","0.011349548096687884","-0.1545121395816735","0.23125792288672586","0.5862500571688295","0.45563107926986596","0.8716549120012387"
"0.013647436732960835","-0.02865119805645632","-0.025488571917503974","0.0028968954385736215","-0.09907141330106167","0.22972170556574031","0.6116061382501391","0.4187443889574443","0.8697100418278206"
"0.02000493278959681","-0.02435610157246653","-0.015515469203968763","0.0012807276860107306","-0.08820823796811554","0.20800109731483885","0.6267919230735609","0.36351989480587166","0.8895836731797235"
"0.011349186984787273","-0.02446516690035503","-0.016754620504055972","0.03700297392309569","-0.06870286696932484","0.17727675089512793","0.6373801767119096","0.330050104633263","0.8894692690518754"
"0.012236906409930142","-0.015815767040093118","0.003998685469804583","0.015258311470373079","-0.04858002533032703","0.1652418351056061","0.6400829677722254","0.30895503388592316","0.8884886622417485"
"0.008776533726672593","-0.011429263424158682","-0.009372583159003113","-0.0006910797685815469","-0.04729721810881146","0.12806683206791794","0.6380489085206479","0.27318972006726255","0.908672819083525"
"0.005749429743322067","-0.007675338709977517","-0.01717593194608562","-0.009244628584716058","-0.048484293448124376","0.10355530767304588","0.619630919954993","0.24754318002171616","0.9193777767607425"
"0.0025875310533338","-0.0008320606795490907","-0.016636901130547686","-0.02529366440721167","-0.056798607417424846","0.11240857905844126","0.5925472817011109","0.21413935317226993","0.9364239918101133"
"0.00374869116908468","0.003271257409316388","-0.01472241237191295","-0.048112755412898","-0.05984288127146925","0.12129339993068153","0.5758011226573008","0.16962730270227327","0.9502178609392301"
"0.005613672217351202","-0.0034911772452114525","-0.013456412793657188","-0.06940203730509029","-0.051428048825855985","0.12366203832765132","0.5671633367944371","0.12114426017789932","0.9625081329594858"
"0.004535314564249235","0.0021222593735981325","-0.025500963430504845","-0.1135258141965598","-0.019859742680414395","0.11318032804433921","0.5372654521787834","0.0527930647170064","0.981842430565819"
"0.003311571191845126","0.003524964136333198","-0.02538324405699656","-0.12586826406125048","-0.007005344197653067","0.11774529610243371","0.5020455769185909","-0.013109572188097733","0.995129652843037"
"0.0030179112952414657","0.0005789330481055004","-0.026025537480875098","-0.1510537935823354","-0.007947585248232686","0.08234191809526603","0.46128080041094704","-0.09679592101778857","1.0017487488113928"
"-0.008996148343514181","-0.02011709582853368","-0.04832819563027803","-0.12818849059587642","0.007796240769110238","0.0710447749211938","0.4232188149636187","-0.1673027978796292","0.9972052705911388"
"-0.047123793935333676","-0.04705830925180895","-0.062353323095098404","-0.054029814450993856","0.043683969439535564","-0.05888329255685229","0.39435189188643544","-0.20394146609696015","0.9992482014455696"
"-0.035078924077917975","-0.0035425937569303146","-0.04409236343614658","0.04006451764928262","0.08272343100177773","-0.18208403868612752","0.37376052494238327","-0.18652319098269327","1.0169808412620291"
"-0.05101358404116578","0.039194706912047","-0.03225227276381332","0.0798780645841047","-0.04108661225091431","-0.15492721116349206","0.383596455295902","-0.126226117279931","1.0138102125759525"
"-0.02698161348632197","0.03915419693311699","0.01027806403047484","0.011667255464499735","-0.13521019883256344","-0.10140957394015357","0.4367049064398315","-0.07829716667012132","0.9849313420177185"
"-0.0046153203777874454","-0.0002038443909113573","-0.00023157054347646154","0.018731912025115982","-0.09194178137401904","-0.057478126950453186","0.49786600311397927","-0.05721001152156094","0.9550882080961931"
"-0.007291958123879829","-0.049443204421637375","-0.012010736276888779","0.0949595370591733","-0.025944939772626078","-0.10791604888101021","0.5405255197463804","-0.0191702823202603","0.9358356277240373"
"0.022152019902469473","-0.034293511019221144","-0.018423344254840077","0.10926407060750201","0.01825758152651073","-0.13527430774273227","0.5742128846115485","0.041084574855677986","0.9298375827354282"
"0.015843627631822975","-0.008961270861653301","-0.021139150854197875","0.09608017759290964","0.02021290522049993","-0.14083915184544923","0.5881169334682228","0.1135452853495893","0.9114185181518801"
"0.020665426852121763","-0.018628613782207835","-0.008671636573587115","0.0498681968202768","-0.0018820131918725468","-0.11769881668652796","0.6031912629901882","0.17272757889090673","0.8963825470632691"
"0.015227423258621852","-0.032693886210189885","-0.02591607911603406","0.04753641729045768","0.027888208876097696","-0.14265203389722841","0.6232532172523232","0.2194032263606306","0.873893964217695"
"0.00868025179335992","-0.02835412487763623","-0.003603714281447118","0.042988388182751074","0.04843466409384225","-0.186750935855567","0.6343151559218613","0.26887571873244076","0.8457015184265498"
"0.005152481756783484","-0.01930170266289112","-0.02312385818650422","-0.02067631732834611","0.12187059093149794","-0.15509951989933718","0.6289653014519588","0.30379670201462244","0.8404389285455358"
"0.008478059733403293","-0.017322945999771275","-0.01064973509895966","0.00038883645709891676","0.14878082301866385","-0.15815982012329105","0.619212962574532","0.3385329879919495","0.8357483593037628"
"0.014811485306711088","-0.024794440318837437","-0.01570547240331547","0.028474937971346072","0.17103609233372583","-0.2034673101161491","0.596197442823805","0.3807231294866291","0.8278054441417358"
"0.00954004945784211","-0.02607102401383706","-0.025315090735491763","0.06065773158108714","0.1992865707717289","-0.23414797263099787","0.5699497193308448","0.4330320447544231","0.8171495168050246"
"0.001249212180287617","-0.022528997650982117","-0.03007136647565983","0.0666489223383391","0.22214495094466757","-0.24448164301449937","0.5362902182910408","0.4910929618019795","0.8049246185721107"
"0.006873039905080988","-0.02442257948660809","-0.028334489403370928","0.06591338164437469","0.2136391732109618","-0.23844355660910913","0.4998721985401926","0.542953326472269","0.8021625760569202"
"0.010758978733580579","-0.02870313392687942","-0.03191976716495658","0.07399085078359113","0.21157854444654967","-0.2367932757587613","0.4539804781655588","0.6004469589406287","0.7873390697771704"
"0.012629736697845865","-0.03267415057942911","-0.02940429002577955","0.07934181305722225","0.18555861886386835","-0.2526117030860659","0.4006769802440807","0.663151693938819","0.770930249154382"
"0.013274825651040793","-0.03563034032391156","-0.026928052677771944","0.06245229683442437","0.1846515592799982","-0.24702987079812475","0.3529741112207822","0.7171360776149382","0.7556981567037456"
"0.01981429456163771","-0.051183056080811","-0.026775224017427858","0.0383643018566895","0.17122516280107605","-0.2615183659107372","0.2990576091412941","0.7617800547312598","0.7512527391645043"
"0.01530156034727261","-0.0753560876105354","-0.034782206668158025","0.04643021800071279","0.14836917592519247","-0.2945725205897627","0.22792126298680723","0.8109755011457878","0.7587870681556453"
"0.015919690359139982","-0.056163706054385615","-0.007193329072583075","0.05234727703880866","0.12959854712230715","-0.29081085100441106","0.15366416839154345","0.8729018689306616","0.7385211940796915"
"0.02301566884428417","0.0018807575761307501","0.014821845975199617","0.03847116706222622","0.058998677294905086","-0.1227443076981061","0.08918727649907084","0.9208835901990013","0.7218018479670298"
"0.004288832814968779","-0.013215857366713081","-0.03978631266834354","0.0032040125607917438","-0.012140402359003412","0.08003637867198599","0.09567954780890078","0.9265828213202338","0.7095932931809513"
"-0.010411492763210515","-0.05130666345241796","-0.04638685859347473","-0.07871856517877296","-0.08776547801292828","0.22291429705805554","0.14093040020016062","0.8973610691592847","0.7254954669518409"
"-0.0009469787185745068","-0.04114073617580173","-0.030096149501661573","-0.08982195630899743","-0.1271567542422652","0.28889883535233046","0.2008376247329248","0.8352104260756585","0.7707995015796985"
"0.011936506777994594","-0.02373079369257249","0.005488145332509407","-0.08061133089125205","-0.2177023617265902","0.31001272270236874","0.26099562369396606","0.7777563716011964","0.7896108088872972"
"0.01446005625011982","-0.057801763407529974","-0.04274375377121834","-0.03718169646097147","-0.31628944731593805","0.3345485159332754","0.349658316002457","0.6946293917519228","0.8043199110391991"
"0.007859929721535921","-0.03745225065835366","-0.03454057216464102","-0.05356384364486981","-0.2464051733080008","0.3075130325908125","0.41778536901762375","0.6480460929346263","0.7970961075379318"
"0.02163883719791291","-0.032773867450641446","-0.04265701318021224","-0.1063918396647846","-0.21298277993399933","0.3021981574992511","0.45696190747951504","0.5989166098432608","0.8105304208366688"
"0.027621796533962562","-0.03802354523300768","-0.031360083827750525","-0.05163353069801296","-0.20401509586866573","0.26674138805280745","0.511602869018469","0.5336920759002661","0.8398832513531308"
"0.019397393790393822","-0.03711051263096971","-0.04152732024496606","0.004284506436231866","-0.1379864234164404","0.22565910241356055","0.5406369750478365","0.4950903391856218","0.8373990474341428"
"0.01811491843866898","-0.027797372346700672","-0.038592596915926196","-0.019075264744494266","-0.10585162385806463","0.2130757109296584","0.5673305197466217","0.44547272750285427","0.8610643584518695"
"0.020862804815412743","-0.02636082617079792","-0.02506106471897389","-0.01860448019037307","-0.08269168825618761","0.192786964004794","0.5846060914723491","0.4002218878134386","0.8787806548214934"
"0.015955314674465676","-0.028195201114141567","-0.026791746034762354","0.009981384640938123","-0.06806385665562213","0.18003369066865016","0.5862221933434656","0.3738629438777381","0.8800881305683291"
"0.016462720463023474","-0.030004646839682125","-0.013976856339693812","0.00789587645865318","-0.0416562169500201","0.15102757784018375","0.5817082536344853","0.3360131890471452","0.897869800725295"
"0.013089001519747318","-0.01865250428260246","-0.017741811039792114","0.0023384043959443646","-0.02769970517340072","0.12111138366042258","0.5719280509316945","0.31043261232476127","0.9061232413771955"
"0.008465543082072641","-0.021432112067646395","0.011868886469526798","0.08173520856140486","0.008367042116743561","0.12327859071830582","0.09735137733074518","0.6485210288613957","0.9747003442987289"
"0.014824964777374865","0.002269341758636332","0.010420698606123546","0.06814118421745537","0.042080460412641116","0.10264037255454422","0.06558661641569818","0.5830194489611191","1.0407605564076037"
"0.009599744256495965","0.03037703483161427","-0.01661831386104638","0.019169963092856564","0.07955470570086991","0.11044523022324806","0.16157749479494132","0.5776104564618012","0.9957997341632903"
"0.0012501749996207414","0.0009045709556582934","-0.04577760920426519","0.015256385971174216","-0.03932035902427535","0.12467404879029112","0.22580361225913745","0.501053423599504","1.007534328991141"
"0.006750761849773901","-0.028400867161017015","-0.02567031410818343","0.04723507666583615","-0.1322185775137305","0.1253001847599819","0.25082532743607805","0.440353973625451","1.0150686579822816"
"0.010718540321589247","-0.06920584183503274","-0.008706539335206239","0.04736408511215975","-0.09378222680936506","0.11455879793110034","0.33934870061774863","0.3812244507426635","0.9898834064088587"
"0.012648030265175282","-0.05578249676548012","-0.018229210551159745","-0.033679213418245674","-0.028179321903236017","0.11500534451413563","0.3808379365848583","0.3694434012258564","1.0375408973810207"
"0.013282528205705807","0.016652461713607708","-0.004280703941728096","-0.0998643973806502","0.01732898226914499","0.08628803083448008","0.4599154729681073","0.37008984179284804","0.9768903661746787"
"0.019902873940285372","-0.004707099843556905","-0.02238862841511914","-0.09403302305690359","0.019786898344698125","0.06621527655032297","0.5527856029065739","0.31941681693948193","0.9517051146012556"
"0.015467165272570402","-0.013051740016176107","-0.023346905420519915","-0.09282380956001972","-0.004989876948670048","-0.05864303108011047","0.5674141112227142","0.2853797421876766","0.929608774479732"
"0.016041968414447088","-0.022694153718927555","-0.023983003087898018","-0.04823695011122445","0.02750528134728708","-0.1838435292986307","0.6089033471898239","0.29597345188756025","0.9366854869594805"
"0.02323519165223707","-0.012267508372787403","-0.02582107751636071","-0.04759383337880531","0.049810809900505404","-0.1570944182213753","0.6357640748407934","0.2535326497648633","0.9256863472392249"
"0.004309052020964445","-0.026944585354353488","-0.02488964878912849","-0.08879181423760749","0.11992484042572897","-0.10072519276397991","0.6386340488532932","0.22122381407991312","0.879532453375924"
"-0.01030558263656658","-0.03273128003689451","-0.03799780429188434","-0.044130823069656135","0.14747647612365272","-0.05664570587446892","0.6238940852356968","0.1685586968670422","0.8853343770025076"
"-0.0007130136206247033","-0.02764883575729063","-0.04012088351936708","0.011679771209292323","0.1686954478138709","-0.10882127646509807","0.6116061382501391","0.10533944794818505","0.8457342053202206"
"0.011802674890689977","-0.03276348027655683","-0.03561243803921645","0.0003705634697017382","0.1992937506628941","-0.13565532846847433","0.6101293555058432","0.01806073653906916","0.8070819535543897"
"0.014590999679425062","-0.04403356415836802","-0.007283993642706123","0.001528269863016134","0.22209708500356623","-0.14178806333439925","0.6587517307661565","-0.09597718425069669","0.8438710523809796"
"0.0077886810908845356","-0.05648778588582572","0.002091631618970371","0.037121392123825564","0.21703047513799076","-0.11834922149225328","0.5812902962540242","-0.16824079633499867","0.8073271052569213"
"0.021547369361265868","-0.040006456765761374","-0.029532335660121894","0.017208842158817954","0.21101611963860906","-0.14641855724978697","0.530243768187036","-0.15345313854844883","0.8729623877480744"
"0.027632387546626957","-0.004732548420064222","-0.04044512810955656","-0.0019319677272866815","0.18588171396630232","-0.18841092424032868","0.5738227910564517","-0.10744899770851836","0.8168553347619867"
"0.01940605916439196","-0.011887337801290362","-0.045486408648744696","-0.009656685413272035","0.1857117898753926","-0.153340029286834","0.5129960602866729","-0.0595319204968779","0.8066079935961618"
"0.01813802610266402","-0.04564461485889236","-0.013958269070192507","-0.02562292477021668","0.1683460264438312","-0.161853536967746","0.4977266839871589","-0.005415610174433831","0.7765033645252692"
"0.02093694190406351","-0.0659930888906602","-0.06753091027729612","-0.04741765020210964","0.15102812895337117","-0.20703482901322454","0.4307420478119194","0.04136557861234987","0.751677668782226"
"0.016052559427111472","-0.02213220760094969","-0.04324147954342004","-0.06924896011878094","0.13245614380605636","-0.2340436166360494","0.43506094074335105","0.05568225827152013","0.7614837368834939"
"0.016324074479053218","-0.043177661013795436","-0.05151901022800258","-0.11301555690886197","0.06194482596969175","-0.24588923550450195","0.38075434510876616","0.08520744171901644","0.7521352852936186"
