"AccX","AccY","AccZ","GyroX","GyroY","GyroZ","MagX","MagY","MagZ"
"-8.7771","-9.3415","-0.80277","0.65024","-0.096306","-1.862","0.54666","0.53793","-0.42643"
"-8.1201","-10.54","-0.89202","0.83146","0.13852","-2.3242","0.51588","0.56806","-0.44305"
"-7.272","-9.9332","-0.23359","0.83745","0.083524","-2.723","0.47656","0.59783","-0.45703"
"-5.2593","-6.6999","-0.42992","0.57871","-0.041986","-2.5623","0.42787","0.63243","-0.47854"
"-2.7972","-3.9346","0.15701","0.30215","-0.044008","-2.135","0.38708","0.65677","-0.48823"
"-0.99587","-2.0547","0.61086","0.27791","-0.006035","-1.7358","0.35727","0.67398","-0.49585"
"0.24985","-0.93408","1.0533","0.21034","0.3142","-1.2059","0.32975","0.68778","-0.49989"
"1.1041","-1.0297","1.6203","-0.056904","0.45597","-0.16812","0.32126","0.69199","-0.49561"
"0.054592","-1.8485","2.198","-0.57776","0.46211","0.83046","0.33475","0.69238","-0.47786"
"-2.0153","-2.6862","0.98041","-0.91912","0.18598","1.7331","0.35866","0.68807","-0.45083"
"-3.9287","-4.153","0.032718","-1.2985","0.071741","2.2787","0.3915","0.68014","-0.42013"
"-6.6911","-7.501","-0.15745","-1.188","-0.34643","2.4108","0.42831","0.66751","-0.38671"
"-9.1428","-8.8641","-0.14278","-0.3149","-0.1203","2.4955","0.46102","0.63872","-0.37244"
"-8.8604","-9.9091","-0.75341","-0.060631","-0.25738","2.4966","0.50693","0.59142","-0.37287"
"-8.3812","-10.076","-0.56647","-0.54924","-0.17567","2.205","0.54318","0.5518","-0.37733"
"-9.2516","-10.096","-2.2248","-1.2947","-0.052543","1.858","0.56705","0.52338","-0.37141"
"-9.902","-13.678","-2.4396","-1.2352","-0.26282","1.2808","0.59115","0.50931","-0.35438"
"-8.5964","-12.129","-2.8019","-0.33102","-0.36307","0.61151","0.60708","0.49439","-0.35478"
"-9.0204","-10.169","-3.1698","-0.19275","-0.40107","0.1226","0.61293","0.48788","-0.35395"
"-9.3127","-10.136","-3.5034","-0.019474","-0.37603","-0.26827","0.61121","0.49028","-0.36079"
"-8.7866","-9.2359","-3.2306","0.62572","-0.086192","-0.66616","0.60731","0.49049","-0.37587"
"-9.7134","-8.4952","-2.3328","1.07","0.19112","-1.0449","0.59756","0.49548","-0.3887"
"-9.487","-8.2324","-0.88648","0.8654","0.47773","-1.3591","0.58694","0.50909","-0.39736"
"-8.1386","-8.6524","-0.072952","0.56565","0.094392","-1.5804","0.56865","0.53649","-0.39965"
"-9.0264","-10.686","-0.6089","0.48472","-0.1005","-2.0405","0.54075","0.56699","-0.40957"
"-8.3083","-11.272","-0.56847","0.83575","-0.057988","-2.5588","0.51013","0.59582","-0.42616"
"-6.7007","-8.2897","-1.0263","0.80048","-0.28518","-2.8613","0.45908","0.63028","-0.45105"
"-4.5519","-4.6106","-0.7261","0.32075","-0.27058","-2.5537","0.40561","0.66048","-0.46985"
"-1.8048","-1.5926","-0.14861","0.17001","-0.063867","-2.1046","0.35229","0.69102","-0.48296"
"0.49779","0.061852","0.029223","0.1567","0.25678","-1.5066","0.31622","0.71221","-0.48662"
"1.2083","-0.62141","0.076737","0.1453","0.50045","-0.39995","0.30419","0.71994","-0.48477"
"1.4775","-0.80121","-0.13585","-0.13352","0.62082","0.7664","0.31499","0.71552","-0.47574"
"-0.92211","-2.6671","0.48346","-0.41885","0.56646","1.6805","0.34621","0.70241","-0.45532"
"-3.4729","-4.7074","-0.11049","-0.74266","0.34135","2.3522","0.39201","0.67931","-0.42963"
"-7.3126","-8.2057","1.4139","-1.0547","0.015941","2.4865","0.43424","0.65676","-0.39638"
"-9.5291","-8.1528","2.0489","-0.20311","0.093665","2.5104","0.46487","0.62886","-0.38126"
"-8.4093","-10.264","1.8082","0.2052","-0.3402","2.5314","0.50241","0.58339","-0.39086"
"-8.3204","-10.155","0.55492","-0.30967","-0.23665","2.2077","0.53624","0.53684","-0.40241"
"-9.8173","-9.04","-0.19201","-1.5699","-0.18099","1.8481","0.56302","0.50631","-0.39146"
"-10.049","-11.976","-2.0341","-1.5731","-0.41241","1.1259","0.58332","0.49918","-0.37613"
"-10.2","-12.374","-3.4273","-0.87915","-0.4195","0.55713","0.59543","0.49701","-0.36869"
"-9.2327","-11.977","-2.6329","-0.26228","-0.61886","0.000293","0.6023","0.49491","-0.3765"
"-7.9186","-9.8607","-3.0234","0.045495","-0.43078","-0.48289","0.59597","0.50058","-0.38779"
"-8.5473","-9.5891","-2.9585","0.70712","-0.26949","-0.65682","0.58495","0.50768","-0.40309"
"-9.025","-9.037","-2.1284","0.79266","0.089472","-1.047","0.57273","0.51242","-0.42063"
"-8.8524","-8.6106","-2.5278","0.77666","0.3515","-1.3329","0.56831","0.52094","-0.42516"
"-7.7818","-9.1022","-2.2271","0.84659","0.099945","-1.7567","0.54846","0.54182","-0.43544"
"-7.0995","-8.9273","-1.8715","0.87339","0.33905","-2.1544","0.52075","0.56539","-0.44761"
"-7.4236","-10.572","-1.0596","0.82872","0.30056","-2.2782","0.48297","0.59526","-0.45506"
"-6.6442","-10.728","-0.32971","1.1916","0.28286","-2.4966","0.44883","0.615","-0.47239"
"-4.9119","-5.5246","0.52788","0.94486","0.02637","-2.477","0.41148","0.627","-0.49338"
"-2.8513","-0.99439","1.0829","0.69767","0.041812","-1.951","0.37858","0.63966","-0.50961"
"-0.066796","1.8132","1.9667","0.45205","0.35412","-1.1392","0.35609","0.64609","-0.5205"
"0.58374","1.1529","1.9237","-0.06515","0.66172","-0.19009","0.35096","0.64918","-0.5194"
"-0.48259","-0.99713","2.9756","-0.90294","0.50064","0.84078","0.36273","0.65538","-0.49334"
"-2.2975","-2.7998","3.9486","-1.2151","0.083645","1.6519","0.38337","0.66175","-0.46013"
"-4.3242","-4.3376","2.0949","-1.1089","-0.4092","2.2589","0.40295","0.65467","-0.43662"
"-7.3273","-7.5449","0.44427","-0.92142","-0.57955","2.6567","0.43268","0.63701","-0.42291"
"-10.341","-9.5648","1.0602","-0.56221","-0.40685","2.5382","0.47033","0.60869","-0.41166"
"-7.797","-10.034","-0.76567","-0.46827","-0.73312","2.3709","0.50296","0.5725","-0.42331"
"-8.3808","-9.1304","-1.9086","-1.6786","-0.21271","2.1731","0.53255","0.54612","-0.41844"
"-10.402","-12.373","-3.2962","-2.1019","-0.41579","1.7506","0.56378","0.53624","-0.39199"
"-9.1098","-13.57","-4.6447","-0.9352","-0.50638","0.97591","0.57984","0.52739","-0.3806"
"-8.8367","-11.554","-4.6048","0.19144","-0.2184","0.48282","0.59561","0.51209","-0.38339"
"-8.6536","-10.049","-3.7385","0.25225","-0.14233","-0.010805","0.60174","0.49936","-0.39248"
"-8.4867","-9.1786","-2.9415","0.34981","-0.020151","-0.27263","0.59865","0.49769","-0.40062"
"-8.837","-8.9052","-1.5945","0.68388","0.19902","-0.66075","0.59299","0.49818","-0.40358"
"-9.4139","-9.3532","-0.8808","0.902","0.35116","-1.1556","0.58343","0.50522","-0.40971"
"-9.8334","-9.2684","-1.0819","0.80121","0.24237","-1.4689","0.56822","0.52465","-0.41307"
"-9.1368","-9.437","-0.80163","0.95061","-0.044019","-1.9065","0.54456","0.54616","-0.42454"
"-8.2758","-9.8229","-0.54907","1.0748","0.13623","-2.4378","0.51568","0.56756","-0.44583"
"-7.4059","-9.4401","-0.085108","0.94075","0.11479","-2.6162","0.4755","0.59461","-0.46481"
"-6.0094","-7.6245","0.092792","0.55444","0.027077","-2.4321","0.43546","0.62005","-0.48031"
"-3.7572","-4.8277","0.48203","0.33493","-0.10865","-2.2472","0.39042","0.64885","-0.49472"
"-1.5493","-1.6571","0.86406","0.27757","-0.1069","-1.9425","0.35256","0.66981","-0.50478"
"-0.25128","-0.36316","0.8073","0.16373","0.041392","-1.2237","0.32451","0.68242","-0.50909"
"0.79064","-0.11526","1.1543","-0.074521","0.53921","-0.17556","0.31753","0.68782","-0.50385"
"-0.10971","-1.2857","1.6887","-0.78472","0.49981","0.86745","0.3313","0.69227","-0.48511"
"-1.7604","-3.0039","1.7832","-0.99765","0.20237","1.5904","0.3546","0.69434","-0.45266"
"-3.5021","-4.7552","0.76294","-1.1543","-0.082797","2.1089","0.38378","0.68677","-0.42117"
"-6.3082","-7.1002","0.074217","-0.98891","-0.4069","2.4912","0.41917","0.67522","-0.39429"
"-9.0235","-9.0054","-0.46985","-0.53578","-0.23524","2.525","0.45619","0.64794","-0.38242"
"-8.9968","-10.745","-0.86256","-0.10502","-0.3468","2.4238","0.49262","0.6083","-0.38436"
"-7.7846","-10.941","-1.896","-0.33865","-0.1456","2.1511","0.52891","0.56071","-0.39316"
"-9.1476","-10.642","-2.1796","-1.2375","0.084352","1.7946","0.56178","0.53337","-0.37997"
"-9.1213","-12.561","-2.6475","-1.037","-0.12257","1.2772","0.58576","0.51827","-0.36477"
"-9.12","-12.069","-2.0934","-0.18994","-0.43428","0.69234","0.60081","0.50123","-0.36503"
"-9.1773","-10.508","-2.1499","0.12309","-0.38223","0.1112","0.6055","0.49047","-0.37526"
"-8.9676","-10.321","-2.5194","0.44553","-0.34808","-0.29288","0.60129","0.48959","-0.38583"
"-8.9354","-9.0662","-2.4258","0.70949","-0.16201","-0.61977","0.59681","0.48819","-0.39666"
"-8.7241","-8.547","-1.6439","0.70706","0.12467","-1.0575","0.5907","0.48917","-0.41103"
"-10.148","-9.1308","-1.55","0.42339","0.23127","-1.4227","0.57705","0.50794","-0.41313"
"-9.3692","-9.3526","-1.134","0.56596","0.021626","-1.8734","0.55712","0.53653","-0.41959"
"-8.0656","-9.2845","-0.97736","0.81302","0.038667","-2.2507","0.52274","0.57236","-0.43008"
"-6.7017","-9.0227","-0.77432","0.79295","-0.048412","-2.5866","0.47993","0.60175","-0.45012"
"-6.342","-9.1452","-0.39504","0.67647","-0.05037","-2.6552","0.43795","0.62839","-0.4702"
"-3.9085","-5.4225","-0.10483","0.61162","0.007521","-2.4496","0.39078","0.65312","-0.48725"
"-1.3989","-1.2463","0.69588","0.22658","0.054747","-2.0029","0.35334","0.67331","-0.49887"
"0.86033","1.2891","1.0547","-0.019528","0.40907","-1.2051","0.3187","0.69474","-0.49746"
"0.67119","0.18453","1.0335","-0.34801","0.54286","0.095617","0.31699","0.70249","-0.4851"
"-0.61132","-1.337","2.0761","-0.70726","0.41615","1.0514","0.3321","0.70391","-0.46308"
"-2.4198","-3.1882","1.9583","-0.89967","0.065681","1.7162","0.35841","0.69949","-0.43597"
"-4.1909","-4.5128","0.72955","-1.0365","-0.19989","2.3125","0.39082","0.68976","-0.40962"
"-7.2831","-7.5423","-0.3618","-0.8817","-0.39725","2.5782","0.4363","0.66337","-0.38334"
"-9.4355","-8.8455","-0.79761","-0.68399","-0.2947","2.5297","0.47386","0.63476","-0.36971"
"-9.4768","-10.77","-1.4534","-0.2102","-0.50499","2.4992","0.50287","0.59994","-0.3762"
"-8.1902","-11.416","-2.2403","-0.26066","-0.14559","2.2624","0.53883","0.55576","-0.38535"
"-9.7348","-12.079","-2.7463","-0.99314","0.029764","1.8753","0.57137","0.52321","-0.37762"
"-8.822","-12.651","-2.7921","-0.7934","-0.20748","1.2035","0.59815","0.49614","-0.3715"
"-9.8036","-13.021","-2.5333","0.078172","-0.15992","0.28774","0.60779","0.48443","-0.3723"
"-9.2296","-10.546","-1.882","0.5048","-0.30309","-0.34052","0.60769","0.48109","-0.3815"
"-9.2194","-8.932","-1.9671","0.32689","-0.28435","-0.66293","0.6005","0.48399","-0.39223"
"-9.0544","-8.7909","-1.9639","0.46057","-0.087867","-0.89358","0.58961","0.49708","-0.40102"
"-8.8758","-9.4865","-1.9404","0.97907","0.28774","-1.3754","0.57402","0.50781","-0.41654"
"-8.8747","-9.0247","-1.5581","0.99135","0.11339","-1.6642","0.55889","0.52429","-0.4283"
"-8.6812","-9.9981","-1.1615","0.66509","0.005837","-2.1291","0.53696","0.54708","-0.43405"
"-8.4145","-11.915","-0.46589","0.72926","0.069804","-2.6046","0.49837","0.58289","-0.44744"
"-7.0916","-9.3824","-0.10801","0.924","-0.095806","-2.8312","0.45355","0.61121","-0.46607"
"-4.9264","-4.7614","-0.014143","0.72837","-0.22025","-2.5387","0.39998","0.63767","-0.49394"
"-2.7164","-0.46364","0.60255","0.56983","-0.1567","-2.0841","0.36049","0.65553","-0.5122"
"0.029586","1.8596","1.208","0.29014","0.15751","-1.35","0.33262","0.66741","-0.52138"
"1.752","1.6349","1.1917","-0.17063","0.59138","-0.26862","0.32249","0.67621","-0.51869"
"0.50638","-0.20782","2.1817","-0.97888","0.55286","0.87522","0.33468","0.68242","-0.49235"
"-1.685","-2.8733","2.5857","-1.2837","0.28319","1.7834","0.36203","0.68839","-0.45097"
"-3.7423","-4.664","0.46183","-1.1858","-0.23713","2.4056","0.39465","0.68033","-0.41975"
