"AccX","AccY","AccZ","GyroX","GyroY","GyroZ","MagX","MagY","MagZ"
"-9.5155","7.3035","1.6475","-0.82701","-0.41967","2.5609","0.5495","-0.47047","0.28774"
"-7.183","6.7965","1.3573","-0.31561","-0.56224","2.6709","0.52367","-0.52751","0.27147"
"-5.114","5.3203","1.2204","-0.057261","-0.70881","2.7349","0.49708","-0.57624","0.26326"
"-3.0075","2.0323","0.33591","-0.026131","-0.66086","2.422","0.46145","-0.62756","0.24834"
"-0.60606","-0.445","-0.41595","0.026748","-0.38616","1.7704","0.43157","-0.66273","0.23889"
"1.7539","-1.5183","0.22536","-0.018908","-0.030551","0.63165","0.41141","-0.67899","0.23825"
"1.6103","-1.2038","0.19962","0.24384","0.21657","-0.76689","0.41027","-0.67502","0.24225"
"-0.091861","1.2963","-0.24996","0.76653","0.24791","-1.6485","0.42647","-0.64987","0.25697"
"-3.0605","3.191","-0.59677","1.3903","0.4481","-2.1266","0.44523","-0.60421","0.29156"
"-7.1643","6.5506","-0.81793","1.117","0.26015","-2.4536","0.46638","-0.54952","0.32401"
"-10.332","8.3664","-0.41838","0.27678","0.12799","-2.6905","0.49083","-0.49664","0.33866"
"-10.52","9.9697","-0.1988","-0.28999","0.010958","-2.5781","0.51794","-0.44764","0.32959"
"-10.414","11.379","0.086898","-0.44891","0.18031","-2.3066","0.54022","-0.40034","0.31952"
"-12.334","12.796","0.12182","-0.48678","-0.073613","-1.7486","0.56215","-0.35549","0.30314"
"-11.072","12.326","-1.0528","0.068504","-0.058754","-1.0948","0.57794","-0.32681","0.29582"
"-10.097","11.26","-1.7223","0.76531","0.12506","-0.47522","0.58521","-0.30322","0.30397"
"-10.024","10.841","-3.5736","0.84726","0.23427","0.008923","0.58585","-0.2904","0.3176"
"-10.529","10.492","-3.1557","-0.12125","0.21661","0.35283","0.58159","-0.29174","0.32736"
"-10.779","10.291","-1.9","-1.6268","0.32282","0.7788","0.57488","-0.32459","0.32634"
"-13.377","8.1863","0.30094","-1.7533","0.062431","1.5003","0.56681","-0.37691","0.31153"
"-11.697","7.5264","1.866","-1.2112","-0.37328","2.4431","0.55472","-0.43675","0.28988"
"-8.0752","6.7261","2.9901","-0.4937","-0.66881","2.8168","0.53379","-0.50151","0.27253"
"-5.988","5.7181","2.1102","0.26321","-0.64539","2.7028","0.50934","-0.55477","0.26457"
"-3.3459","4.0843","0.73204","0.23482","-0.90381","2.5938","0.47828","-0.60415","0.25785"
"-1.6945","2.2187","0.046969","-0.073536","-0.77951","2.2218","0.44929","-0.64419","0.24794"
"0.52207","0.71665","-0.94226","-0.3194","-0.37245","1.3294","0.42829","-0.66562","0.23848"
"1.6495","-0.62877","-0.96317","-0.52213","0.005123","0.31522","0.41363","-0.68094","0.22459"
"0.099054","-0.95279","-0.27369","0.16214","0.4391","-0.95321","0.41558","-0.67415","0.22414"
"-1.5098","1.2141","0.14181","1.2912","0.74615","-1.659","0.42674","-0.64482","0.24871"
"-4.0002","3.3482","0.37456","1.8986","0.51494","-1.9636","0.43726","-0.59944","0.30048"
"-6.9707","5.4543","-0.31766","1.1271","0.084014","-2.4365","0.45578","-0.54509","0.33936"
"-11.736","8.508","0.24353","-0.000866","0.041787","-2.9011","0.48671","-0.49204","0.34068"
"-11.831","9.5649","0.308","-0.51822","-0.29266","-2.5767","0.51688","-0.44374","0.3218"
"-11.727","12.447","-0.13573","-0.611","0.16185","-2.2227","0.54204","-0.39432","0.30216"
"-12.019","14.494","-2.1096","-0.38476","-0.077325","-1.4828","0.56284","-0.35867","0.2885"
"-9.4318","12.874","-1.343","0.43728","0.035272","-0.7129","0.57542","-0.33459","0.28182"
"-8.203","11.742","-2.24","1.3946","0.22036","-0.13036","0.5757","-0.31524","0.29595"
"-9.4331","10.264","-1.2877","0.79427","0.39792","0.10533","0.5698","-0.30391","0.32081"
"-11.737","11.123","-0.97481","-0.84673","0.19806","0.47998","0.56231","-0.31579","0.32874"
"-11.691","9.4122","-0.7094","-1.5743","0.059371","1.1192","0.55867","-0.35642","0.31871"
"-12.278","8.2627","1.0132","-1.2151","-0.10495","1.7886","0.55424","-0.40138","0.30812"
"-9.8851","6.411","1.3034","-0.63167","-0.42073","2.4231","0.5432","-0.45841","0.29319"
"-6.9786","7.4893","0.86543","0.23871","-0.66071","2.7613","0.52107","-0.51091","0.2848"
"-5.5854","6.626","0.57924","0.15232","-0.66929","2.6595","0.49127","-0.56817","0.28249"
"-3.3003","3.7858","0.41816","-0.30147","-0.6938","2.3851","0.46496","-0.61096","0.26969"
"-1.962","1.8883","-0.1006","-0.2571","-0.62366","1.7286","0.44349","-0.63815","0.25984"
"-0.1299","1.2826","-0.58083","-0.24536","-0.35298","1.1021","0.42522","-0.66099","0.24593"
"1.0204","-0.033968","-0.3162","-0.16788","0.010274","0.27927","0.41401","-0.67255","0.23678"
"0.41355","-0.040514","-1.1237","0.58722","0.4376","-0.7951","0.4124","-0.66827","0.23945"
"-1.4543","1.757","-0.51042","1.2475","0.59304","-1.5824","0.42166","-0.63716","0.27546"
"-3.8321","3.8904","0.002202","1.3257","0.38614","-2.043","0.43546","-0.5927","0.31637"
"-6.6792","5.3957","-0.37176","0.65109","0.090577","-2.5371","0.45785","-0.54347","0.3367"
"-10.51","8.3188","0.028269","-0.038017","0.19349","-2.9319","0.48556","-0.49135","0.33971"
"-11.906","9.8845","0.93639","-0.50569","-0.031223","-2.6525","0.51743","-0.43376","0.33242"
"-11.167","11.387","0.91209","-0.46286","0.12707","-2.254","0.54181","-0.38815","0.31904"
"-11.916","11.611","0.56668","0.024731","-0.12372","-1.6786","0.5599","-0.35276","0.30643"
"-11.42","12.764","-2.0206","0.38769","-0.053667","-0.965","0.57543","-0.31866","0.30158"
"-10.162","12.288","-1.8373","1.2943","0.074467","-0.12413","0.57998","-0.29366","0.31418"
"-9.6526","11.485","-3.0491","0.96262","0.097706","0.27813","0.58335","-0.28023","0.33436"
"-10.181","10.003","-2.4279","-0.058706","-0.072163","0.63663","0.58326","-0.28583","0.34014"
"-10.507","9.6324","-2.0439","-0.99872","0.020986","1.0298","0.58309","-0.31187","0.33652"
"-11.125","8.3638","-0.55434","-1.146","-0.027345","1.7467","0.57743","-0.36074","0.32458"
"-9.648","7.8479","0.46627","-0.94391","-0.47674","2.5041","0.56097","-0.42372","0.30613"
"-7.7675","8.5866","1.3586","-0.39115","-0.67545","2.5558","0.53623","-0.49429","0.28443"
"-6.4518","6.6671","0.69684","-0.31523","-0.48977","2.3422","0.51429","-0.54369","0.27172"
"-4.2749","4.4126","0.25534","-0.11347","-0.57751","2.1655","0.49438","-0.57955","0.25999"
"-3.5072","3.0084","-0.39547","-0.082642","-0.31501","1.777","0.47326","-0.61149","0.25029"
"-1.7614","1.9801","-0.34427","-0.17633","-0.20241","1.4457","0.4514","-0.64084","0.24357"
"0.28222","1.4528","0.36512","-0.23414","0.09024","0.6905","0.43184","-0.6626","0.23536"
"0.79632","0.5001","0.89419","0.15992","0.24923","-0.081521","0.42289","-0.66755","0.23705"
"0.38728","1.1848","-0.030127","0.91434","0.52603","-1.0218","0.42196","-0.65618","0.25559"
"-2.1762","3.2786","0.82394","1.3538","0.42605","-1.6555","0.4317","-0.61881","0.29555"
"-4.034","4.3062","0.83051","1.0451","-0.084301","-2.0735","0.45211","-0.57139","0.32719"
"-7.3916","5.9923","-0.22916","0.67752","-0.26825","-2.5668","0.48559","-0.50947","0.34395"
"-10.589","8.6972","-0.87407","-0.067666","-0.031731","-2.8063","0.51809","-0.45309","0.34115"
"-12.033","10.618","-0.56003","-0.37666","-0.14124","-2.369","0.54406","-0.41036","0.32863"
"-10.81","10.991","-0.80598","-0.31142","-0.13989","-1.9348","0.56788","-0.36867","0.31366"
"-10.928","11.93","-1.3496","0.12639","-0.21235","-1.5548","0.58604","-0.3293","0.30105"
"-10.953","12.187","-1.748","0.41925","-0.1173","-0.94703","0.60341","-0.29108","0.29889"
"-9.7705","11.541","-2.2112","0.60388","0.023094","-0.29238","0.60965","-0.2702","0.30097"
"-10.17","10.908","-1.9185","0.3048","0.1269","0.10706","0.6098","-0.26427","0.30686"
"-10.448","9.8711","-1.6828","-0.28065","0.2591","0.39717","0.60728","-0.27419","0.31227"
"-10.333","9.5696","-1.1925","-0.87337","0.14746","0.90633","0.60416","-0.29962","0.31402"
"-10.452","8.4111","-0.46585","-1.0541","0.14721","1.4567","0.59746","-0.34841","0.30701"
"-10.689","8.2422","0.23485","-0.96268","-0.15595","2.2894","0.58162","-0.40615","0.29565"
"-9.0107","7.5415","0.80954","-0.63759","-0.51254","2.6812","0.56506","-0.46372","0.2802"
"-6.9752","6.77","0.70121","-0.19589","-0.61882","2.7296","0.53727","-0.52512","0.26463"
"-5.1786","5.9378","0.54314","-0.1111","-0.39734","2.3771","0.50786","-0.57338","0.25497"
"-2.6709","3.3911","0.3412","-0.32299","-0.25859","2.028","0.47559","-0.6215","0.23942"
"-1.3908","1.483","0.50404","-0.26977","-0.082599","1.66","0.44831","-0.65581","0.22983"
"0.18511","0.2502","0.88968","-0.017069","-0.029557","0.92594","0.42817","-0.67538","0.22854"
"1.6665","-0.097454","1.1374","0.17768","0.23642","-0.1594","0.41903","-0.68015","0.23231"
"0.7337","0.83192","0.39738","0.7645","0.27077","-1.0643","0.42302","-0.66336","0.24845"
"-1.8332","3.0581","0.07328","1.3555","0.51733","-1.7529","0.43501","-0.62544","0.28641"
"-4.4767","5.6141","-0.29023","1.105","0.2441","-2.1398","0.45357","-0.57731","0.3236"
"-7.5334","7.2827","-0.48101","0.49617","-0.005497","-2.3512","0.47886","-0.52799","0.33739"
"-9.8896","8.186","0.10091","-0.028339","0.071973","-2.4863","0.5046","-0.47911","0.33848"
"-10.247","9.5035","0.3474","-0.14402","-0.13005","-2.3542","0.53188","-0.42963","0.3302"
"-11.101","10.975","-0.81181","0.036266","-0.31807","-2.0366","0.56032","-0.37807","0.31739"
"-11.532","11.354","-2.1639","0.10442","-0.44102","-1.6916","0.58478","-0.33432","0.30205"
"-10.594","11.824","-2.4832","0.4527","-0.15108","-1.0842","0.60109","-0.29878","0.29972"
"-9.531","11.556","-1.9588","0.6339","0.075647","-0.48701","0.60746","-0.27714","0.30206"
"-10.39","11.887","-1.2937","0.23097","0.16838","-0.11301","0.6099","-0.26474","0.31237"
"-9.642","10.136","-1.5019","-0.13873","0.053394","0.30578","0.6081","-0.26799","0.31439"
"-8.5732","8.6769","-1.2762","-0.8475","0.0787","0.7856","0.60989","-0.29142","0.30903"
"-10.313","7.4224","-0.64205","-0.78388","0.30229","0.99348","0.60516","-0.31852","0.31464"
"-10.751","8.2607","-0.65176","-0.50729","0.13875","1.4964","0.59425","-0.35579","0.31343"
"-10.015","9.0652","-0.44277","-0.51618","-0.24494","2.1883","0.58023","-0.40447","0.30948"
"-8.6288","8.3125","-0.26404","-0.55789","-0.43025","2.4621","0.55672","-0.46721","0.29725"
"-7.0198","6.4277","0.017927","-0.69176","-0.41315","2.6709","0.52977","-0.52446","0.27699"
"-5.36","4.6943","0.023149","-0.64916","-0.26804","2.4624","0.50221","-0.5728","0.25864"
"-3.8175","2.674","0.36396","-0.51651","-0.20234","2.0283","0.47025","-0.6159","0.2423"
"-1.6094","0.53614","0.75578","-0.22859","-0.066807","1.4923","0.44521","-0.649","0.23059"
"0.94707","0.45369","1.3775","0.029845","0.1046","0.7328","0.4193","-0.67572","0.22694"
"1.9184","0.53134","1.667","0.20788","0.35947","-0.24487","0.40778","-0.68016","0.23323"
"0.025008","2.5349","1.4017","0.78558","0.36969","-1.1602","0.41316","-0.66392","0.25297"
"-2.1228","4.4789","0.8012","1.1072","0.32948","-1.7442","0.42837","-0.62925","0.28086"
"-4.4148","5.447","0.25891","0.93679","0.10001","-2.0279","0.44869","-0.58745","0.30846"
"-7.4737","7.2088","-0.6748","0.63168","-0.051467","-2.3286","0.47844","-0.53267","0.32204"
"-10.033","8.2479","-0.50227","-0.075108","-0.12514","-2.553","0.51055","-0.48351","0.32055"
"-9.5461","9.3747","-0.47871","-0.40618","-0.2577","-2.3154","0.53812","-0.44292","0.30615"
"-9.6412","10.439","-0.45176","-0.23401","-0.12997","-1.8943","0.55848","-0.40015","0.29101"
"-11.103","11.186","-1.1422","-0.15609","-0.058796","-1.6272","0.57676","-0.36228","0.28077"
"-10.891","11.826","-1.5288","0.20418","-0.05915","-1.2714","0.59672","-0.32293","0.27139"
"-9.4543","11.731","-0.71952","0.33845","0.17189","-0.64774","0.60285","-0.29892","0.27215"
