"AccX","AccY","AccZ","GyroX","GyroY","GyroZ","MagX","MagY","MagZ"
"-8.7756","-8.508","0.31463","0.58517","-0.31042","-0.97458","0.59357","0.48682","-0.40461"
"-9.1044","-7.7576","-0.22681","0.23818","-0.25871","-1.326","0.57817","0.50405","-0.41898"
"-9.4137","-8.7778","-0.72786","-0.29013","-0.53148","-1.8238","0.5546","0.5412","-0.42681"
"-7.8881","-10.271","-0.8107","-0.23113","-0.38852","-2.2741","0.50984","0.59488","-0.43377"
"-6.2919","-9.7101","-1.0362","0.18907","-0.41191","-2.6414","0.46132","0.63853","-0.44464"
"-5.0615","-8.4449","-1.3258","0.29536","-0.29253","-2.7229","0.40889","0.67703","-0.45901"
"-4.1073","-6.9195","-0.90214","0.23464","-0.15182","-2.4763","0.3505","0.70873","-0.47237"
"-2.3426","-4.3806","-0.85054","0.10069","-0.001699","-2.0082","0.30469","0.73312","-0.47882"
"-0.92273","-2.065","-0.55882","-0.18795","0.098833","-1.5309","0.25698","0.7527","-0.48124"
"0.92985","-0.69189","-0.48646","-0.10134","0.35335","-0.861","0.23323","0.76997","-0.47701"
"1.6622","-1.7414","-0.41715","-0.14359","0.50122","0.1682","0.23066","0.77553","-0.46576"
"1.4223","-1.9048","-0.36188","-0.31487","0.54922","1.0998","0.25333","0.77036","-0.45165"
"-1.5337","-4.4744","-0.73253","-0.78299","0.62777","1.9621","0.2969","0.76015","-0.42241"
"-4.0839","-6.1109","-1.4524","-0.79024","0.45234","2.4633","0.35757","0.73515","-0.38783"
"-7.8566","-9.4654","-0.56893","-0.37646","-0.053191","2.42","0.40656","0.70578","-0.36431"
"-9.3289","-7.3513","-0.74499","0.28616","0.073558","2.4298","0.44307","0.67248","-0.35919"
"-7.8278","-10.348","-0.21222","0.55705","-0.13397","2.5086","0.48281","0.62525","-0.37405"
"-7.7031","-12.76","1.3597","0.91045","0.23636","2.3293","0.52001","0.56933","-0.39242"
"-8.3814","-10.77","1.376","0.29373","0.19339","1.732","0.55032","0.51071","-0.41256"
"-9.0928","-10.707","1.4837","-1.0044","0.10613","1.1959","0.57752","0.48688","-0.40007"
"-8.8828","-8.8142","-1.7051","-1.094","-0.29386","0.57546","0.59116","0.47911","-0.38447"
"-9.8272","-9.1383","-1.7518","-0.87681","-0.29025","0.25972","0.59889","0.48371","-0.37261"
"-9.0679","-11.342","-2.8955","-0.045473","-0.30093","-0.057423","0.599","0.48437","-0.37288"
"-9.3649","-10.155","-2.1801","0.62834","-0.2051","-0.4925","0.59322","0.49231","-0.38305"
"-9.5129","-9.4693","-1.5233","0.8108","-0.1443","-0.97187","0.5812","0.49787","-0.40069"
"-8.8605","-9.2573","-1.0635","0.55942","-0.11845","-1.4055","0.57402","0.50543","-0.41542"
"-9.153","-9.6831","-0.66612","0.3782","-0.048949","-1.7464","0.55157","0.53192","-0.42434"
"-8.1503","-10.165","-0.93437","0.52025","-0.14324","-2.2525","0.52058","0.56678","-0.43582"
"-7.1001","-9.5815","-0.41451","0.80177","-0.050774","-2.4991","0.47298","0.60628","-0.45298"
"-5.9152","-9.1562","0.25661","1.094","0.026612","-2.3424","0.43238","0.62742","-0.47621"
"-4.247","-6.1696","0.60663","0.79068","-0.18599","-2.1848","0.40314","0.63605","-0.50283"
"-2.8798","-4.1382","1.0685","0.062097","-0.28649","-1.9935","0.36152","0.6558","-0.51836"
"-1.1087","-2.0614","0.82014","-0.33087","-0.34701","-1.7017","0.32304","0.68338","-0.51878"
"0.51833","-0.91733","0.4473","-0.31812","0.016603","-1.0778","0.28764","0.70699","-0.51424"
"0.82477","-1.247","0.31711","-0.32526","0.25085","-0.088624","0.27635","0.71786","-0.50297"
"0.66552","-2.1861","-0.091536","-0.60997","0.32976","0.97276","0.28228","0.72568","-0.48432"
"-1.344","-3.7177","0.53528","-1.0176","0.28763","1.8554","0.31513","0.72231","-0.45103"
"-3.0937","-5.5573","-0.85893","-1.1564","0.26641","2.3928","0.35879","0.71191","-0.41514"
"-6.2755","-8.9789","-0.80985","-0.82648","-0.18206","2.444","0.41617","0.68662","-0.38012"
"-8.8222","-8.569","-1.4196","0.072865","-0.03458","2.4439","0.45139","0.65422","-0.37414"
"-8.6604","-9.904","-2.2572","0.64008","0.036643","2.5804","0.48814","0.60965","-0.37851"
"-7.239","-11.272","-1.7736","0.43989","0.32412","2.3651","0.52674","0.55436","-0.39232"
"-8.6729","-9.5524","-0.2393","-0.24689","0.44561","2.0173","0.56039","0.50955","-0.38642"
"-9.948","-10.803","0.28116","-0.95598","0.44327","1.4444","0.58947","0.4723","-0.37602"
"-10.1","-11.623","-0.089683","-0.80609","0.075487","0.69277","0.60689","0.46098","-0.35678"
"-10.202","-10.49","0.74838","-0.32761","-0.334","0.1697","0.61322","0.46369","-0.34253"
"-9.2","-10.772","-1.0135","0.3234","-0.46615","-0.31263","0.61195","0.46024","-0.35686"
"-9.4838","-9.7294","-1.9568","0.10849","-0.34314","-0.66395","0.61145","0.4644","-0.36653"
"-9.9783","-9.7341","-2.0772","0.34644","-0.39128","-1.0536","0.59719","0.47946","-0.38747"
"-9.3767","-8.3551","-2.0335","0.35571","-0.21549","-1.5665","0.58362","0.50159","-0.40148"
"-8.7787","-9.2327","-1.8091","0.24088","-0.15157","-2.0056","0.56085","0.53397","-0.40468"
"-8.5853","-10.123","-1.7036","0.36833","-0.25372","-2.3775","0.52463","0.57683","-0.41701"
"-6.2612","-9.1191","-1.3479","0.46393","-0.29582","-2.5799","0.47835","0.61528","-0.43449"
"-4.9482","-7.998","-1.1135","0.66148","-0.15346","-2.4715","0.42464","0.65213","-0.45937"
"-3.7682","-6.0489","-0.37111","0.80671","-0.081333","-2.3255","0.38111","0.67111","-0.4792"
"-2.5726","-3.6212","0.20848","0.47986","-0.03871","-2.0464","0.34211","0.68367","-0.4985"
"-0.87507","-1.0757","0.60263","0.052435","0.17747","-1.6251","0.30654","0.70077","-0.50474"
"1.3368","-0.31251","1.5684","-0.42174","0.45251","-0.6734","0.28764","0.7212","-0.49363"
"0.94566","-1.2366","1.4473","-0.5487","0.50431","0.38934","0.28723","0.72646","-0.47659"
"-0.90077","-3.3037","1.1789","-0.86097","0.25773","1.3355","0.31059","0.73016","-0.448"
"-1.8624","-4.2807","-0.1399","-0.85543","0.034384","1.9657","0.33863","0.72491","-0.41722"
"-4.1289","-6.2534","-1.2145","-0.8472","-0.01642","2.4259","0.38175","0.70879","-0.39148"
"-8.3151","-10.119","-1.064","-0.50227","-0.019962","2.3946","0.42378","0.6799","-0.37205"
"-9.3615","-9.0553","-0.48118","0.089117","-0.070884","2.282","0.46828","0.64062","-0.36789"
"-6.1132","-10.406","-0.9006","0.009059","-0.33532","2.1605","0.49968","0.6012","-0.37891"
"-7.3268","-10.543","-0.81689","-0.40477","-0.029903","2.1234","0.52794","0.56772","-0.37898"
"-9.4831","-9.9953","-0.67254","-0.82988","-0.001947","1.9166","0.55809","0.53524","-0.36956"
"-9.9373","-12.35","-1.613","-0.87462","-0.1545","1.2015","0.58289","0.51334","-0.35507"
"-10.131","-11.521","-1.4048","-0.057945","-0.38519","0.54856","0.59616","0.49517","-0.35882"
"-8.9976","-10.18","-1.8901","0.29522","-0.29129","0.093693","0.60317","0.48218","-0.37457"
"-8.9918","-10.617","-2.952","0.015764","-0.14398","-0.41296","0.60301","0.48341","-0.38005"
"-9.2552","-10.987","-3.6597","0.56343","-0.057653","-0.63611","0.59978","0.49187","-0.38629"
"-8.3599","-8.6154","-3.7129","1.355","0.29782","-0.95817","0.59629","0.4909","-0.40127"
"-9.9614","-8.1324","-2.9916","1.1121","0.52978","-1.1163","0.58825","0.49642","-0.40828"
"-8.4023","-8.6554","-0.77767","1.3109","0.039788","-1.9492","0.5715","0.5117","-0.42678"
"-7.196","-9.5115","1.0558","1.0364","-0.060343","-2.2609","0.54153","0.53423","-0.44465"
"-6.634","-9.0714","0.48377","0.51912","-0.098481","-2.5803","0.50536","0.56602","-0.4581"
"-5.179","-8.3258","1.0781","0.70886","-0.29224","-2.7781","0.45811","0.60062","-0.47329"
"-4.0038","-4.6051","1.4965","0.80867","-0.32368","-2.4301","0.39855","0.62597","-0.50186"
"-0.89505","-0.34092","1.9938","0.16931","-0.21912","-1.8424","0.36142","0.64065","-0.5206"
"0.48543","0.95993","1.9908","-0.39128","0.14129","-1.0099","0.33744","0.65883","-0.51573"
"-0.46175","-0.91741","1.783","-0.84687","0.23232","0.2713","0.3342","0.67525","-0.49527"
"-0.88927","-1.214","1.7226","-0.99668","0.002577","1.1549","0.3464","0.68255","-0.46936"
"-2.0838","-2.8491","0.92108","-1.1055","-0.20958","1.8255","0.36832","0.68645","-0.43496"
"-4.0064","-4.7757","-0.97683","-0.86818","-0.27965","2.444","0.39729","0.67589","-0.41416"
"-7.6091","-8.7461","-1.5191","-0.82513","-0.23477","2.7391","0.43499","0.64842","-0.39543"
"-10.007","-9.3843","-1.6808","-0.77917","-0.11335","2.6305","0.47552","0.61862","-0.37842"
"-8.8117","-11.191","-1.531","-0.44368","-0.252","2.4221","0.51342","0.58137","-0.37305"
"-8.5887","-12.057","-1.806","-0.35992","0.057789","2.044","0.55331","0.53705","-0.37095"
"-9.7722","-12.082","-1.7439","-0.82157","0.091418","1.476","0.57985","0.50929","-0.36266"
"-8.7836","-12.251","-1.6231","-0.67923","-0.30331","0.87205","0.59512","0.4937","-0.35696"
"-9.1868","-11.525","-1.5831","-0.35762","-0.39004","0.29015","0.60357","0.48563","-0.35947"
"-10.132","-11.087","-3.7121","0.030242","-0.12898","-0.26946","0.60727","0.48476","-0.36173"
"-9.5073","-9.9131","-2.787","0.54622","-0.24437","-0.69331","0.59939","0.49305","-0.36971"
"-8.6886","-9.0083","-2.0161","1.1142","0.010147","-1.0018","0.58948","0.49719","-0.38778"
"-9.6239","-8.5491","-1.7468","0.85564","0.26718","-1.4576","0.58247","0.50355","-0.40049"
"-9.1982","-9.7117","-0.98821","0.47539","0.000531","-1.976","0.56046","0.53267","-0.40839"
"-8.0081","-10.345","-0.82787","0.53416","-0.18618","-2.4247","0.52085","0.57011","-0.42245"
"-6.4104","-8.8275","-1.2151","0.61075","-0.17516","-2.668","0.4752","0.60989","-0.44034"
"-5.8694","-8.25","-0.44242","0.60584","-0.25744","-2.7366","0.42196","0.64012","-0.46176"
"-4.8012","-5.7611","-0.10389","0.80964","-0.12349","-2.4293","0.3753","0.66291","-0.48362"
"-2.517","-1.7088","0.12493","0.36027","-0.12943","-2.0342","0.33258","0.67872","-0.50216"
"0.19949","0.9362","0.61126","0.14144","0.013862","-1.2995","0.29893","0.69495","-0.51139"
"2.3433","1.4618","1.2466","-0.089566","0.41414","-0.14135","0.28759","0.69969","-0.50905"
"1.3077","0.34594","1.3008","-0.4031","0.46581","0.89682","0.3018","0.70037","-0.49319"
"-1.0504","-3.1608","1.1021","-1.1503","0.40986","1.9469","0.32881","0.69934","-0.46292"
"-3.3824","-4.1257","0.28309","-1.2258","0.2139","2.6867","0.37352","0.68706","-0.42218"
"-7.3667","-7.5846","-0.73488","-1.1182","-0.14605","3.0622","0.42372","0.66326","-0.3849"
"-11.582","-11.069","-0.49425","-0.39793","0.049002","2.8133","0.4799","0.62036","-0.3601"
"-10.098","-10.082","-0.8251","0.39191","-0.21541","2.5547","0.52145","0.57018","-0.36541"
"-7.9561","-10.314","-1.2901","-0.22115","0.1794","2.2802","0.55145","0.52478","-0.37304"
"-10.039","-10.634","-0.93766","-0.83747","0.059998","1.8269","0.58092","0.49137","-0.36402"
"-10.567","-12.474","-1.6389","-1.0676","-0.10951","1.0614","0.6026","0.47355","-0.35117"
"-10.282","-13.251","0.097087","-0.46699","-0.54143","0.43471","0.61227","0.46244","-0.35211"
"-9.7569","-11.542","-2.4071","0.28212","-0.30703","-0.33653","0.61401","0.45571","-0.36589"
"-10.354","-10.178","-2.8842","0.38052","-0.37049","-0.75124","0.61133","0.46393","-0.3737"
"-8.7643","-9.411","-2.1082","0.62044","-0.23059","-1.117","0.59766","0.47685","-0.3906"
"-8.3782","-7.0828","-1.9011","0.47239","0.090396","-1.5146","0.58629","0.49555","-0.40062"
"-8.8236","-9.3755","-1.4815","0.15921","0.018831","-1.94","0.56435","0.52874","-0.40699"
"-8.038","-10.007","-1.3504","0.30545","-0.19439","-2.5237","0.52653","0.57324","-0.41169"
"-7.1768","-10.213","-1.2542","0.50199","-0.3192","-2.7352","0.47792","0.61348","-0.4245"
"-7.0184","-9.8649","-0.68285","0.93372","-0.050442","-2.5066","0.42806","0.64441","-0.44675"
"-5.5432","-5.8913","-0.3409","0.79597","-0.034441","-2.4654","0.38416","0.65884","-0.47435"
"-3.236","-1.796","0.39643","0.30434","-0.14417","-2.316","0.32866","0.68302","-0.50038"
"1.4453","2.0793","1.0388","-0.12237","0.10998","-1.5286","0.28623","0.70795","-0.50433"
