"AccX","AccY","AccZ","GyroX","GyroY","GyroZ","MagX","MagY","MagZ"
"0.031691633855089364","0.02656286450774232","-0.08235942083500637","0.02720988499769525","-0.06961471314730512","-0.30250842997305294","0.19206051974324076","0.03522043542653941","0.9955055521202524"
"0.04817317519955315","0.0064347024383092375","0.0403351451431285","0.006842724671836866","-0.15247544378781205","-0.2847193731597448","0.1609366268115674","0.08595942360306794","0.9654172664961953"
"0.05901644652922667","0.045204725837407325","-0.0008059171710668846","0.0185518778500226","-0.07438934077216247","-0.11098120287217096","0.17197070165574185","0.12227882933629283","0.9324852211227705"
"0.010086930839058096","0.06616812057498458","-0.06772710923314326","-0.006012870729349934","0.06618814164832437","-0.02380269006894381","0.1630264137138732","0.17648748831116426","0.9163705825430204"
"-0.0401433537701647","0.0432010399564844","-0.06519304482446492","-0.016899450649782804","0.013231897040576916","0.19846587163687326","0.14265795737273324","0.16578823729422085","0.9360154056392271"
"0.012987905489769021","-0.014421808277937301","-0.0042098657924064435","0.04176473344187573","0.0037417562281223463","0.14009204032302597","0.14187777026253925","0.11338697337399949","0.9499563657898629"
"-0.008639905190257292","-0.006387744610448195","-0.016004933967503212","0.04642347875351679","-0.009168645405727534","-0.014990675704807128","0.13549695425416572","0.1242973070250627","0.9452821399949252"
"0.0069115526784060705","0.025644638318662035","0.00783716314704139","-0.03335958055123496","0.03052801552783587","-0.012643636571908043","0.1297570062291661","0.12318912319593414","0.949809274768344"
"0.02198834061583792","0.018502417418078284","-0.04712208836485981","-0.02835713363259746","0.03095402240363768","0.02390086210560309","0.13432667358887457","0.11570888234931646","0.952081013878471"
"0.017137656815545327","0.04305458080189127","-0.10115115030082886","0.041364229608512916","0.14058617390211672","0.11878885605191837","0.11320589396290458","0.1124634868497257","0.9752887083848051"
"0.006653517097128086","0.05032664137853276","0.012730778156302454","-0.06115416148677476","0.00932483959818111","0.2935584518709596","0.09110988044919201","0.06878257425157545","0.9990193931898733"
"0.05016909967712491","0.04441530060697631","0.06048168003037968","0.024957050935029392","0.08532015830652472","0.4422536102545052","0.10373219333911872","0.0003786081321525859","1.0178143570506366"
"0.010912067007547736","-0.010743709934573853","0.021103516965775032","0.019658077139767496","0.12786819335149416","0.38769726684888894","0.07391790019955685","-0.06089076495402362","1.075800906422801"
"-0.018248842134862303","-0.10569390695948097","-0.04146123217562808","0.024699034042382197","-0.09875310479273784","0.0277904284568567","0.08015939708111001","-0.10133551691782587","1.114306067167113"
"-0.20650890634113675","0.08404340845720473","-0.11893503670924711","-0.09511900460506047","-0.1020343150552338","-0.08451603717651947","0.11326162161363279","-0.0587007826250315","1.1284594921266096"
"-0.0888716402197098","-0.05944189819549125","-0.10270835043460512","-0.0039035826319590732","-0.010781488291136744","-0.2643092820547078","0.15073846672831542","-0.07570744660276496","1.1063794954519215"
"-0.040692160790046956","0.0514910435934185","-0.0075954336694613765","0.04634645878556239","-0.12741523032421237","-0.4624400594405845","0.17888093034603259","0.01274936975803162","1.037034250529122"
"0.008832377247993935","0.04805808255845206","0.02212622983878034","0.0023500536660974658","-0.09948784698864321","-0.22437491235989393","0.21114724011763317","0.05094609166845882","0.9649759934316382"
"0.0749771026144689","0.02691498970921089","-0.08746678944353248","0.21742898810344577","-0.15590264517066704","-0.03586430157810363","0.2560915904298883","0.1142972672336408","0.8683371922936433"
"0.12369190959335019","0.09474427519917882","-0.09016400877338897","0.04024647732357486","0.007853201239020816","0.08117944084921219","0.2725033835693292","0.15750324390502168","0.8172802643797081"
"0.08762488993828857","-0.005212020375810216","0.02842607504842371","-0.2554062226645369","0.05006689268539749","-0.0011858337032872545","0.25667673076253406","0.10395421816177433","0.8499181277100949"
"0.08538614242490224","-0.016825400361118042","0.10148932705459901","-0.10715241184833418","0.021653670047649873","0.025396550470410978","0.246060613298821","0.04182864114095002","0.8878185809214953"
"0.020865693273412124","-0.007533034425018245","-0.003885414677000276","0.14960327882361277","0.0955467166228232","0.08682194522723967","0.23513799375610295","0.05956090167347003","0.9360971228734043"
"-0.10202375231022126","0.11777575629700367","-0.16594637178238897","0.1939860353573289","-0.012581008346841126","0.2710612408669532","0.24285627338195226","0.09139480143165078","0.9799465907329074"
"-0.05394055481387112","0.00480846568927318","-0.09855306307497935","-0.20924237937187556","0.18862682568846342","0.2136144790896249","0.22661166319469572","0.032410397859820604","1.0314938220519054"
"-0.10296731525668548","-0.13186958565271983","-0.02599662395053973","0.007334785992105464","0.04754914418346771","-0.19436164283599464","0.20028034822564333","0.006963067050224701","1.0520702216177327"
"-0.034973013951274036","-0.007862307843500652","-0.03511058176268114","-0.0036532677361073122","-0.08633428637399859","-0.19649487352342954","0.19537631496156593","0.06535248144712995","1.0190728024569662"
"0.013914137688236957","0.02421744059943544","-0.04035632226638365","0.03461535491650966","0.09068114370987332","-0.3394698672536373","0.1899428690155713","0.11933686512324922","0.9763020020886026"
"0.05756547779420465","0.021485613815180746","0.014367490498500975","0.014072203963875502","-0.12330354598360838","-0.22707118004332985","0.15603259354749","0.12532633486639636","0.9401176107949242"
"0.06594200599240742","0.0249102651108795","-0.004492185763609644","0.0035482918175478583","-0.07401359313451707","-0.11151511726493055","0.16018430352673765","0.15557711486867917","0.9150794502430202"
"0.03300106814814174","0.02731177975924332","-0.06557098597099152","-0.02699484294940422","0.03182278923462675","-0.04438266302622253","0.15190874739360688","0.20436358867960028","0.911532922279728"
"-0.09343540385873059","0.08246975158338503","-0.029148198757094863","-0.04581178387026066","-0.04096934069521606","0.22424180238914418","0.12855886173851072","0.19465378751009305","0.9325832818037831"
"0.01811202998066961","-0.03255365936004753","-0.002090504018823955","-0.007523039751015598","0.028295069375458975","0.18577812415802264","0.14346600830829181","0.14508894648585544","0.9380093061531514"
"-0.011971260082875848","-0.046207599694278685","-0.015907867115663048","0.1383776184942607","-0.03516320203962511","-0.05967202972797441","0.13691800934773363","0.13673798977349388","0.9384996095582149"
"0.009896292611098999","0.031126988800523732","-0.0002582122964283368","0.04020411634119995","-0.04309219518305991","-0.07437651748129419","0.13808829001302478","0.18333448125542282","0.9112060533430192"
"0.02052870650681776","0.0769718203403964","-0.07225827248712881","-0.034153848970764594","0.04424400095042109","-0.02006795889159048","0.14196136173863141","0.21155359090430337","0.9031650774999797"
"0.010929397755544011","0.04586742754400599","-0.043629746950780694","-0.0008999001566978814","0.03213870444589552","0.14676111646531392","0.12997991683207863","0.19072237344961313","0.9294453400113776"
"0.02955417493554796","0.03531405867403349","-0.024986715640968656","0.029168117682935563","0.06513269764704012","0.18634844180483404","0.14435765071994222","0.17066952320823942","0.9407223183278357"
"0.029620609469533706","0.08296937465685518","-0.016409723392198365","-0.023605964359411143","0.07464605344092883","0.2778565149566207","0.14455269749749047","0.11254264283752059","0.9884615265341749"
"0.022395613193750538","-0.02784515334748992","-0.010283152839350529","-0.0665773299803631","0.06812431896587304","0.3385286050429377","0.1565620062294075","0.03003307969304722","1.0412672032595025"
"-0.012163823949501213","-0.0576729624488807","-0.046725559948831895","0.038375854851882656","0.044488117250037845","0.17892945862907922","0.14536074843304903","0.011328519777113239","1.085394509715208"
"-0.10626978556931024","0.0053236902982184316","-0.005053521302549149","-0.11553796085936818","-0.05215561113059615","-0.060793249952769544","0.15185301974287868","-0.012037008553476888","1.1191764143240759"
"-0.10662602872256714","-0.0854544982556016","-0.14184281374352595","0.04164824074034472","-0.1165185488324953","-0.3019987844163279","0.20228654365185667","-0.0038285326191461566","1.1035520791493891"
"-0.06275035171198091","0.03815391206876822","-0.11883796985740694","0.06051331914117266","-0.07375033045845977","-0.4707400013643927","0.21766737525282706","0.0833076980119389","1.035971926484818"
"-0.02533519242667521","0.0504180485104774","0.09006435206779495","-0.07394525266479976","-0.1346358075393475","-0.26481892761143283","0.21343207379748724","0.10997007323418649","0.965074054112651"
"0.07548547122235981","0.024761728521469455","-0.025463788891502227","0.11479988080422365","-0.17937131609264761","-0.056582606900779146","0.2565374116357137","0.1519755174240114","0.8811994849531395"
"0.12160066600179888","0.07999968158606272","-0.08711569657517443","0.03299986108866637","-0.024343824042786698","0.10789214867241585","0.2622773596607133","0.17200198233612018","0.8411253533126247"
"0.07981526976343083","-0.0031006194996297935","0.005469145012574736","-0.11555721585135678","-0.0031851634383561703","0.016480422799686176","0.26158076402661146","0.13607835654186975","0.853105099843007"
"0.09225364388229544","-0.006114354188541035","0.056524656878767864","-0.18288229533948624","0.04136725789023134","0.03863131751347981","0.26013184510767956","0.0649303161788905","0.8876878333468119"
"0.032047877008346264","0.003135060782718869","0.0176520675445988","-0.10418714308209025","0.07510795977255663","0.030389620796154516","0.2491813617395976","0.02262275996898167","0.9465405854012546"
"-0.08175640534790307","0.06498813759897192","-0.14171063760485","0.13690461160713302","0.004194328701235391","0.30241657702356184","0.2480946725503986","0.032046280315964085","0.9957670472696196"
"-0.04693123006870833","0.031579869590613104","-0.07521571359000362","-0.07978529173494123","0.1195036201440373","0.2994072413552805","0.2236302338807395","-0.01339849154354911","1.039191585511401"
"-0.10594242699604715","-0.10942290245585903","-0.007419061134415631","-0.027577306457059282","0.13120444944625664","-0.038589691864780985","0.18091498959761018","-0.06884066466155771","1.067498435430394"
"-0.040133725576833444","-0.054586933028340515","-0.01818170975132307","-0.038942565478328674","-0.09419866049694661","-0.19395635327421806","0.18066421516933373","-0.03979305567375728","1.0555023454531764"
"0.00827201639611417","-0.0021273412879010303","-0.04750829052005365","0.11803471945830794","-0.06916955989506278","-0.22353763751670275","0.21502031184323978","0.022807457273836446","0.997434078846835"
"0.044924622769583485","0.018369461589795164","0.022822426344212676","0.05850887447515971","-0.10649063417176732","-0.2785308199709405","0.1933422557099883","0.09619693135787451","0.9545815612442944"
"0.05115117539691421","0.058165841660194416","0.04020296900445253","-0.010607882017508726","-0.055680937692708876","-0.14328787740133303","0.18810385654154196","0.1398514586267598","0.9211755559126416"
"-0.04379243904271512","0.08121394223655463","-0.07503397139932416","-0.12039984633648892","0.056935655233437896","0.11587416884417169","0.16957441267443135","0.1314873092497658","0.9353453243189738"
"0.012367849839235383","0.00968806923335263","-0.06440205324457592","-0.0005705435187329297","0.059003463889015215","0.09411230357201152","0.15971061849554835","0.10372994286302212","0.9451350489734062"
"-0.004528666637806052","-0.009267692497149548","-0.011787689042873077","0.12445625928650504","-0.04018194596409923","0.09424335528659797","0.15617191267431035","0.11471943250188026","0.9377968413442909"
"0.010562563589622717","0.02489780050197796","-0.0031536958342987783","0.05553590371212033","-0.06671882371067483","0.01325145416529239","0.1702710083085332","0.131328997274176","0.9126442766645385"
"0.006856671976417836","0.04392502599018231","-0.020397725326312365","-0.08820068598355756","0.044555129567579704","-0.04479280635520603","0.16358369022115465","0.11824187395875312","0.9197209891442869"
"0.009783642749123175","0.03965693615881253","-0.059154247488706596","-0.012269587826124648","0.0809476045869185","0.013894821008567693","0.14505424635404404","0.10291199765580822","0.9421932285430259"
"0.014300228240820775","0.03107505293010064","-0.04391062124546713","0.06011185255821041","0.06513987753820531","0.11483546266189394","0.13312852909821918","0.12834745506723488","0.9464752116139128"
"0.01357907656030884","0.0687825722920831","-0.010556798751453121","0.04944940074452481","0.054298241878754795","0.18305516075494874","0.12554956859919056","0.12507567423837918","0.9564610576303707"
"0.04964917723723647","0.15111858510862938","0.06364358109776887","-0.2114663309465585","-0.06982532328815096","0.4009723201597752","0.15564249999239316","0.034734945368064055","0.997908038805063"
"0.05322797669846862","-0.0677848764202569","0.0019842385062961458","-0.08225378170787936","0.13483986767290243","0.4743855491642187","0.17328030144785336","-0.13330530112172123","1.059620894055709"
"-0.06680382110444455","-0.040546589818161546","-0.08195876191464484","0.12040308347290538","0.0743564644972658","0.19770625706899259","0.13011923595889902","-0.18257990352404416","1.1392788539316752"
"-0.04022037931681485","-0.0017449894098462194","-0.06881136662071957","0.0698192567692616","-0.029075611650358362","0.08578081216135847","0.15246602390088834","-0.16843340923863295","1.177228337483582"
"-0.10507588959623308","-0.0452239343084653","-0.12109529047573246","-0.013712749475669998","-0.10527962586190376","-0.08927272903928672","0.16915645529396994","-0.16387798214103666","1.1840435548139632"
"-0.09295399419216722","-0.024214836004915717","-0.1227867320003515","0.01335688101149912","-0.05749505686044916","-0.48158817107182617","0.19376021309044972","-0.10873000544433244","1.1414361889139542"
"-0.05044552063462099","0.053692085781949186","0.03444091545904702","0.024556547101666583","-0.07581574581698201","-0.4401612679608889","0.2057416579970025","-0.02601859453098207","1.0663380507050775"
"0.009707580021806167","0.07522573637677202","0.029548952651519397","0.07511245406692692","-0.14315833835243877","-0.25940697717573336","0.22831135654190438","0.04077058943742489","0.9830845325253129"
"0.11028657601822638","0.0427678947971558","-0.0748171199218089","0.03429379655030009","-0.09174313771844853","-0.07969381945645901","0.27027427754020333","0.07849237542108271","0.8919534729708634"
"0.1068724186629589","0.037587811081156504","-0.06317735870965639","-0.08996059225131531","0.06040354266622903","-0.02876081327079763","0.25400180352758284","0.07011503337945618","0.8838798102341527"
"0.08013492578202892","-0.0018486534072107129","0.04065319397681755","-0.13847065631778724","0.024458614196187622","-0.04990139634047393","0.2352215852321954","0.038865568664494386","0.9115002353860574"
"0.07604775771290584","0.018236505761512048","0.07560552164794405","-0.0476256041155865","0.03481201725640463","0.00491486629907209","0.23065191787248665","0.008460434486011503","0.9416212079037851"
"-0.012029029242863455","-0.04601647569112171","0.0009840368819090885","0.050730820461365934","-0.004423216004941989","0.1791236093173554","0.22892436069991404","0.005100262804118147","0.9921388020721504"
"-0.06167199405887897","0.08813595504654448","-0.2180650754640569","0.08901552103229339","0.044260754029806545","0.21750720038956298","0.23352189188498645","0.014831172237037386","1.041071081897477"
"-0.06913384389061131","-0.0009816359863675983","0.06567165872557827","-0.3034378001800922","0.13189611229517081","0.26856155075539695","0.15455581080319417","-0.07458607010900392","1.102048482040528"
"-0.08805324378655205","-0.11902065131004662","-0.0012045108392616027","0.016090127124280467","-0.015401987585647824","-0.12169346709781108","0.13800469853693262","-0.11692396944756743","1.113178369335467"
"-0.031035082878785602","-0.010385352428654512","-0.12727659021100082","0.1887679325284191","-0.17382126022194874","-0.13159272531629454","0.19183760914032824","-0.037926293628260964","1.074705895484826"
"0.04057267938385055","0.035833417378264426","-0.0675804763292996","0.0740091430259803","0.05229983883777439","-0.30542069029719615","0.20342896049178416","0.059178314399128046","1.0229298559101316"
"0.0561819064125015","0.03899215701739694","0.018304687229311396","-0.055530741076505005","-0.015644428577326046","-0.23134734895261347","0.166983076915572","0.06994352873923393","0.9961919768873411"
"0.02944633917023777","0.08810063865465678","-0.01487317578009023","-0.13733461179046","0.022575089413850412","0.0004219766840001455","0.15714714656205292","0.05044477041242447","0.9993789490202531"
"-0.011114350876393033","0.010676512719244937","-0.026368369340565887","-0.16093160447248567","0.05480801415148392","0.173760196553725","0.15034837317321859","0.007967028828756651","1.0188603376481054"
"-0.009121314856820677","-0.036614005709724944","-0.05624017668133484","0.11038086014284064","-0.01147506577769497","0.07587427329206464","0.14647530144761198","-0.009019846152028096","1.0266561617886134"
"-0.017276394608404272","-0.005815619061867404","-0.012343241875745512","0.19024093941554676","-0.08963942960704523","-0.08723414681238648","0.15190874739360688","0.06683005988596802","1.002598608046836"
"0.009713356937804915","0.0350387985607911","-0.011424204661514167","-0.010662758744676228","-0.05354133012547956","-0.16157929912055585","0.1642802858552568","0.0679910143736265","0.9838199876329081"
"0.020976417496721706","0.046854209082044754","-0.05094073962129522","-0.03640572028383102","0.015724994582839526","-0.11459968632491889","0.16467037941035365","0.07128918053174717","0.9855197061037946"
"0.029261477858277426","0.08277617321888127","-0.0765374749767633","0.04429195114037909","0.060329350457521976","0.03385521058188494","0.1554195893894803","0.12101233353157448","0.9791621052848059"
"0.016508935791013552","0.07830864964508681","-0.05228521878188984","-0.03473246148002193","0.08155071544479524","0.3048919982990836","0.14435765071994222","0.09745023449796036","1.0065373787341787"
"0.030223334372071056","0.056689824222770115","0.032332292996731946","-0.08331184351765278","0.031906554631554084","0.3884010630938903","0.14026166839142307","0.003654346760398042","1.0470527834392507"
"0.02995952187479433","0.009151779435363772","0.04172092934705936","-0.11085899780613911","0.07873141151392708","0.3533811326960681","0.12056194385902098","-0.13124196837320093","1.107654284305086"
"-0.0179214835615992","-0.050770685269651644","-0.009950440715277111","0.06421797959977874","-0.011033263141329724","0.3649330986485029","0.08394887733062449","-0.20044804850227874","1.1627153566937054"
"-0.052775543420787725","-0.008442950874830832","-0.13209069301183962","0.08768307558668248","-0.09306423769284515","0.07520688030111516","0.11281580040780774","-0.1924783597977959","1.187263213840546"
"-0.10107056117042577","-0.04293044627058152","-0.12960412940299795","0.014002885992716551","-0.13996807337803535","-0.08993769514663276","0.14719976090707776","-0.18496249875667053","1.1924277430405472"
"-0.10304434080333565","-0.06461678832444823","-0.11910645263909252","0.08328716091568578","-0.09269806324342","-0.32524832933740455","0.20072616943146868","-0.12387122664303284","1.141468875807625"
"-0.057657037439740384","0.056865367464800164","0.02978439139853597","0.16722159649317903","-0.17343833269313813","-0.3183317110675644","0.24018134614700073","0.005114774735213874","1.0504195334873525"
"0.020394874619513143","0.0588254272145677","-0.003113423417045944","0.1021300960757268","-0.17793294456255274","-0.23963515645840436","0.28150339916192607","0.0901019202976675","0.9438275732265705"
"0.05090950774429939","0.10349027577842768","0.043352478558840855","-0.1651388202219941","-0.02570800336417451","-0.13686877027020067","0.2996427494739398","0.005092347205338649","1.0253813729354484"
"-0.00545297319760772","0.05303561637980129","0.03080772384719132","-0.22895949116819891","0.03218657038699684","0.13058108348109493","0.2943486226547653","0.006770454146590462","1.0147417890455728"
"0.01129045500546654","0.02143056179253227","-0.055476033379614396","0.05694825737448392","-0.02624122994804329","0.19253699499363838","0.3013145789957845","-0.03719673927408467","1.019252580372156"
"0.0011972199362987736","-0.0012946015415371572","-0.04811340940492957","0.1809118957970715","0.004627994127613413","0.137218610136538","0.2896117723428725","-0.09403865410959969","1.0476738344189975"
"-0.013723591269166564","0.030867309448408268","-0.0007972431119662724","-0.03602254594325793","-0.0025569229614012547","-0.0033724558299981187","0.2879399428210278","-0.0738420038237319","1.0437840940721612"
"-0.007436381023848848","0.005085616268198973","-0.025259328926987838","-0.10776857159196929","0.01524250589653815","-0.04708863824407227","0.28228358627212036","-0.10750176836704829","1.0445685795202626"
"0.011022791230857311","0.019847556462036394","-0.04432780218316315","-0.016141766715031508","-0.03882015993976649","-0.10865382149645982","0.2968006392868043","-0.03635108947114253","1.014088051172155"
"0.016134399070427245","0.05177253601111167","-0.028838410932073056","0.054304546974449544","-0.0009187111272083436","-0.048255969257333005","0.29041982327843047","-0.013265245630761039","1.008809117844306"
"0.024278887809346467","0.0824510546700327","-0.0070179891636207355","0.06875638121149104","-0.008343197251435152","0.06962504801317398","0.2820606756692075","-0.056374915850324794","1.0210993898645615"
"0.028444044244452817","0.055502570224898205","0.0006564878882527036","-0.019028090014122204","0.020205725329334737","0.23457547277264568","0.28866440228049356","-0.07530111253208449","1.0314121048177283"
"0.03512119631968686","0.0526949170698258","-0.02136013283604676","0.07979911911695142","0.030824784362664087","0.35241037925468705","0.28754984926593063","-0.11717726860851112","1.0619743504000132"
"0.03683886600998499","0.04957045510517253","0.023651418563971013","-0.08400694872844112","0.08319012392751567","0.3895902360595821","0.2760420893905672","-0.15545710430612295","1.0964426797759699"
"0.034973884961718466","0.013701569427908414","0.0013382276285173486","-0.038311001741102683","0.08384588732060386","0.324768175011361","0.23477576402637007","-0.24901552408030062","1.1607377996266164"
"-0.02241784984730115","-0.005589698025526949","-0.09110989426578885","0.04066238515052855","0.011289257820979566","0.23208063642829632","0.18308836797600817","-0.3463378110741256","1.2365387060494173"
"-0.10415158303643139","-0.011918499323544215","-0.0997302568100622","0.030032666823223572","-0.025548370450601585","-0.004992643323663127","0.14109758315234525","-0.34960959190298124","1.2879388463468966"
"-0.10470039005631364","-0.012023409781798866","-0.01392109453118989","-0.001272002876877519","-0.10222577881963911","-0.24705413963415926","0.17202642930647005","-0.3205065737237244","1.2737690779405644"
"-0.10002108809731759","-0.043489276236333994","-0.07949904658397172","0.00872441876392251","-0.1692668159261575","-0.4601345200173045","0.28663034302891627","-0.238778016325494","1.201612760162068"
"-0.0524578130408559","0.06517822288472043","-0.09829077604979423","0.15869163504223055","-0.10547108962630908","-0.5838327772852875","0.36740757275937364","-0.08752411631407973","1.0968185790531852"
"0.013704243073615317","0.07547191240257747","-0.043092781387409566","0.04460677025939266","-0.16447782851896975","-0.2929950462475185","0.39373888772842575","-0.007199258432745491","0.984473725506326"
"0.11166051920659825","0.058579251188762234","-0.033877626219094376","0.05629166214767277","-0.12935140764176106","-0.10253807481575906","0.3953828534249062","0.04686032343177892","0.8902210676063059"
"0.10030859042323388","0.08657060791199245","-0.03334272590789006","-0.15834180805001938","0.1632770232812007","-0.05732037951622876","0.358463284817505","0.026128050961832332","0.8810850808252914"
"0.08280193533479002","-0.006548330321796398","-0.013598915193167214","-0.08438819756981535","0.013683751524573441","-0.007816807773001009","0.2945158056069496","0.0007704302717373115","0.8935061004202308"
"0.09762396127667654","0.000904778699139986","0.02854503357323208","-0.08124096912927917","-0.02357007110488375","-0.02773424150653715","0.2966055925092554","-0.022725705438714387","0.9022498444771946"
"0.09806637676024829","-0.022079233013118132","0.06951715826018223","0.021333261442775434","0.031727057352424114","-0.027838597501485613","0.3331072037361955","-0.0592258506774043","0.9394802163683416"
"-0.009159827630145726","0.032584309324595724","-0.030042452945324462","0.1590959898739911","0.05628228513740478","0.19793438412771713","0.3319647868962686","-0.01437079092696309","1.020641773353169"
