"AccX","AccY","AccZ","GyroX","GyroY","GyroZ","MagX","MagY","MagZ"
"0.010429694521651227","-0.07570405794237013","0.05477125778914447","0.03105510689781807","0.1458562140173728","-0.049095670984127635","0.19465185550210015","-0.38755169538600154","-0.5104286696382944"
"-0.03260447839178222","-0.05885086799007645","0.03571930655030365","0.050982098106817135","-0.04416678556078469","-0.11654604697488792","0.2188376559181182","-0.39201081603178073","-0.47761102839271785"
"0.01998375076426802","0.010165983112985933","-0.009052675598363934","0.040624837916150784","-0.09480655794893345","-0.15986106552931137","0.22382528065828808","-0.3761268478142715","-0.49212400918259436"
"-0.008283662037000384","0.01718740117896557","-0.03842118098608079","0.05076162844854769","0.008812195368985901","-0.014035697006848499","0.22856213097018085","-0.36821124903478186","-0.49284312084335397"
"-0.012009772856200931","0.025515837360012766","0.0009766019741085648","0.023743023690148354","-0.018990257860308793","0.03449590785319645","0.2318221985377778","-0.37814532550304136","-0.48586446904461833"
"0.00038074914180728976","0.002097122412313355","0.04742102532746051","0.03791758604255405","0.004968560298549353","0.06277395560062707","0.22544138252940427","-0.3917865407330285","-0.4823179410813264"
"0.00792251297818915","-0.011559103100216414","0.026642729802381533","0.03947338939523269","-0.036273691873175896","0.060652859331209424","0.21329275467066686","-0.4098341059502648","-0.4739664397484132"
"0.005269945715424948","0.006815288496769663","-0.002662578869030884","0.01118395516558595","-0.030507281948699044","0.027950602774684575","0.2012555821133859","-0.41995287972337914","-0.4750124203458817"
"-0.0019579390183576038","-0.009299892736811867","0.005627136803335856","-0.054832747616918365","-0.009003029249516943","0.026846370735113607","0.19534845113620197","-0.41679983287621575","-0.47267530744841296"
"0.006667959387124988","-0.031267727208371746","0.03173543512052328","-0.06531901625390829","-0.03931078583605509","0.010828938952325924","0.19077878377649352","-0.4083565275114268","-0.4848838622344915"
"0.018566480705905438","-0.08506394051001996","0.0597980815631649","-0.042022401446904764","-0.019596480004357097","-0.07047894241414918","0.18793667358935734","-0.39672059730557707","-0.4967165177433548"
"0.031120681990545195","-0.0868765023877859","0.08399870645386807","-0.05306802760116344","-0.06654650632271007","-0.2618338607791861","0.19637941267467274","-0.3598339069931553","-0.5166718663294348"
"0.05164606453414136","-0.04031391711866609","0.017583914223094004","-0.1263015013809939","-0.18593612991469458","-0.35818113983625743","0.2032896413649638","-0.2937914278429469","-0.5573997358433677"
"0.052085110150047166","-0.026914462549508092","-0.015182963605112029","-0.048112755412898","-0.07835503399240741","-0.35665220316608226","0.2012555821133859","-0.22261700215070268","-0.5940254002016031"
"-0.009304250530114744","0.052005208710607126","-0.026240323706223548","0.036226997745955225","0.08691170084814384","-0.3040616354792627","0.2117881081010071","-0.1701656061048779","-0.6048447620066688"
"-0.12210816359924537","0.04178942299838473","-0.025754989447022723","-0.03145526184356272","-0.009110966946700435","-8.281510551801192e-05","0.2066333004086529","-0.15473414628426288","-0.6086364416724923"
"-0.08699414252011262","0.04532106218715505","-0.06132895802035964","0.009270682886639006","0.052898163101540975","0.014823103986888343","0.21003268710307021","-0.13652563055851027","-0.6209267136927481"
"-0.13654082540281545","0.0450229502909265","-0.05834466863931628","0.07629567332462621","-0.00027970081350563034","0.2659405164636681","0.21538254157297268","-0.1648819439195686","-0.615582406577557"
"-0.08856353803310923","0.03659168108644158","0.010447641885891775","0.12844204262814465","0.06692767043833989","0.5315871956975983","0.22101103429651647","-0.23715531857569866","-0.5880927290003362"
"-0.04771111372854101","-0.05158919458751958","0.09691066300077678","0.060402602937238224","0.027012262153943412","0.36544274420522793","0.21646923076217198","-0.3212453629431435","-0.5553077746484304"
"0.06121745152475443","-0.01239423189661975","0.04013894618728135","-0.04607172626210672","-0.0005702470759906843","0.11350553044720188","0.22298936589736557","-0.34945127992739144","-0.5197607777813343"
"0.14314374858051002","-0.0752501384348723","-0.05456319192188349","-0.10113522685189762","0.0042824020328618324","0.22362294707026373","0.2095032744211527","-0.37351470021704","-0.5180120289699416"
"0.0521082178140422","-0.030288216692192216","0.05035574865650038","0.03698853267910424","0.08811552926684221","0.0351293244736976","0.2190048388703025","-0.38584984164841124","-0.4955561330180381"
"0.09356856624554666","-0.060010076617919884","-0.020028045188453015","0.039922030708567","0.06575974147546751","-0.04232223884689121","0.22443828481629743","-0.37980760124673424","-0.4937093235256327"
"0.0969027133142313","0.02519591239820651","0.04703069266793304","0.032084286219608585","0.010414507747352817","0.028802438919496468","0.23641972972285052","-0.3861532729349584","-0.48811986470790986"
"0.0930463330392587","-0.0004098220530093443","0.06032885137003559","-0.04512052965787002","-0.008270201691255629","-0.0019456909595282881","0.22128967255015722","-0.39115329283066935","-0.5046267460117108"
"-0.023669514980365937","-0.12040214546330089","0.0691846526613255","-0.06127354243710406","0.006707769268466063","-0.20795704478253657","0.20395837317370138","-0.38230101486227347","-0.5388662671319713"
"-0.11895011618658961","-0.003773604508572233","-0.06645284864622024","0.09243617035906765","-0.08381893116912387","-0.2638967118421208","0.2135713929243079","-0.34181272710518396","-0.5691506741180536"
"-0.15458405970561076","0.1506407751007369","0.018538886825027877","-0.022907008150225075","0.09344540180847496","-0.06458161525775917","0.2367819594525834","-0.316258535712065","-0.5613221630838747"
"-0.053122158380713366","0.06950967447800639","-0.016473746209369537","-0.15244015300551436","0.024863081398493834","0.11642749830575891","0.23608536381848158","-0.2990553010313075","-0.5751323756598271"
"-0.05639574411334435","0.012310311331014597","-0.03895608129728511","0.008615628059186937","-0.0883039698503182","0.29979554273183295","0.22042589396387074","-0.31991290381526266","-0.5787279339636253"
"0.02485272813189002","-0.012358915504732046","-0.0082257486307724","0.12209752276790192","0.09857902399159227","0.24875818055122312","0.21504817566860374","-0.3815490329782219","-0.5420368958180478"
"0.049251532852655114","-0.012979029797583778","0.05404635427859345","0.056941518127287906","0.034802444068184356","0.189634442203909","0.2066890280593808","-0.4274199279053643","-0.5086962642737369"
"0.03697654917462212","-0.018393863647895452","0.03598778933198921","0.013599493910555446","-0.017144786501147136","0.09574316935353172","0.1832555509281928","-0.45253876136561144","-0.5062447472484201"
"0.052097626801377805","-0.016210479655308623","-0.017717028013790367","0.0237670924301341","0.08424078133468979","-0.047806995790694265","0.18066421516933373","-0.4627630764557855","-0.4973865990636081"
"-0.021368376774192968","-0.04877634784540487","-0.038445964012082535","-0.011742963795236521","0.13154669092513113","-0.09469681389300347","0.20309459458741522","-0.4555730742310824","-0.4765977346889201"
"-0.0279251764327862","-0.008729636879566308","0.016444101552230455","-0.007841709868426878","-0.23505376537582118","-0.11054921759075637","0.2168035966665406","-0.42926690095391196","-0.48782568266487186"
"0.007961025751514233","0.06682147382490711","0.009819495439355902","0.08693020539992834","-0.0145569143955039","0.030144505552205797","0.22167976610525406","-0.4305861674171602","-0.4893946535610747"
"-0.00795630346373728","0.03916250667238468","-0.010032637751516233","0.014737463937081526","0.050748982346091404","0.06218664976859153","0.21421226090768153","-0.4489767419148411","-0.47800327111676844"
"-0.0021793874649767542","-0.0027006094256311302","-0.0004839443582608897","-0.0523507791495882","0.018652475540596677","0.05621408922049447","0.20632679832964793","-0.4500189624208072","-0.4781340186914521"
"0.012167583417945023","-0.004851169948110567","-0.009847797682586559","-0.019925372640790827","0.007143588662193646","0.07091857697381426","0.20273236485768203","-0.457776249224707","-0.4740481569825904"
"0.015756973891841563","-0.013545130785195491","-0.017477458762440175","-0.04401047936972741","0.01550792253994501","0.029605737392239304","0.18997073284093496","-0.4645836641750681","-0.46845869816486774"
"-0.004451641091155902","-0.03680928458251577","0.03472798551023388","0.028721401868800112","0.05027032293507813","0.023722243472388972","0.19417817047091082","-0.465454380040812","-0.4604013788749926"
"-0.0013898756118128253","-0.0167339932291734","0.03648964560852453","0.02510627712294102","0.011150207262080212","-0.07359748784458588","0.20493360706144395","-0.46866019754650523","-0.4494512694952434"
"0.030314802208718097","-0.038337237890363175","0.05356515052372625","-0.07862710396682712","-0.12802791437030936","-0.23754803655943504","0.21524322244615232","-0.4372352703919315","-0.47594399681550226"
"0.02579629107835424","-0.07223785795033291","0.06525034728354862","-0.11166770746966018","-0.16774467899913534","-0.3428917731345056","0.22622156963959855","-0.3751769759607328","-0.5194665957382962"
"0.025776071872358572","-0.07293379861400234","0.019896583599490095","0.0077091993113237315","-0.08837337546491512","-0.4093883838691089","0.24625566007636956","-0.3064695785547628","-0.5462044747610867"
"0.02737916606201463","0.10365439312896467","-0.07905295211594035","0.1382813435343177","-0.059213444145986796","-0.3013192570073612","0.2534723908456653","-0.26913433764483674","-0.555291431201595"
"-0.0070127405172730715","0.11918841197251179","-0.12494905101900369","-0.20055837798501833","-0.020428150730992647","-0.03277002498370146","0.23898320165634562","-0.22524234241256674","-0.5823071488205881"
"-0.21730211106548764","-0.01301953977651379","-0.0012383809747973191","-0.024384828785349894","-0.06974634448533377","-0.15085490047689848","0.23600177234238912","-0.19175408250947265","-0.5994514245509714"
"-0.12847239939121322","0.08888071542841162","-0.05485439247740398","0.08452044315255541","0.08630858999026712","0.24045581174381153","0.23747855508668525","-0.22082279976068506","-0.5908057411750203"
"-0.09251109729892892","0.024774193130370995","-0.056671814384198556","0.09706603318272579","-0.006904347061929268","0.49622750159529283","0.22329586797637055","-0.30231388919553076","-0.556974806225646"
"-0.04264668403629426","-0.06981868510602522","0.03285893229926901","0.14955514134364128","0.1075993605921373","0.2990917464868317","0.22689030144833644","-0.3775912335884771","-0.5087126077205725"
"0.07682475291473913","-0.04332515888579703","0.0660206863417695","0.007096698016166462","-0.027171983172758592","0.10495319262863463","0.24734234926556856","-0.4047681227313915","-0.4672819699927156"
"0.12488773120509362","-0.07964910665970827","0.11353387769144668","0.23286186418230628","-0.12430873074673623","0.00975989672500502","0.24642284302855388","-0.4246758536618079","-0.44966373430410433"
"0.07665722235077507","0.012150141106629778","-0.024387792512593168","0.14813989943247938","-0.01817198959718161","-0.12333404041374509","0.2574011902219998","-0.43826429823326507","-0.41563667799270465"
"0.0902016833195357","0.044707180198754096","-0.0032071858654192115","-0.12930528013121506","-0.006355085387791542","-0.07430128408958715","0.28066748440100386","-0.4197813750831568","-0.4030358804825754"
"0.10363243532505406","0.0008237587412799612","0.030362662005243332","-0.1851736393861293","-0.04877148909473234","-0.00849682055868845","0.2713609667294023","-0.3950451288972517","-0.44757177310916707"
"0.11321739806826422","-0.009273924801600322","0.053947222174586466","-0.1115136675337514","-0.04015801299354857","0.027448237868769872","0.24879126818450042","-0.38548044703870177","-0.4926306560344931"
"0.0033279391205082768","-0.12842104385662648","0.005211814592589958","-0.01699091186172864","0.0662790869364169","-0.10715886119673297","0.23012250519056915","-0.3773669582897249","-0.5145308747939913"
"-0.14975070665331452","-0.05459628148501667","-0.06688448634908396","0.07148481357627523","-0.09321262211025926","-0.3490317886512408","0.22789339916144327","-0.34785496750686107","-0.5412197234762756"
"-0.13739773460929822","0.09949744606030028","-0.06653545873289272","0.05658626352509828","0.14004050217356157","-0.469696441414908","0.26408850830937836","-0.30073076943963284","-0.536986770745895"
"-0.07563287438921691","0.10402417652637708","0.00606455721226664","-0.18802337820044168","0.11288854708383393","0.15128240061854628","0.2794414760849845","-0.28103412114333615","-0.5363166894256416"
"-0.09754664241118186","0.030665798271166667","-0.039546743416993345","0.02038013933933988","-0.08584605377476506","0.12437068833985954","0.28114116943219314","-0.2830394061674735","-0.5374934175977937"
"-0.005972895637496171","0.023378156933398255","-0.03997012011118981","0.12392674700681865","0.039514845969609996","0.28465178904628824","0.2712495114279459","-0.3349129635023955","-0.512210105343358"
"0.04725753401374961","0.018218847565568196","0.006201070380492914","0.02138236167234636","-0.0018281640081335543","0.32260824860428816","0.24884699583522865","-0.3919448527086183","-0.4786570089901864"
"0.0681545648199327","-0.00040597879859803566","0.03724552790157773","-0.13921197350934822","0.03433335784539136","0.2832441965562857","0.19534845113620197","-0.43811917892230773","-0.4832004872104405"
"0.022243487739116514","-0.0782322961145663","0.04303236447298499","-0.04605150852051869","0.04975576406823886","0.11655126936953497","0.1699087785788","-0.45635144144439893","-0.48409937678639"
"-0.0408558400766785","-0.06995371836912527","0.01626442461371781","0.06598751336353079","-0.019748693697059314","-0.02263778593928652","0.18088712577224625","-0.45826437781610896","-0.46499388743575304"
"0.019623656333678616","-0.03125630131687867","-0.01558155727330675","0.02860394641766967","0.0011416783074982698","-0.09828374785890652","0.18375709978474605","-0.450889678286551","-0.46342491653955026"
"0.007332304726982457","-0.0019978132270658364","-0.03036876278768076","0.07103713501254035","0.009514388724942365","-0.06874857440488742","0.1972431912609592","-0.44888439326241364","-0.452327716138282"
"-0.007099394257254483","0.028584208584609097","0.0030530065026213625","0.024354369685786307","-0.058603153396944885","-0.025317065437498277","0.1994722972900854","-0.4505466690061065","-0.4520498775420795"
"-0.005375947650957588","0.019239906778086204","0.017719188240020188","0.03249056655056798","0.020392402499629907","0.028719924876979077","0.1973546465624153","-0.456298670785869","-0.44713050004461"
"0.0009613291996827211","0.020015828682207214","-0.0008656029586877508","0.04554352561963789","0.025997504202595285","0.014991772397328306","0.19941656963935717","-0.46544118737617945","-0.4322252765306828"
"0.007993761608840536","0.0049746812489752466","-0.026605873339749272","0.053910782388282744","-0.004932988277671121","0.04231775370712443","0.19565495321520696","-0.4727103455886775","-0.42625991843574484"
"-0.004827140631075334","0.006008101198653952","-0.0039269262455531966","0.03544717057041705","0.006749651966929725","0.06285646964314447","0.19050014552285277","-0.4865758361174168","-0.41262948377498243"
"0.004413036508942132","0.009574537420607748","0.015091361382968585","-0.009978243779481602","-0.012097562341717725","0.03568508081888826","0.1797168451069548","-0.4987658582378309","-0.40375499214333505"
"0.005325789236746307","-0.0014174818109581942","-0.0015936043474889853","-0.0132968416487163","-0.030087258315534902","0.006166652861732982","0.17135769749773186","-0.4981062250062067","-0.4074812980218168"
"-8.718105409231727e-05","-0.003946550957081131","-0.0038083807711781856","-0.005837072652494044","-0.02658634338338386","0.025524447236312933","0.16840413200914023","-0.499755308085267","-0.4144109194800461"
"0.00016315197252063712","-0.03065280650256233","0.005620941046835419","-0.021225084600021125","-0.01714311119320859","0.011878323422458863","0.15968275467018408","-0.5000983173657115","-0.4183333467205534"
"0.009629591655822894","-0.06306598323361468","0.009215182002825038","-0.024023797685563703","0.01902822317824209","-0.041271398246596196","0.1692957744207903","-0.49540172875654775","-0.4267502218408083"
"0.024762223114576102","-0.12550224793884865","0.04228474318859904","0.010941342266529626","0.06939037310800314","-0.23442221047818804","0.2012555821133859","-0.4778290994660807","-0.42258264289776937"
"0.03316282179610704","-0.06250611455045373","0.06498392975402986","0.16207088613622933","-0.2070641563168203","-0.4064033170368621","0.25032377857952476","-0.4358764259347857","-0.4408546164597987"
"0.03569503664223041","0.08162735176512245","0.0660020990722682","0.08212223390037565","-0.16888149510029182","-0.3355625846520785","0.28150339916192607","-0.4030134983352713","-0.466383080416766"
"0.04844180179349552","0.09397666303432553","-0.022471238501791623","-0.11399756150028043","-0.030513983180453234","-0.4450878416758978","0.2996706132993038","-0.3384222122946359","-0.5035480785205714"
"-0.08964189568621118","0.02056219403905815","-0.055632992544292104","-0.2321076823583345","-0.08085602941495174","-0.0857149176766251","0.2887201299312221","-0.26484672163927986","-0.5508787005560244"
"-0.09442710777185115","0.018346609806809005","-0.105643073763645","-0.056456906191156515","-0.0047613888788228635","-0.03355876215482358","0.2842340540476055","-0.23417377636875755","-0.5751323756598271"
"-0.15519063588548065","0.06643403223155082","-0.055911801586811735","-0.02822331143827671","0.003800392005971472","0.2747258351081668","0.28111330560682923","-0.25152213036047233","-0.5664049750496987"
"-0.1199033073263851","0.016397975948534555","0.016670866240146413","0.12138508806432383","0.02055753999642948","0.49923683726357415","0.2662897505131406","-0.30757776238389134","-0.549914437192733"
"-0.03908425250372528","-0.0526507637789676","0.04977128229329259","0.12068228085674004","0.04355473139856197","0.4138105344220398","0.24137949063765612","-0.393277311836499","-0.49625890123196215"
"0.08108907974115753","-0.0496686060992736","-0.049207993053339935","-0.14624967308118042","0.023489328888885753","0.0890716663276403","0.24302345633413658","-0.41247263887676133","-0.45744321499777685"
"0.1315023000236744","-0.07462690798979518","0.05768532859651621","0.0760184014399904","-0.04524137593850948","0.024574322305561207","0.2481504002011268","-0.4262325880884409","-0.4536842222256241"
"0.0714512582165587","-0.005047279794828165","0.016085160725638526","0.17824507940665082","0.053120739727662146","-0.0592934358858358","0.2684909927169025","-0.4402959685866675","-0.4192485797433383"
"0.09116845021192828","0.0583787787289291","0.024543607500033805","0.06212207372181993","-0.008306340476787131","-0.0026383235399536835","0.27852196984796984","-0.437195692398034","-0.3981818767724478"
"0.10295201090233339","0.031089594973819107","0.02359028709983338","-0.2102051289713054","0.035501286808263734","0.044016572229541306","0.270107094588019","-0.42942521292950164","-0.4125477665408052"
"0.08276438538079808","-0.07387591530347726","0.07952330500838645","-0.18016734146909408","0.022649281622557468","0.06800631664967105","0.2476209875192093","-0.41768374140659204","-0.4530468277990417"
"-0.004220564451205473","-0.07093946118975558","0.026255701546320964","0.03187248130773401","-0.09994018013205075","-0.0786939434118365","0.2184196985376571","-0.4297418368806813","-0.4776273718395532"
"-0.08598318222032952","-0.027957334827603802","-0.09309047109376158","0.0554319267553819","-0.08425211793609087","-0.32328255361860786","0.22872931392236548","-0.4027100670487242","-0.49900460030031724"
"-0.1868481355586884","-0.07344069270933173","-0.057192257930235184","0.04940222601415275","0.1609890312965573","-0.3603410662433303","0.2519677442760052","-0.3626307518952417","-0.5057707872901921"
"-0.013145899669290506","0.1906833311969416","-0.043311698117091645","-0.05393931598864746","0.03154038018212894","0.031668588455174077","0.25748478169809197","-0.3514565649515289","-0.5170314221598147"
"0.09552751846072635","0.0038907796332452956","0.010227899055342975","0.0005696408318718427","-0.00700366888971452","0.001337397179222496","-1.5285864241392049","-0.08447661078397621","-0.05892460736224941"
"0.09552751846072635","0.0038907796332452956","0.010227899055342975","0.0005696408318718427","-0.00700366888971452","0.001337397179222496","-1.5285864241392049","-0.08447661078397621","-0.05892460736224941"
"0.09552751846072635","0.0038907796332452956","0.010227899055342975","0.0005696408318718427","-0.00700366888971452","0.001337397179222496","-1.5285864241392049","-0.08447661078397621","-0.05892460736224941"
"0.09552751846072635","0.0038907796332452956","0.010227899055342975","0.0005696408318718427","-0.00700366888971452","0.001337397179222496","-1.5285864241392049","-0.08447661078397621","-0.05892460736224941"
"0.09552751846072635","0.0038907796332452956","0.010227899055342975","0.0005696408318718427","-0.00700366888971452","0.001337397179222496","-1.5285864241392049","-0.08447661078397621","-0.05892460736224941"
"0.09552751846072635","0.0038907796332452956","0.010227899055342975","0.0005696408318718427","-0.00700366888971452","0.001337397179222496","-1.5285864241392049","-0.08447661078397621","-0.05892460736224941"
"0.09552751846072635","0.0038907796332452956","0.010227899055342975","0.0005696408318718427","-0.00700366888971452","0.001337397179222496","-1.5285864241392049","-0.08447661078397621","-0.05892460736224941"
"0.09552751846072635","0.0038907796332452956","0.010227899055342975","0.0005696408318718427","-0.00700366888971452","0.001337397179222496","-1.5285864241392049","-0.08447661078397621","-0.05892460736224941"
"0.09552751846072635","0.0038907796332452956","0.010227899055342975","0.0005696408318718427","-0.00700366888971452","0.001337397179222496","-1.5285864241392049","-0.08447661078397621","-0.05892460736224941"
"0.09552751846072635","0.0038907796332452956","0.010227899055342975","0.0005696408318718427","-0.00700366888971452","0.001337397179222496","-1.5285864241392049","-0.08447661078397621","-0.05892460736224941"
"0.09552751846072635","0.0038907796332452956","0.010227899055342975","0.0005696408318718427","-0.00700366888971452","0.001337397179222496","-1.5285864241392049","-0.08447661078397621","-0.05892460736224941"
"0.09552751846072635","0.0038907796332452956","0.010227899055342975","0.0005696408318718427","-0.00700366888971452","0.001337397179222496","-1.5285864241392049","-0.08447661078397621","-0.05892460736224941"
"0.09552751846072635","0.0038907796332452956","0.010227899055342975","0.0005696408318718427","-0.00700366888971452","0.001337397179222496","-1.5285864241392049","-0.08447661078397621","-0.05892460736224941"
"0.09552751846072635","0.0038907796332452956","0.010227899055342975","0.0005696408318718427","-0.00700366888971452","0.001337397179222496","-1.5285864241392049","-0.08447661078397621","-0.05892460736224941"
"0.09552751846072635","0.0038907796332452956","0.010227899055342975","0.0005696408318718427","-0.00700366888971452","0.001337397179222496","-1.5285864241392049","-0.08447661078397621","-0.05892460736224941"
"0.09552751846072635","0.0038907796332452956","0.010227899055342975","0.0005696408318718427","-0.00700366888971452","0.001337397179222496","-1.5285864241392049","-0.08447661078397621","-0.05892460736224941"
"0.09552751846072635","0.0038907796332452956","0.010227899055342975","0.0005696408318718427","-0.00700366888971452","0.001337397179222496","-1.5285864241392049","-0.08447661078397621","-0.05892460736224941"
"0.09552751846072635","0.0038907796332452956","0.010227899055342975","0.0005696408318718427","-0.00700366888971452","0.001337397179222496","-1.5285864241392049","-0.08447661078397621","-0.05892460736224941"
"0.09552751846072635","0.0038907796332452956","0.010227899055342975","0.0005696408318718427","-0.00700366888971452","0.001337397179222496","-1.5285864241392049","-0.08447661078397621","-0.05892460736224941"
"0.09552751846072635","0.0038907796332452956","0.010227899055342975","0.0005696408318718427","-0.00700366888971452","0.001337397179222496","-1.5285864241392049","-0.08447661078397621","-0.05892460736224941"
"0.09552751846072635","0.0038907796332452956","0.010227899055342975","0.0005696408318718427","-0.00700366888971452","0.001337397179222496","-1.5285864241392049","-0.08447661078397621","-0.05892460736224941"
"0.09552751846072635","0.0038907796332452956","0.010227899055342975","0.0005696408318718427","-0.00700366888971452","0.001337397179222496","-1.5285864241392049","-0.08447661078397621","-0.05892460736224941"
"0.09552751846072635","0.0038907796332452956","0.010227899055342975","0.0005696408318718427","-0.00700366888971452","0.001337397179222496","-1.5285864241392049","-0.08447661078397621","-0.05892460736224941"
"0.09552751846072635","0.0038907796332452956","0.010227899055342975","0.0005696408318718427","-0.00700366888971452","0.001337397179222496","-1.5285864241392049","-0.08447661078397621","-0.05892460736224941"
"0.09552751846072635","0.0038907796332452956","0.010227899055342975","0.0005696408318718427","-0.00700366888971452","0.001337397179222496","-1.5285864241392049","-0.08447661078397621","-0.05892460736224941"
