"AccX","AccY","AccZ","GyroX","GyroY","GyroZ","MagX","MagY","MagZ"
"0.001190480200966885","0.008260248283680957","0.003230618188967196","-0.0006293675192580936","-0.0035656976701117188","0.000643551156995375","-0.1800330041686353","0.17660622229285666","0.8774241487341513"
"0.0011914430203000094","0.00919156231210786","0.003081506982523368","0.0002222807763975526","-0.008232866257196594","0.0028008079921044617","-0.17618779626839276","0.1759202037319675","0.8783720686506072"
"0.0011182687509823756","0.008182448349787165","0.0035362755096553745","0.0011105135568315332","-0.007437094986387035","-0.0007094364519294937","-0.17838903847215484","0.1774769381586005","0.8789604327366835"
"0.0010489457589972569","0.00988989202581677","0.003542884316589171","0.00014988200652042775","-0.009152849645164097","-0.00027696579379422615","-0.17944786383598987","0.1757486990917453","0.8759205516252904"
"0.0017662461621766768","0.007403514165181615","0.0034012080179458676","0.000252126013979878","-0.007055842765514967","-0.0024643159855861265","-0.17928068088380525","0.17643471765263435","0.8774404921809869"
"0.001480288820238047","0.00895650056257294","0.0035534171026399127","-0.00011265980924409261","-0.005270682492140981","0.0010641300854737244","-0.17621566009375686","0.17470647858577915","0.8777510176708603"
"0.0011914430203000094","0.008724658837004256","0.0038504003642274806","0.001259354644903388","-0.007343756401239448","0.0038987301343064535","-0.17772030666341695","0.17696242423793368","0.8781105735012401"
"0.001480288820238047","0.00887890837216084","0.0035530040522065514","-0.0005515773516241616","-0.006981889886513416","0.0014941738600055391","-0.1765778898234899","0.17644791031726684","0.8783557252037717"
"0.001480288820238047","0.008800796823044509","0.003861139675494903","-0.00010697958660745649","-0.008094773017119266","-0.0007108925820915655","-0.17590915801475188","0.1752341851710784","0.8775222094151641"
"0.001480288820238047","0.009268531272074885","0.0026294232832082196","0.0012736996139348926","-0.007393536979984828","0.001479612558384823","-0.1729555925261599","0.17647429564653183","0.8775548963088349"
"0.0013358659202690282","0.00848949321572849","0.004780176889726249","-0.00019073880175785352","-0.0035860406950797823","-0.0004582539989721411","-0.1765778898234899","0.17610490103682233","0.8781432603949112"
"0.001480288820238047","0.009267492554666423","0.0032465206306516482","0.000232582197111452","-0.0035336274895738295","0.0019513987308960238","-0.17604847714157223","0.17680411226234388","0.8766233198392145"
"0.0014793260009049224","0.008490739676618644","0.003705213136900596","0.00015103730603974365","-0.010451691956948601","-0.0007283661440364245","-0.17482246882555305","0.17680411226234388","0.8775058659683286"
"0.000975771489679623","0.009579834879390904","0.0035385472870388666","0.0005840820758632906","-0.003544636656027135","0.001076507191851333","-0.1780268087424218","0.1775033234878655","0.8759042081784548"
"0.001190480200966885","0.008336697884943749","0.0038483351120606685","0.000922873659902655","-0.006957717586257246","0.001928100648302878","-0.17588129418938808","0.17804422273779724","0.875283157198708"
"0.0013349031009359036","0.008491674522286259","0.003545775669622709","0.0016470539085937889","-0.006628878570891131","-0.0033440612918377226","-0.17582556653865988","0.17610490103682233","0.8783720686506072"
"0.0011201943896486247","0.009112515917323913","0.004158329462299152","-0.00019199037623711225","-0.005947985558724757","-0.0006922055783449793","-0.17749739606050444","0.17681730492697637","0.8739756814518722"
"0.0009035600396951136","0.009348304769044757","0.0030718002973393523","6.747064080923261e-05","-0.007873871698936642","-0.0007045826847225881","-0.17694011955322297","0.17609170837218982","0.8783557252037717"
"0.0011182687509823756","0.008415224921023466","0.0035375146609554604","0.0009459796502889715","-0.007473951761035057","-0.0024650440506671623","-0.17535188150747041","0.1778595254329425","0.876606976392379"
"0.0011914430203000094","0.008803393616565663","0.0032337160672174133","0.0019837274435144077","-0.007013720737345799","-0.001371975675672075","-0.1771908939814996","0.17733181884764318","0.8765906329455437"
"0.0011914430203000094","0.008959097356094096","0.002925786969145743","-0.00010332113812962306","-0.005732349494063279","-0.0006919628899846342","-0.176995847203951","0.17610490103682233","0.8779144521392147"
"0.0011182687509823756","0.0084933364701398","0.0032293790376671083","-0.00045597631640077735","-0.00873378333082198","-0.0004893181090963356","-0.17749739606050444","0.177133928878156","0.8800717871214936"
"0.0013349031009359036","0.008491155163582028","0.0038543243433444238","6.670044112968863e-05","-0.006152612456932929","-0.00025803610168729504","-0.1768843919024946","0.177133928878156","0.8789931196303543"
"0.001192405839633134","0.009734499901510874","0.0032386726724177627","0.00024413519230461015","-0.004438054446683401","-0.00046650540322388026","-0.1748781964762811","0.17663260762212166","0.877080936350607"
"0.0017662461621766768","0.0075572443416339705","0.00417361232833356","-0.00046184908895729944","-0.008288151419168626","0.0006049637077004775","-0.17395869023926658","0.17837403935360935","0.8787969982683289"
"0.001263654470284519","0.009424338883344164","0.0029309500995627733","0.00015662125371643677","-0.005297248089452217","-0.0004725726122325121","-0.1756583835864754","0.17871704863405388","0.877228027372126"
"0.0013349031009359036","0.008334932065349365","0.004470595589921129","0.00021650427880097348","-0.009942159013924977","0.003227696817951788","-0.1742930561436357","0.17821572737801955","0.8761820467746574"
"0.0014793260009049224","0.008492090009249645","0.00293384145259631","6.4774941930829e-05","-0.004848265561921772","0.0006270483484918969","-0.1739865540646307","0.17803103007316473","0.8785845334594681"
"0.0011201943896486247","0.009268739015556577","0.0035420582157224467","-0.00010312858820973699","-0.004874352499821995","-0.0006856529926156572","-0.177692442838053","0.17817614938412213","0.8787316244809871"
"0.0013339402816027791","0.007404345139108384","0.004157090310999065","0.0016316499150029115","-0.005280495010066754","-0.0002607056736510931","-0.1740422817153589","0.1771603142074209","0.8779471390328856"
"0.001190480200966885","0.00833721724364798","0.0035395799131222724","-0.000374527700289012","-0.006128918816087773","0.001063644708753034","-0.17925281705844115","0.17766163546345523","0.8780615431607337"
"0.0007600999590592194","0.009893839151968925","0.0021436759735740333","0.0008389218948323721","-0.00954582902160599","0.0010362209240340186","-0.1785283575989752","0.177490130823233","0.8778654217987084"
"0.001190480200966885","0.008336178526239519","0.004156883785782384","-0.0008327965096176208","-0.007770002606746765","0.005006602499282602","-0.17975436591499455","0.17853235132919906","0.8771626535847843"
"0.0013349031009359036","0.008258897951049957","0.0035445365183226214","-0.00029365673393690463","-0.007398562903800467","0.0019310129086270212","-0.17816612786924216","0.177490130823233","0.8776529569898477"
"0.001190480200966885","0.008726009169635255","0.0030788221547065134","5.8902169374306883e-05","-0.007411726037603332","0.001051995667456461","-0.1756583835864754","0.18078829698135368","0.8806764946544052"
"0.0010450944816647418","0.007873014433806376","0.0032233898063833534","5.6784120255561176e-05","-0.006110251099058254","0.0017218155420094003","-0.17841690229751878","0.17888855327427616","0.8760839860936448"
"0.0014793260009049224","0.008492090009249645","0.00293384145259631","0.0014561406630268494","-0.005916872697008894","0.00017225036120486483","-0.18128687631001875","0.17887536060964368","0.876901158435417"
"0.0011914430203000094","0.008879323859124226","0.004159775138815921","0.0005706035814712726","-0.009530751250159071","0.002131958870992903","-0.1800330041686353","0.17817614938412213","0.8778163914582021"
"0.0012617288316182698","0.007870729255507759","0.0038483351120606685","0.0015403812529769616","-0.005262784611859263","0.0006183115675194673","-0.1772744854575919","0.17854554399383157","0.8761166729873155"
"0.0011914430203000094","0.008802562642638893","0.0036965390777999865","-0.001505951029538973","-0.007426325149639237","0.0010614605135099264","-0.17953145531208187","0.17993077378024233","0.8762637640088347"
"0.0017662461621766768","0.007713571311607481","0.003557134556540176","-0.00013903914826847053","-0.0060336655932961315","0.005886105117173852","-0.17919708940771292","0.17887536060964368","0.8786825941404807"
"0.001190480200966885","0.008337528858870518","0.0033853055762614152","6.670044112968863e-05","-0.008519583244393543","-0.0007113779588122556","-0.17752525988586837","0.17837403935360935","0.8769828756695943"
"0.0013349031009359036","0.008181928991082933","0.0032353682689508635","-0.0009125121764504127","-0.006716233913401053","0.004134623220562054","-0.1785840852497034","0.179403067194943","0.8778163914582021"
"0.0010479829396641323","0.00989207333237454","0.002308483096485633","-0.0008148893670682257","-0.009983323723272118","0.0014793698700244777","-0.17861194907506753","0.1790600579144984","0.8773914618404804"
"0.0011895173816337604","0.007561087596045279","0.0036897237456495055","-0.000129507927234115","-0.006498204551684509","0.003914019501008206","-0.1804509615490964","0.17783314010367754","0.877375118393645"
"0.0014793260009049224","0.008569058969216668","0.0032428031767513872","0.0010129870224092892","-0.006967290774477513","0.001484951702312419","-0.18120328483392642","0.17660622229285666","0.8769665322227588"
"0.0011914430203000094","0.008647897620518924","0.003386957777994864","-0.00012325005483782096","-0.008245072072177432","0.0023644543202036693","-0.18067387215200906","0.17975926914002002","0.8760349557531384"
"0.000975771489679623","0.009424650498566702","0.0035377211861721417","-0.0006576723574813312","-0.0099249272751285","0.004333870364405519","-0.1785840852497034","0.17870385596942137","0.8776202700961767"
"0.0014774003622386564","0.0069385842531540865","0.003851226465094206","0.00023604809566939945","-0.00915045634810903","-6.000239964555665e-05","-0.1779989449170577","0.1776484427988228","0.8791728975455442"
"0.001192405839633134","0.009734499901510874","0.0032386726724177627","-0.00031300800088544464","-0.0068935772251814695","0.005666472151061384","-0.17819399169460642","0.17766163546345523","0.877636613543012"
"0.0011895173816337604","0.007715960361646942","0.0038448241833770893","0.00039153215597732035","-0.009509929565779996","0.0032318225200776572","-0.1811754210085625","0.17799145207926734","0.8775875832025057"
"0.0013349031009359036","0.008181098017156163","0.0036983978047501168","0.0005895697485800407","-0.003135861519021803","0.00019846070412215367","-0.17978222974035865","0.17870385596942137","0.876933845329088"
"0.000975771489679623","0.009268946759038268","0.0038454437590271324","0.0016125874729342004","-0.007361227469741432","0.0028008079921044617","-0.18056241685055296","0.17817614938412213","0.8764925722645309"
"0.0016227860815407995","0.007870002153321835","0.003244248853268155","0.0004946426380762574","-0.0065527717245400215","0.00105102491401508","-0.17833331082142678","0.17627640567704456","0.8761493598809865"
"0.001263654470284519","0.009111996558619682","0.004009424781072006","-0.0019450611218389277","-0.006122217584333587","0.00216957556684642","-0.17716303015613533","0.17660622229285666","0.8796468575037721"
"0.001190480200966885","0.008492401624472182","0.0035404060139889977","0.003191207991119327","-0.00653865127191513","0.00038023428602075945","-0.17546333680892684","0.1771471215427884","0.8783557252037717"
"0.0010489457589972569","0.00988989202581677","0.003542884316589171","0.0014508455402299854","-0.004390906494698594","0.001283763051586192","-0.17967077443890225","0.17853235132919906","0.8778163914582021"
"0.001623748900873924","0.008489700959210181","0.0038648571293951653","-0.0006287898694984357","-0.006590107158599056","-0.00025997760857005724","-0.1801444594700917","0.17644791031726684","0.8765416026050372"
"0.0011914430203000094","0.009113243019509836","0.0035439169426725783","-0.0009811562228897613","-0.00764938043517142","0.00039795053632596394","-0.17415373701681533","0.17838723201824183","0.8772770577126324"
"0.0014793260009049224","0.008646131800924538","0.003551764900906464","0.0004022186765309917","-0.004810451468451724","0.002381199817067493","-0.17588129418938808","0.17873024129868637","0.8754792785607334"
"0.0011895173816337604","0.007871664101175374","0.003537101610522099","0.0004314862643536592","-0.005780694094575619","-0.0033287719251359708","-0.17791535344096568","0.1773186261830107","0.8767867543075689"
"0.0010489457589972569","0.009734707644992568","0.0035420582157224467","0.0002337374966307678","-0.005908017497905149","0.0010617032018702718","-0.1817326975158441","0.17696242423793368","0.8758551778379485"
"0.0016218232622076752","0.0072487452713207974","0.003549493123522971","-0.0003027065801715451","-0.009304584678455302","0.003233035961879384","-0.17894631497943647","0.17679091959771145","0.8772116839252904"
"0.000975771489679623","0.009579834879390904","0.0035385472870388666","-0.001846379287897368","-0.0033613101016090534","0.0006537440681298762","-0.17549120063429077","0.17697561690256616","0.8781432603949112"
"0.0010470201203309907","0.008803601360047356","0.0035368950853054163","0.0010895256155639625","-0.005203430844893617","0.003696085353418155","-0.17746953223514034","0.17627640567704456","0.8770319060101006"
"0.0016227860815407995","0.007714298413793403","0.003551971426123145","0.002404737843345082","-0.005668687792398514","0.0014842236372313831","-0.17986582121645098","0.17661941495748915","0.8758878647316195"
"0.001192405839633134","0.009267804169888962","0.003853291717261018","-0.00012065063091936035","-0.006533864677804997","0.002155985018667085","-0.17749739606050444","0.17593339639660002","0.8768357846480754"
"0.0014793260009049224","0.008258482464086572","0.003395425311878794","0.000942610026690967","-0.008754605015201058","-0.002038640601540526","-0.17744166840977607","0.17627640567704456","0.8772607142657969"
"0.0011914430203000094","0.009113243019509836","0.0035439169426725783","-0.000988473119845428","-0.007837254253994128","0.0017138068261180067","-0.18265220375285862","0.1767777269330789","0.8773587749468097"
"0.0011182687509823756","0.008492817111435567","0.0035379277113888235","0.0012806314110507875","-0.00655995161570522","0.00017322111464624583","-0.18262433992749452","0.17659302962822415","0.8775875832025057"
"0.0009045228590282381","0.009736265721105261","0.0030738655495061644","-0.00047349835911040064","-0.0065123250043094","0.003258760928075982","-0.17824971934533448","0.1759202037319675","0.8768194412012399"
"0.0010470201203309907","0.008647793748778077","0.0038448241833770893","0.0011071439332335285","-0.005917830015830921","0.0001792883236548775","-0.17694011955322297","0.17663260762212166","0.8755119654544041"
"0.0009045228590282381","0.00973491538847426","0.0038454437590271324","-0.00047773445734789204","-0.009301473392283715","0.0032398312359690515","-0.18150978691293143","0.1759070110673351","0.877407805287316"
"0.0014783631815717807","0.008180578658451933","0.003549286598306289","0.003190726616319612","-0.004167851209166411","0.0010517529790961156","-0.17582556653865988","0.17801783740853233","0.8787643113746578"
"0.0009035600396951136","0.009502658175942189","0.0035354494087886487","-0.0011554139003865642","-0.006786357517114497","0.000627291036852242","-0.1779989449170577","0.17800464474389982","0.8791565540987087"
"0.001480288820238047","0.00887890837216084","0.0035530040522065514","0.0005892809237002118","-0.007444514207257741","-0.0007111352704519102","-0.17694011955322297","0.17468009325651415","0.8810033635911142"
"0.0014793260009049224","0.008646755031369614","0.003243216227184749","-0.000802181072355752","-0.008744074508158766","-0.0007111352704519102","-0.17498965177773768","0.17506268053085616","0.8788623720556706"
"0.0012626916509513944","0.008336905628425442","0.0035422647409391285","0.0021471060505376537","-0.004819306667555469","0.0010561213695823304","-0.1772744854575919","0.17766163546345523","0.8789604327366835"
"0.0009025972203619891","0.008960032201761711","0.0032240093820333966","0.0010812459690088655","-0.006462783755269526","0.00500611712256191","-0.17632711539521312","0.17593339639660002","0.8772770577126324"
"0.0010470201203309907","0.008647793748778077","0.0038448241833770893","-0.00028614728706135163","-0.00742752179816677","0.00039722247124492803","-0.1767172089503103","0.17593339639660002","0.8770645929037715"
"0.001263654470284519","0.00911230817384222","0.003855150444211149","0.002847217559243041","-0.006126764848738212","-0.00027478159855111886","-0.18120328483392642","0.17610490103682233","0.8739266511113659"
"0.0011914430203000094","0.008647689877037231","0.003541438640072404","6.718181592940361e-05","-0.0059369763922714515","-0.00025512384136315206","-0.18039523389836834","0.17660622229285666","0.877407805287316"
"0.0011182687509823756","0.008337632730611366","0.003537101610522099","-0.0009780754241715856","-0.010030232345551417","-0.0007142902191363993","-0.17691225572785885","0.17698880956719867","0.8757244302632651"
"0.0010470201203309907","0.008415017177541775","0.0038433785068603195","0.0012836159348090202","-0.005710331161156669","-0.00025924954348902177","-0.17805467256778604","0.1755640017868905","0.8781269169480757"
"0.0010470201203309907","0.008881712909163687","0.0032287594620170655","0.0009430914014906819","-0.006168647547201873","-0.0015777754052448622","-0.17813826404387806","0.177133928878156","0.877881765245544"
"0.0013368287396021527","0.00973242246669395","0.0040154140123557615","-0.0003048246292902907","-0.008221857090743289","0.003680310609995713","-0.1778596257902373","0.17818934204875456","0.8774241487341513"
"0.0016218232622076752","0.007714817772497634","0.0032434227524014304","6.727809088934662e-05","-0.006583166597139364","-0.0002636179339752363","-0.1775809875365966","0.17593339639660002","0.8761657033278221"
"0.0010460573009978833","0.008649455696631616","0.002918971636995263","0.00041473442132357975","-0.0035594750977685466","0.00041882173531565694","-0.17797108109169374","0.1767777269330789","0.8791892409923795"
"0.0010470201203309907","0.008647586005296385","0.003999098520237946","0.002316549980037307","-0.007819543855786638","0.0010369489891150542","-0.17752525988586837","0.17627640567704456","0.876606976392379"
"0.0014783631815717807","0.008025913636331962","0.00323991182371785","0.0004218587683593607","-0.002512168306471515","-0.0006759454582018465","-0.17780389813950911","0.1771471215427884","0.8774404921809869"
"0.0009045228590282381","0.009735434747178492","0.003536688560088736","0.0005815789269047729","-0.008491103009438252","0.00038508805322766464","-0.1789184511540722","0.17817614938412213","0.8778327349050374"
"0.0012617288316182698","0.007871352485952837","0.0035397864383389537","-0.00029288653425736064","-0.008693815270002372","0.0014844663255917283","-0.17763671518732496","0.17610490103682233","0.8757244302632651"
"0.001192405839633134","0.009424131139862471","0.0032370204706843124","0.000425902316676966","-0.0027424034831688964","-0.0015535065692103356","-0.1789741788048004","0.17836084668897684","0.8773914618404804"
"0.0013349031009359036","0.008491155163582028","0.0038543243433444238","0.0005831193262638608","-0.008284082814175014","0.00016351358023243507","-0.1761042047923006","0.1790732505791309","0.8767867543075689"
"0.0014793260009049224","0.008646131800924538","0.003551764900906464","-0.0002734389923488776","-0.006183007329532271","-0.001574863144920719","-0.17663361747421796","0.1757486990917453","0.8777183307771895"
"0.0016227860815407995","0.008179332197561777","0.0038629984024450338","0.0012840010346487922","-0.007653927699576045","-0.0007176878561812326","-0.1796986382642665","0.17609170837218982","0.8769992191164299"
"0.0010470201203309907","0.008493232598398952","0.0035352428835719674","-0.0008146968171483399","-0.007834621627233555","0.0017147775795593877","-0.18387821206887797","0.17816295671948962","0.8768684715417462"
"0.0014793260009049224","0.008335243680571904","0.0038586613728947288","0.0006014115686530278","-0.004905944020948871","-0.0024495119956050647","-0.17794321726632964","0.1773186261830107","0.8765742894987082"
"0.001190480200966885","0.008180994145415317","0.004156057684915659","0.00023335239679099585","-0.0039699255427124245","0.001513831617193506","-0.17933640853453345","0.17644791031726684","0.8769992191164299"
"0.0010479829396641323","0.009424858242048395","0.003231857340267283","0.0003867184079801711","-0.006903868402518254","0.004785998779728753","-0.18098037423101407","0.17609170837218982","0.8756753999227586"
"0.0009748086703464984","0.008959097356094096","0.0035352428835719674","0.00025665093709719826","-0.006424491002388466","-0.0033304707436583873","-0.18081319127882944","0.17643471765263435","0.8771953404784553"
"0.0009054856783613627","0.01035534129654853","0.004003022499354888","-0.001022265630785416","-0.006850019218779261","0.00808850198730716","-0.18153765073829553","0.1757355064271128","0.8771953404784553"
"0.001190480200966885","0.008025290405886884","0.004463780257770648","-0.0006587313820407039","-0.007339687796245835","0.00500878669452571","-0.17877913202725182","0.17626321301241213","0.8785355031189618"
"0.001480288820238047","0.009111684943397143","0.0035542432035066385","-0.002897509300554879","-0.008728039417889822","0.0010578201881047474","-0.17744166840977607","0.17433708397606962","0.8799083526531392"
"0.0006166398784233423","0.010746730016056957","0.002914634607444958","-0.007092979504950283","-0.009529554601631539","0.005476689853271386","-0.17791535344096568","0.17312335882988117","0.8788460286088351"
"0.002053166323448465","0.006706119297140321","0.0020191412679152693","-0.00446496192338662","-0.009799997168854036","0.0019336824805908192","-0.1816491060397518","0.17049801856801713","0.8779634824797211"
"0.0013339402816027791","0.007715233259461019","0.0038501938390108","-0.0023729070438255535","-0.007873153709820122","0.0006241360881677536","-0.174070145540723","0.16948218339131596","0.8789931196303543"
"0.0009064484976944872","0.011133236763745615","0.0029272326456625114","-0.0023979385334107297","-0.011222572938385472","0.004554474083959367","-0.1787234043765238","0.1680705682756403","0.8771953404784553"
"0.001192405839633134","0.009422469192008932","0.004162666491849457","-0.004671664262384208","-0.01076401722263476","0.007204145602209003","-0.17576983888793152","0.16545842067840874","0.8792709582265568"
"0.0015505746315562902","0.00786771697502322","0.004784513919276555","-0.0012570802580863566","-0.007816671899320556","0.0030299058042703945","-0.17482246882555305","0.16510221873333172","0.8808235856759241"
"0.0010499085783303814","0.00996364096181756","0.0057033446082912186","0.0015869783335893662","-0.007275068775759044","0.007190312365669322","-0.17621566009375686","0.16284627308117716","0.8782413210759236"
"0.0007620255977254855","0.01097929884381157","0.00261248821544036","0.0005590505862781144","-0.0034457934876528954","0.005907461692884236","-0.17643857069666954","0.16354548430669877","0.879532453375924"
"0.001050871397663506","0.010972339437174876","0.005708920789141611","-0.00105432519244643","-0.00846286210418847","0.013343918430583936","-0.1678007848338059","0.16270115377021988","0.8799246960999747"
"0.0019116318814788198","0.007554959163335353","0.005104628005132416","0.000536040870851741","-0.007683843912764375","0.008942522327362158","-0.17189676716232505","0.1619887498800658","0.8798756657594682"
"0.0014774003622386564","0.007094807351386749","0.0032347486933008204","0.004397918339044703","-0.0026107721451402483","0.0032509949005449334","-0.1746831496987327","0.16163254793498877","0.8783066948632656"
"0.0007639512363917345","0.012608527098983996","0.0027756431366185094","-0.006115114736809385","-0.004864779311601729","0.002425611787010678","-0.17097726092531051","0.16235814448977529","0.8783557252037717"
"0.0017672089815098182","0.007556205624225509","0.00479070967577699","-0.005340582684068069","-0.008503308824419091","0.0028287171535441675","-0.16802369543671858","0.15993069419739847","0.8775875832025057"
"0.001192405839633134","0.009112100430360528","0.004161014290116008","-0.0010121567599914024","-0.006458236490864901","0.006332894388569491","-0.1716459927340484","0.15693595932582494","0.8806438077607344"
"0.0006898141477409762","0.011288940503274048","0.0032287594620170655","-0.0022170378836778607","-0.003922059601611098","0.00482458622902365","-0.17069862267166963","0.15676445468560263","0.8793526754607341"
"0.0014793260009049224","0.0081800592997477","0.0038578352720280043","-0.0032833793400063637","-0.007294693811610588","0.008534077816901072","-0.17147880978186394","0.15483832564926017","0.8815590407835193"
"0.001842308889493701","0.009729825673172796","0.004033588231423706","-0.004272700828380479","-0.0036310346797150304","-0.0006599280264190588","-0.17462742204800463","0.15308370125313997","0.8798102919721266"
"0.0007639512363917345","0.012219215814292491","0.0035449495687559845","0.0005593394111579434","-0.006038212857700758","0.005010970889768817","-0.1727605457486115","0.1527406919726954","0.8798429788657974"
"0.001192405839633134","0.010047569328421279","0.001697374980325958","-0.003069263829093165","-0.006572636090097072","0.0015145596822745415","-0.16771719335771357","0.15223937071666108","0.8812648587404812"
"0.0015515374508894147","0.00864467759655269","0.0041715470761667485","-0.0035961766848611213","-0.008293177342984267","0.001723271672171472","-0.17420946466754336","0.15080137027172047","0.8824742738063044"
"0.000979622767012121","0.011910093513534241","0.0021624697682920218","-0.0032349530351550417","-0.0029441584249109893","0.0006627235374626513","-0.17128376300431536","0.14855861728419842","0.8817061318050382"
