"AccX","AccY","AccZ","GyroX","GyroY","GyroZ","MagX","MagY","MagZ"
"0.0009825112250115117","0.002945214401974295","0.0182914696154438","0.0019267326672281608","-0.005392261982538352","0.00038193310454317635","-0.22737364346220126","-0.5829614439223355","-0.8326397239991221"
"0.0011192315703155002","0.004116347505666873","0.01736499749341193","0.0002341225964705397","-0.002019149113127848","-0.0017309117606227266","-0.22163369543720135","-0.58330445320278","-0.8337674218307679"
"0.0010489457589972569","0.003958940269588563","0.01798230136607204","0.000574358304909049","-0.004336339321843081","-0.00174765725748655","-0.21809498961596382","-0.5825128933248311","-0.832378228849755"
"0.0009815484056783872","0.0030237725995762655","0.017981268739988635","0.0010641090261390143","-0.010024009773208244","0.0007775151319059629","-0.218930904376886","-0.5821434987151216","-0.8332607749788691"
"0.0009805855863452455","0.0031792582084489212","0.018135956127282856","-0.0006253239709404883","-0.003699722305195434","-0.0013185842363961163","-0.2224696101981237","-0.581088085544523","-0.8335876439155779"
"0.00105664831366227","0.002091097851344277","0.017056861870123577","-0.0007881249282040762","-0.00306932786089096","-0.0017483853225675856","-0.21851294699642493","-0.5818400674285744","-0.8323945722965903"
"0.0012646172896176435","0.004114363555416711","0.018610964125649616","0.0013654496507605573","-0.004342561894186254","-0.004316270863380866","-0.21809498961596382","-0.5823545813492413","-0.832378228849755"
"0.001052797036329755","0.0029487564283371503","0.01674480226771828","0.0009385664783733616","-0.00033690061312171584","-0.003437981687291341","-0.2188473129007937","-0.5806791129409159","-0.8311197834434255"
"0.0013397171976015263","0.00349141356403988","0.018615714205633283","0.0022518532069556213","-0.006238771150915317","0.0020916726031755886","-0.22280397610249264","-0.5831329485625578","-0.8338001087244387"
"0.001052797036329755","0.0031798814388939987","0.017984160093022172","0.0005540442883610792","-0.004545752814161386","0.0008168306462818964","-0.22433648649751683","-0.5811144708737879","-0.832558006764945"
"0.0014167427442516754","0.0021699365026465315","0.01738213908639647","0.0018019603191420522","-0.004136738347450548","-0.004539058778177821","-0.22163369543720135","-0.5811276635384204","-0.8324762895307677"
"0.0015515374508894147","0.003962347262688318","0.0173839978133466","-2.341292137694544e-05","-0.0037088168340046867","-0.0017440169320813708","-0.2204634147719102","-0.5831593338918226","-0.8333098053193754"
"0.0008409767830418665","0.002089539775231584","0.017357562585611407","0.0009456908254091426","-0.0024415660433470578","-0.004313115914696378","-0.2203519594704538","-0.583713425806387","-0.8320023295725396"
"0.0015505746315562902","0.0046596174846405955","0.01924189866261069","0.00024346126758500924","-0.009187073793051545","-0.003919718082576698","-0.22079778067627914","-0.5823413886846088","-0.8322474812750712"
"0.0012703942056164076","0.0025588323003746523","0.017374910703812627","0.00041685247044232545","-0.0016012794473132647","-0.002592212751488082","-0.21968322766171605","-0.5819851867395318","-0.8328521888079827"
"0.001273282663615781","0.0022455551299825553","0.01815061941766722","0.000930094281898379","-0.004130755104812882","-0.0028251935774195394","-0.22029623181972574","-0.583739811135652","-0.8311524703370964"
"0.001410965828252911","0.0034920471816590414","0.01846371164615592","0.001437944695597625","-0.004554608013265132","-0.0026077448065501795","-0.21656247922093963","-0.5837002331417545","-0.8329829363826664"
"0.001269431386283283","0.002715886372534086","0.01675471547811898","-0.0012982859409419543","-0.007073313834016951","-0.002630800200782979","-0.22007332121681306","-0.5806395349470186","-0.8322311378282359"
"0.000979622767012121","0.003490561815764941","0.01829023046414371","0.0017762549048372747","-0.005392979971654872","-0.002185224371189068","-0.21789994283841524","-0.5802569476726765","-0.8338981694054515"
"0.001263654470284519","0.0039621083576843715","0.016906718037596344","0.00014940063172071285","-0.004970323711730155","-0.001967047535238672","-0.21723121102967735","-0.5805471862945911","-0.8355978878763378"
"0.0009873253216771342","0.0017769897070254103","0.018139260530749754","0.00024817874062221557","-0.004546710132983413","-0.003044341166811317","-0.2170361642521288","-0.5792938831545053","-0.8321494205940586"
"0.0012655801089507678","0.003803381950497315","0.01830179587627786","-5.8908786673220856e-06","-0.0037064235369496197","-0.0038854990237680155","-0.21567083680928922","-0.5787134059106761","-0.8346989983003883"
"0.0010556854943291284","0.0024787471881822427","0.017985812294755623","0.0008958203961586764","-0.007917908364749865","0.0007896495499232263","-0.2141940540649931","-0.5776975707339749","-0.8348787762155783"
"0.0010499085783303814","0.0036473146598759204","0.017982920941722085","0.0009291315322989492","-0.008762742225188283","-0.0034935573218104073","-0.2172869386804054","-0.5786870205814111","-0.835385423067477"
"0.000979622767012121","0.0016928535969399994","0.017990355849522608","0.000659080269658876","-0.007943277313533566","-0.0019721439908059225","-0.21987827443926447","-0.5788585252216334","-0.8326397239991221"
"0.0012665429282838923","0.002236206673306398","0.019551066911982443","-0.0012944349425442348","-0.005201994866660577","-0.003877247619516276","-0.21695257277603647","-0.5784759379472914","-0.8347153417472237"
"0.0010470201203309907","0.0025514574067745733","0.01737160630034573","-0.0004490445192848825","-0.0024633450465481608","-0.002144210038290718","-0.2147791943976385","-0.5770907081608807","-0.8359574437067175"
"0.0011192315703155002","0.0024725148837314716","0.01799469287907291","-0.00044086114768972874","-0.0003577222975007931","-0.002985853271968107","-0.2135531860816193","-0.5793070758191378","-0.8361208781750721"
"0.0012626916509513944","0.0025522883807013426","0.01738089993509638","0.0002534738634190797","-0.0058402871912467715","-0.004523526723115724","-0.21675752599848805","-0.5763783042707266","-0.8364477471117809"
"0.0011192315703155002","0.0023952343085419095","0.017684905054051108","-0.0009621900557809932","-0.0018305573051886196","-0.002140327024525193","-0.21199281186123087","-0.5776448000754449","-0.8352219885991226"
"0.000977697128345872","0.0022372453907148603","0.018454004960971906","0.00041569717092300966","-0.009628397770005778","-0.003908554418000815","-0.21411046258890076","-0.5773809467827953","-0.8374446973687434"
"0.0018336435154955636","0.003488972578129994","0.017713405533953116","-0.00048649547870270376","-0.004576626346171743","0.001699488212857636","-0.21059962059302703","-0.5759033683439573","-0.836480434005452"
"0.0011201943896486247","0.002238803466827553","0.017995312454722957","0.002288148866854127","-0.004579258972932315","-0.0021597420933528147","-0.21324668400261432","-0.5760748729841796","-0.8356959485573505"
"0.0011182687509823756","0.00270622630063539","0.01799407330342287","0.0014861784505290608","-0.0007822931950695627","0.0017237570488921627","-0.21430550936644918","-0.5769587815145559","-0.8348624327687427"
"0.0014071145509204131","0.0024737613446216256","0.018007084392073786","0.00179608754658553","-0.004582609588809408","-0.0047288410759678216","-0.21238290541632818","-0.5747819918501962","-0.8339471997459578"
"0.001050871397663506","0.0019249030659903791","0.01892281720283823","-0.0009627677055406508","-0.0070960501560400815","-0.0026075021181898345","-0.2141940540649931","-0.5759957169963845","-0.838310900051022"
"0.001267505747617034","0.0017709651460563315","0.01846742910005618","0.00226696837566667","-0.01174239705874588","-0.0002852171980459653","-0.21528074325419191","-0.5770379375023507","-0.8374773842624141"
"0.0014042260929210224","0.0031748955953333816","0.018005432190340336","0.0003841189840617105","-0.004996410649630379","-1.7289248224789512e-05","-0.2114355353539494","-0.5750326524782133","-0.8369380505168444"
"0.0010518342169966305","0.0016146381760828211","0.01830365460322799","0.0019454100094570997","-0.006684163732863164","-0.0021774583436580193","-0.21383182433526005","-0.5746368725392389","-0.8380820917953256"
"0.001115380292983002","0.003328854289615599","0.018302621977144586","-0.0008223988139437787","-0.010466051739279","0.0003731963235707466","-0.21140767152858544","-0.5758901756793248","-0.8369380505168444"
"0.0013329774622696377","0.003171997573763773","0.019242105187827367","0.00038065308550376304","-0.007523014350663917","-3.4520121809303504e-05","-0.2128287266221532","-0.5740827806246747","-0.834176008001654"
"0.001052797036329755","0.0013036461839893406","0.017994279828639548","0.0019457951092968716","-0.002681613737970212","-0.0017226603563709872","-0.209847297308197","-0.575731863703735","-0.8366765553674774"
"0.0014119286475860356","0.0033359071808190545","0.018619018609100185","-0.0014947831341855866","-0.005807738351297869","-4.811066998863863e-05","-0.2116863097822262","-0.5749271111611535","-0.8367582726016546"
"0.0013474197522665395","0.0018543741539558186","0.01908431992228293","0.0009129573390285275","-0.004551496727093546","-0.0009021310100436363","-0.21475133057227455","-0.5757582490329999","-0.8366275250269709"
"0.000841939602375008","0.002164950659085915","0.018597126936131976","0.0010824975434881245","-0.006652811541441795","-0.0009154788698626259","-0.21174203743295422","-0.5757582490329999","-0.8376081318370978"
"0.0011327110409792775","0.0017753277591718714","0.01923033325047654","0.0006568659455801873","-0.00876154557666075","-0.0013603266343755018","-0.21603306653902196","-0.5755339737342478","-0.8383762738383638"
"0.0014128914669191601","0.0030249359630737426","0.018309850359728427","-0.00027883039010568483","-0.003284963925552437","-0.001744987685522752","-0.21391541581135234","-0.5771434788194106","-0.8363823733244392"
"0.0014071145509204131","0.002937932992940977","0.019555610466749432","0.0007225254682613031","-0.00836760888139683","-4.131539589897107e-05","-0.2126615436699689","-0.5746632578685039","-0.8376244752839334"
"0.0015515374508894147","0.002550314817625265","0.018942850148856306","-0.0006230133719018565","-0.003310811533747153","-0.002149791870578659","-0.21018166321256593","-0.5754152397525554","-0.8358266961320342"
"0.0008361626863762439","0.0017691993264619462","0.018448841830554875","0.0012621466187417345","-0.00372987784808927","-0.0021556163912269453","-0.20995875260965358","-0.5766949282219062","-0.8332280880851981"
"0.0015505746315562902","0.002706122428894544","0.018942643623639625","-0.0011387583323164278","-0.0033088968961031","-0.001934769983312752","-0.2103488461647504","-0.5724864682041443","-0.8367092422611482"
"0.0011221200283148907","0.0019278114747340721","0.0176861442053512","-0.00038040047284553413","-0.007098204123389641","-0.00046650540322388026","-0.2134974584308911","-0.57379254200276","-0.8380820917953256"
"0.0010441316623316173","0.003327254664806567","0.01891930627415465","0.0003705442147097496","-0.0009878774120997604","0.0017256985557749247","-0.2119649480358669","-0.5741355512832046","-0.8384743345193765"
"0.0014090401895866622","0.0022390112103092457","0.018472592230473213","-0.00029086476009855793","-0.004152294778308479","-0.0008722803417211684","-0.21497424117518724","-0.5748215698440937","-0.837689849071275"
"0.0011259713056473888","0.0012243920457237006","0.01877246684509432","-0.0006902132939420603","-0.00836330094669771","-0.004333016360244689","-0.2073116892000663","-0.5731592941004008","-0.837689849071275"
"0.0006907769670741006","0.002080191318555427","0.018442026498404398","0.0012634944681809363","-0.006045632078571463","-0.002598765337217405","-0.21575442828538122","-0.5751381937952732","-0.8381474655826676"
"0.0015505746315562902","0.0028619300401638236","0.018942230573206265","0.00044332808442664633","-0.0024681316406582944","0.0032116793861690003","-0.21344173078016304","-0.5734759180515804","-0.837215889113047"
"0.0010576111329953946","0.0006008499854240456","0.01877081464336087","0.0010826900934080104","-0.00331033287433614","-0.0008734937835228947","-0.20892779107118248","-0.5736078446979053","-0.839258819967478"
"0.001471623446239892","0.0041094192605524325","0.01831625264144554","0.0003724697139086093","-0.007102751387794267","0.0008289650642991597","-0.21202067568659513","-0.572592009521204","-0.8384743345193765"
"0.001117305931649251","0.0027075766332663904","0.017374291128162585","0.000709817173548829","-0.005414519645150469","0.0021188536995342586","-0.2125779521938766","-0.5747028358624013","-0.8365458077927937"
"0.0012655801089507678","0.0019278114747340721","0.018002127786873434","-0.0002981816570542248","-0.0060463500676879835","-3.0879796404124635e-05","-0.21126835240176509","-0.5742674779295294","-0.8397491233725414"
"0.0006898141477409762","0.0020805029337779657","0.018286926060676813","0.0008896587987223252","-0.009202630223909478","0.0008049389166249782","-0.2060856808840468","-0.5757186710391025","-0.837869626986465"
"0.0011221200283148907","0.0018492844386543553","0.017996138555589684","6.32345425717412e-05","-0.005415237634266989","-0.0021679934976045535","-0.20806401248489617","-0.5743466339173242","-0.8379350007738067"
"0.0010585739523285191","0.00052066100149079","0.019855898131803898","0.000574358304909049","-0.004572557741178129","-0.00173892047651412","-0.21046030146620667","-0.5742806705941619","-0.8392915068611487"
"0.001263654470284519","0.0022414002603487076","0.017071731685724623","0.0017569036378887349","-0.005421220876904655","-2.5055275755838065e-05","-0.20889992724581855","-0.5746368725392389","-0.8392424765206424"
"0.001263654470284519","0.0023952343085419095","0.01800109516079003","0.0019402111616201787","-0.0066863177002127235","-0.0017457157506037876","-0.2095407952291923","-0.5753624690940254","-0.8375427580497561"
"0.0012665429282838923","0.0019264611421030717","0.0186221164873504","0.0017343752972620765","-0.009211246093307715","0.002089003031211791","-0.21118476092567276","-0.5749798818196835","-0.8388829206902626"
"0.0013377915589352773","0.001697008466573847","0.016766074365036448","0.001338011287176807","-0.00036538084807700473","-0.00042039461475827953","-0.2102373908632943","-0.5750590378074784","-0.8362679691965911"
"0.0014042260929210224","0.0028648799976038544","0.017231375678219193","-0.0008146968171483399","-0.0033074609178700607","0.00042076324219841903","-0.20770178275516313","-0.5743334412526918","-0.8383599303915283"
"0.0010556854943291284","0.000835911734958965","0.01815041289245054","0.001770189582360867","-0.004998325287274431","-0.0013127597157478299","-0.21082253119593972","-0.5746368725392389","-0.8388665772434271"
"0.0008361626863762439","0.0014591421800360807","0.017674785318433733","0.0003481121490430341","-0.004150619470369933","-0.005158884850499636","-0.20678227651814862","-0.5733967620637855","-0.8357449788978568"
"0.001401337634921649","0.003952334026870745","0.018778456076378073","0.00107171474797451","-0.007105144684849333","-0.0008846574480987772","-0.20848196986535744","-0.5749930744843159","-0.8388012034560854"
"0.001267505747617034","0.0014619467170389278","0.017228484325185655","0.0015657978424019096","-0.004787475816723088","0.0025454998370212393","-0.20527762994848853","-0.5754020470879229","-0.8374120104750724"
"0.0010489457589972569","0.002084034572966736","0.017372638926429134","-0.0004731132592706288","-0.006885918674605257","0.0003921260156776774","-0.20474821726657103","-0.5746236798746065","-0.8404192046927945"
"0.001544797715557526","0.003953258485364277","0.018629551395150927","0.00038845135725914485","-0.010475624927499264","-0.0013370285517823564","-0.20226833680916823","-0.5760484876549146","-0.8390626986054525"
"0.000979622767012121","0.00161494979130536","0.017990562374739286","-0.00046541126247518996","-0.0041467901950818275","-0.00023279651221138738","-0.2091228378487312","-0.577235827471838","-0.8379513442206422"
"0.0010470201203309907","0.0027052914549677747","0.018300969775411135","0.00177673627963699","-0.009632945034410404","-0.003049680310738912","-0.20675441269278466","-0.5792806904898729","-0.838310900051022"
"0.0014023004542547733","0.003332001603363238","0.017385236964646687","-0.0005655372208158944","-0.0016221011316923412","0.0012915290791172403","-0.2056955873289498","-0.5765498089109489","-0.8385070214130474"
"0.0008294229510443553","0.003092629176583202","0.01891063221505404","0.00038748860765971493","-0.009202869553614984","-0.0009031017634850171","-0.2055005405514012","-0.5786606352521462","-0.83677461604849"
"0.0014100030089197865","0.0019284347051791494","0.01800832354337387","0.0006529186722225249","-0.005419784898671615","-0.0010970097634008865","-0.20959652287992053","-0.5758505976854273","-0.8386214255408954"
"0.0014080773702535377","0.0023948188215785243","0.01847217918003985","0.0009728403641130643","-0.0058402871912467715","0.0012580380853895934","-0.20463676196511477","-0.5758505976854273","-0.8393405372016552"
"0.0010556854943291284","0.0009900573983747047","0.018924882455005045","0.0003763207123063287","-0.006255763560006289","0.0012490586160568186","-0.20427453223538172","-0.5775260660937526","-0.8406153260548199"
"0.0013368287396021527","0.0023932607454658318","0.0190890700022666","0.0015938138557453183","-0.005000000595212979","-0.0013052363765771262","-0.2073952806761583","-0.5748083771794612","-0.839634719244693"
"0.001052797036329755","0.0017672257633858685","0.01985280025355368","0.0008643384842573202","-0.006465655711735607","0.0038215552357166588","-0.20561199585285747","-0.5789508738740607","-0.8382782131573512"
"0.001263654470284519","0.0024725148837314716","0.018310882985811832","0.0007286870656976541","-0.00373203181543883","-1.146472757650294e-05","-0.20725596154933792","-0.577209442142573","-0.8389809813712752"
"0.0012665429282838923","0.0016174427130856684","0.017383171712479873","0.0010753731964523435","-0.0024698069485968406","-7.09633709028817e-06","-0.20714450624788167","-0.5769192035206584","-0.837248576006718"
"0.0009786599476789965","0.0018486612082092785","0.017989942799089245","-0.0006416907141307956","-0.007937772730306915","-4.447034458345934e-05","-0.2073116892000663","-0.5755075884049827","-0.8387685165624145"
"0.001405188912254147","0.0031729531937795576","0.018935208715839102","0.0014129132060124493","-0.00331392281991874","-0.00021896327567170698","-0.20460889813975067","-0.5780537726790519","-0.8399779316282374"
"0.001052797036329755","0.0016140149456377443","0.018613442428249794","-0.00028922808577952724","-0.003726766561917684","-0.0008720376533608233","-0.20452530666365865","-0.575731863703735","-0.8378205966459585"
"0.001263654470284519","0.0027821565431939525","0.019239833410443875","0.0009532965472446383","-0.004572797070883636","0.003410926530012465","-0.2065872297406002","-0.5756659003805725","-0.8396183757978576"
"0.0008361626863762439","0.0013046849013978025","0.01705520966839013","0.0006689965905330034","-0.004993299363458793","-0.0025960957652536067","-0.20307638774472647","-0.5767081208865387","-0.8395039716700097"
"0.0012665429282838923","0.002157575765485836","0.01986126778743761","0.00020119656017003883","-0.0033074609178700607","0.0014898054695193243","-0.20809187631026013","-0.5768400475328634","-0.8396510626915286"
"0.0012703942056164076","0.0011467998553116","0.018933763039322333","0.0010692115990159924","-0.0045756690273497155","0.00040498849877597664","-0.20575131497967786","-0.5765366162463165","-0.8391607592864653"
"0.0012598031929520036","0.003482677950634715","0.019548175558948905","-0.0003790526234063323","-0.00646685236026314","-0.0013103328321443768","-0.20572345115431373","-0.5757054783744701","-0.8382945566041865"
"0.0014128914669191601","0.0011506431097229085","0.017390400095063718","0.0010798981195696638","-0.0028934205273435827","-0.0004407804370272818","-0.20260270271353717","-0.5769192035206584","-0.8384253041788701"
"0.0011201943896486247","0.0023936762324292165","0.018459787667038978","-0.0007989077237176902","-0.008782367261039826","-0.00197481356276972","-0.20725596154933792","-0.5785550939350863","-0.8396183757978576"
"0.0012646172896176435","0.0023935723606883703","0.018775977773777895","-0.0002925014344175887","-0.005203670174599124","-0.0008788329274504905","-0.2027698856657218","-0.5781856993253768","-0.8416613066522886"
"0.0008371255057093685","0.001458518949591004","0.017984779668672214","0.0017673013335625775","-0.002045714710439085","-0.0008606313004245953","-0.2030485239193625","-0.5778954607034621","-0.8397164364788702"
"0.0015496118122231657","0.002476565881624473","0.016928609710564552","0.0014189785284888573","-0.0037384937174875085","-0.0004407804370272818","-0.20463676196511477","-0.5775260660937526","-0.8401903964370984"
"0.000977697128345872","0.0024683600140976243","0.01969315626105911","0.000406936149568198","-0.00836330094669771","-0.0030411862181268278","-0.20463676196511477","-0.5766949282219062","-0.8397654668193767"
"0.001267505747617034","0.0014610118713713123","0.01769337258793504","0.0005651159087545225","-0.00036155157278889975","-0.00020707154601478896","-0.20472035344120706","-0.5759825243317521","-0.8406316695016555"
"0.0014764375429055319","0.003173254421828012","0.01893830659408932","-0.00038559932068245534","-0.004994496011986325","-0.0002310976936889703","-0.20625286383623126","-0.5763123409475641","-0.8406806998421618"
"0.0009815484056783872","0.0014571686169600033","0.01892075195067142","0.001342151110454355","-0.006680813116986071","-0.001749598764369312","-0.20349434512518758","-0.5765102309170514","-0.8401740529902628"
"0.0013349031009359036","0.0024746961902892416","0.017384204338563282","0.0007441873342484747","-0.0045771050055827545","-0.0017311544489830711","-0.2066150935659643","-0.5761540289719744","-0.8402557702244401"
"0.001052797036329755","0.0016126646130067439","0.019233431128726757","-0.0007290121027990831","-0.00878069195310128","-5.078024195243651e-05","-0.20341075364909555","-0.5769060108560259","-0.8388665772434271"
"0.0016940347121921844","0.00317221570441955","0.019877376754338743","0.0009166157875063611","-0.008372874134917977","-0.002824222823978158","-0.20419094075928956","-0.5782252773192742","-0.8397491233725414"
"0.0009825112250115117","0.0009929658071183979","0.01737222587599577","0.001776351179797218","-0.0024700462783023465","-0.0017229030447313324","-0.20502685552021174","-0.576853240197496","-0.8402067398839338"
"0.0015525002702225393","0.002395130436801063","0.01863326884905119","0.0005447056172466097","-0.005840526520952278","0.0012580380853895934","-0.20614140853477483","-0.5771962494779406","-0.8396020323510223"
"0.0012626916509513944","0.002396792384654602","0.017226212547802162","-0.00030771287808858033","-0.0037284418698562303","0.0012723566986499641","-0.20527762994848853","-0.5769060108560259","-0.8380657483484903"
"0.0012607660122851453","0.003017831135999864","0.018309643834511745","-0.0006529548844441249","-0.008782845920450841","0.0008117341907146457","-0.20104232849314901","-0.5792806904898729","-0.8394549413295032"
"0.0012655801089507678","0.0019278114747340721","0.018002127786873434","0.0015767731878354098","-0.0016276057149189943","0.001285704558468954","-0.2053054937738525","-0.5780669653436844","-0.8391444158396296"
"0.001050871397663506","0.0019262533986213796","0.018302828502361264","-0.0007217914808033591","-0.0045680104767735034","-0.0004483037761979853","-0.2045531704890226","-0.57756564408765","-0.8391117289459588"
"0.0015544259088888053","0.0020828919838174276","0.018944089300156394","0.0003075803909070374","-0.0045771050055827545","-0.0008759206671263473","-0.20583490645577016","-0.5774996807644877","-0.840876821204187"
"0.001267505747617034","0.0017712767612788698","0.01831253518754528","4.879329858029344e-05","-0.002044996721322564","-0.000217021768788945","-0.20485967256802745","-0.577262212801103","-0.8378369400927939"
"0.0012617288316182698","0.002861369132763254","0.01861984470996691","4.4557200342802115e-05","-0.003518789047832418","-0.00022211822435619567","-0.2041073492831974","-0.577592029416915","-0.8382455262636802"
"0.0012655801089507678","0.0021601725590069906","0.01862149691170036","0.0005612649103568031","-0.006681052446691578","-0.0006761881465621921","-0.2026305665389014","-0.5790828005203855","-0.8399289012877311"
"0.0011192315703155002","0.0024725148837314716","0.01799469287907291","0.00019705673689249045","-0.009205023520964542","0.0016628422704455003","-0.20243551976135285","-0.5785023232765563","-0.8422823576320354"
"0.001696923170191558","0.0020860081360428136","0.017710514180919578","0.0008942799967995884","-0.0037375363986654826","0.0008425556124784947","-0.20232406445989642","-0.5763651116060942","-0.8397000930320351"
"0.0011201943896486247","0.002625725701479596","0.0192340507043768","0.0007497712819251679","-0.007944952621472113","-0.0030377885810819938","-0.2053890852499448","-0.5777107633986074","-0.839994275075073"
"0.0012646172896176435","0.002161522891637991","0.018001714736440074","-0.00031522232496413317","-0.003306264269342527","0.0021312308059118676","-0.20575131497967786","-0.5766949282219062","-0.839373224095326"
"0.0011259713056473888","0.001455818284329003","0.019856724232670625","0.0006591765446188189","-0.007523014350663917","-0.002183525552666651","-0.2057791788050421","-0.5800458650385568","-0.8413017508219087"
"0.000977697128345872","0.0021596532003027593","0.018299111048461002","0.0010755657463722295","-0.00372987784808927","-0.00044102312538762733","-0.20307638774472647","-0.5790564151911206","-0.8407951039700099"
"0.000979622767012121","0.0017691993264619462","0.018765031937293793","-0.00045963476487861075","-0.004357400335927666","-0.0010897291125905287","-0.20380084720419256","-0.5782384699839067","-0.8397327799257058"
"0.0011211572089817661","0.0022381802363824763","0.018305100279744756","0.0007410102605703563","-0.007944713291766606","-0.0017554232850175984","-0.2041630769339256","-0.5792543051606078","-0.8397491233725414"
"0.001405188912254147","0.0028632699856207386","0.01800625829120706","0.0010886591409244753","-0.004157320702124118","-0.0021541602610648737","-0.2025469750628091","-0.5786210572582486","-0.8384089607320346"
