"AccX","AccY","AccZ","GyroX","GyroY","GyroZ","MagX","MagY","MagZ"
"-19.213","-5.7445","-2.9824","0.28523","-1.2652","0.82144","0.90499","-0.22021","-0.31105"
"-8.0569","-9.4122","-0.80175","0.64452","-0.47195","0.61478","0.88272","-0.25889","-0.35013"
"-2.4169","-3.4744","-3.8504","0.30152","0.27589","0.46223","0.87994","-0.28022","-0.34693"
"3.8948","-1.3873","-2.4607","0.52978","0.16872","0.17946","0.88017","-0.29681","-0.32859"
"-0.57452","2.4822","1.3363","0.89513","0.1707","0.028527","0.88314","-0.31012","-0.30838"
"-1.4295","2.0092","1.0293","-0.13447","-0.047331","0.23442","0.8824","-0.31603","-0.30514"
"-1.6118","-5.9595","-3.4774","0.82763","-0.49128","-0.10885","0.87758","-0.31813","-0.30999"
"-13.516","7.7234","-6.2413","0.35394","1.5365","-0.4204","0.88595","-0.31111","-0.29538"
"-40.649","-30.499","12.792","1.1996","-1.428","-0.99085","0.89313","-0.30046","-0.27995"
"-14.922","21.012","4.3337","-0.14736","2.8011","0.61611","0.89596","-0.28984","-0.28269"
"-9.7354","4.6986","-2.8987","-3.1202","-1.4981","0.3469","0.88949","-0.2916","-0.29944"
"-5.0883","-8.7214","0.60985","-0.55118","-0.13982","0.46664","0.87834","-0.27699","-0.3448"
"-5.2889","-2.4855","-0.84837","1.4233","-0.30444","0.46503","0.87074","-0.30503","-0.34006"
"-4.8974","-1.0513","-1.3533","0.89303","0.062615","0.4604","0.85775","-0.33802","-0.34499"
"-7.4137","-1.312","-0.34324","0.7815","0.10794","0.21069","0.85249","-0.35644","-0.3335"
"-10.314","1.5363","0.74344","0.46423","0.039441","0.12539","0.84983","-0.373","-0.32236"
"-18.451","-1.3127","3.93","-0.15383","-0.24155","0.15418","0.85131","-0.38699","-0.30087"
"-10.926","-0.14139","-1.4378","-0.64032","0.080453","0.56465","0.84672","-0.39508","-0.30745"
"-7.2495","-1.9873","0.30763","-1.3288","-0.050442","0.040215","0.83546","-0.38683","-0.34099"
"-7.615","-1.2695","0.58725","0.21926","-0.11668","-0.33021","0.83813","-0.37001","-0.352"
"-9.2598","0.2299","1.2433","0.65849","0.10283","-0.21336","0.84309","-0.36926","-0.34173"
"-10.062","-0.034307","0.96758","0.76363","0.23693","-0.34803","0.8496","-0.37314","-0.32184"
"-11.426","0.004947","0.10797","0.27844","0.10107","-0.26393","0.85729","-0.36901","-0.30614"
"-10.318","-0.82344","0.54278","-0.7194","-0.049342","-0.058525","0.8574","-0.36022","-0.31209"
"-8.7795","-3.1003","0.20407","-0.20534","0.006186","-0.13419","0.85962","-0.34966","-0.32314"
"-9.0031","-2.081","-0.45434","-0.023777","0.16041","-0.16793","0.86153","-0.34393","-0.3195"
"-9.1862","-3.7365","-1.0446","0.040248","0.16511","-0.21766","0.86641","-0.33661","-0.31461"
"-9.3013","-5.4994","-0.88693","0.58701","0.26912","-0.31587","0.87387","-0.33064","-0.30159"
"-8.6482","-4.4705","-1.1794","0.95245","0.3475","-0.48572","0.88295","-0.32799","-0.27792"
"-8.3783","-3.8413","-2.0472","0.40505","0.30952","-0.57705","0.89317","-0.31708","-0.25885"
"-8.0448","-2.7452","0.2025","-0.035643","0.44669","-0.70184","0.90454","-0.29698","-0.24412"
"-9.2103","-1.0824","0.49358","-0.61938","0.35874","-0.61641","0.91747","-0.27113","-0.22866"
"-11.398","2.7881","0.95262","-1.2105","0.54475","-0.46726","0.92749","-0.2416","-0.21981"
"-17.126","8.001","2.5283","-0.66905","-0.060349","0.27325","0.93317","-0.22801","-0.2154"
"-20.887","2.2329","3.6594","-0.094343","-1.1509","0.34247","0.92029","-0.24248","-0.24989"
"-18.138","-1.194","1.6049","-0.017577","-0.92325","0.44669","0.90407","-0.25547","-0.29372"
"-13.066","-3.5377","-1.4233","0.21634","-0.43511","0.49599","0.88992","-0.2762","-0.31432"
"-6.3108","-4.0769","-1.5198","0.431","-0.077014","0.35644","0.88258","-0.29476","-0.32053"
"4.3865","-6.7336","-3.7517","-0.21026","-0.050858","0.22682","0.87911","-0.30402","-0.32639"
"-0.31916","3.1475","0.85689","1.0757","0.44274","-0.24069","0.88605","-0.30319","-0.30697"
"-0.68022","2.4409","0.49031","0.042151","-0.027723","0.20571","0.88592","-0.31161","-0.29945"
"-2.9041","-1.3046","0.069129","0.026131","-0.25293","0.2063","0.88127","-0.32053","-0.2997"
"-12.943","0.85487","-5.9513","-0.41255","0.64741","0.071224","0.87826","-0.32208","-0.30503"
"-18.154","-1.0999","0.3499","-0.20178","-0.19991","0.44021","0.88286","-0.32019","-0.29044"
"-19.562","-5.5151","8.8004","-0.662","-0.75425","0.15274","0.87762","-0.32509","-0.30526"
"-11.636","8.323","1.3819","-0.39291","0.4354","0.43619","0.87204","-0.33071","-0.31046"
"-7.8293","0.82533","-0.053161","-0.50063","0.007579","0.48462","0.87283","-0.33744","-0.30084"
"-5.8261","-2.0473","0.61538","-0.19373","-0.29531","0.41413","0.86402","-0.34603","-0.31464"
"-6.3885","-1.2077","-1.6404","0.39405","0.20228","0.34746","0.85521","-0.36188","-0.31884"
"-10.248","-2.9999","-0.91113","0.35267","-0.063718","0.17937","0.85247","-0.37606","-0.31196"
"-12.66","-3.6654","0.36856","0.65384","-0.063729","-0.16937","0.85228","-0.37844","-0.30771"
"-9.9299","-1.6031","0.83112","0.72068","0.32281","-0.083235","0.85466","-0.38671","-0.2838"
"-9.42","-0.46507","-0.60643","0.11781","0.25123","-0.14041","0.86071","-0.3864","-0.26598"
"-9.8679","0.16285","-0.13421","-0.72202","0.01681","-0.23742","0.86412","-0.37851","-0.26838"
"-9.7955","-1.3466","-0.077294","-0.42689","-0.13016","-0.20292","0.86813","-0.36166","-0.28107"
"-9.6311","-1.9023","0.53655","0.84725","0.1398","-0.20067","0.87158","-0.3596","-0.2731"
"-9.8923","-0.67904","-0.73451","0.62637","0.24452","-0.17405","0.87675","-0.35692","-0.25956"
"-10.273","0.10769","-0.91064","-0.045653","0.070125","-0.039561","0.87961","-0.35763","-0.24946"
"-9.5929","-1.1232","-0.14797","-0.16692","-0.038723","0.01765","0.88089","-0.35816","-0.24651"
"-9.5867","-1.8249","-0.28422","-0.018887","0.013682","0.099063","0.87881","-0.35949","-0.24629"
"-9.8862","-1.6135","-0.5427","0.16739","0.045506","0.08266","0.87726","-0.36434","-0.24493"
"-9.8107","-1.3003","-0.48082","0.14534","0.030659","0.10699","0.87731","-0.36785","-0.24671"
"-9.467","-1.765","-0.49121","0.18662","-0.013878","0.11731","0.87516","-0.37233","-0.24433"
"-9.4671","-1.7945","-0.60334","0.019314","0.05851","0.093782","0.87382","-0.3801","-0.23699"
"-8.9606","-3.2295","-1.0693","-0.040492","0.083075","-0.003768","0.87319","-0.38195","-0.23513"
"-8.4698","-4.8871","-1.9171","0.14239","0.11466","-0.28637","0.87661","-0.37765","-0.23089"
"-7.8863","-4.9795","-2.1151","0.60224","0.23478","-0.62703","0.88537","-0.364","-0.22303"
"-7.2844","-3.8499","-1.2428","0.57082","0.25051","-0.7176","0.89797","-0.34733","-0.20293"
"-8.1773","-0.77859","-0.38307","-0.4413","0.68853","-0.815","0.91103","-0.32282","-0.1823"
"-11.643","4.6795","0.6787","-0.81902","0.76708","-0.6729","0.92766","-0.29061","-0.15657"
"-13.437","5.8247","2.407","-1.0672","0.12939","-0.058002","0.93283","-0.27308","-0.15489"
"-17.857","5.3591","2.6299","-0.55188","-0.63081","0.21354","0.92813","-0.26956","-0.17537"
"-22.103","2.2756","1.4293","0.17755","-1.0289","0.18126","0.91801","-0.27487","-0.21008"
"-19.04","-1.0579","-2.1137","0.26082","-0.62316","0.40769","0.90997","-0.29252","-0.23304"
"-10.521","-5.063","-0.33711","0.11848","-0.71498","0.31603","0.89792","-0.30705","-0.25975"
"-10.326","-8.727","12.806","0.28898","0.10149","-0.1047","0.86766","-0.28266","-0.30408"
"-8.7651","-2.4866","4.3153","-0.72638","0.24065","-0.44993","0.84908","-0.29422","-0.27778"
"-9.011","-1.0547","-2.8923","-0.19914","0.098193","-0.97184","0.84726","-0.31363","-0.27686"
"-9.1902","-1.3252","0.60689","-0.016554","-0.043292","0.60692","0.84674","-0.31556","-0.31709"
"-9.2989","1.5172","-0.85388","0.061646","-0.0053152","0.37346","0.83696","-0.32253","-0.36231"
"-8.6275","-1.3119","-1.3685","0.60156","0.15935","0.47359","0.85302","-0.32511","-0.35903"
"-8.3937","-0.12835","-0.33944","0.96013","0.16045","0.46795","0.85269","-0.28464","-0.34665"
"-8.0467","-1.9903","0.74699","0.41213","0.26775","0.4581","0.85511","-0.28813","-0.32449"
"-9.2147","-1.2682","3.9499","-0.025065","0.35019","0.2103","0.86678","-0.28494","-0.31415"
"-11.393","0.24062","-1.4494","-0.62415","0.2989","0.12088","0.8647","-0.28166","-0.28899"
"-17.103","-0.040788","0.29863","-1.2142","0.4499","0.13514","0.86635","-0.31078","-0.30721"
"-20.885","-0.0018681","0.57809","-0.67873","0.35855","0.54426","0.87073","-0.35324","-0.33642"
"-18.135","-0.84023","1.2423","-0.09449","0.5458","0.040615","0.86308","-0.35611","-0.35482"
"-13.055","-3.0961","0.9586","-0.024585","-0.049826","-0.32019","0.88125","-0.37603","-0.3573"
"-6.3102","-2.0955","0.10378","0.21629","-1.1593","-0.22863","0.88772","-0.39122","-0.34048"
"4.3852","-3.7317","0.54245","0.43839","-0.93145","-0.36047","0.91233","-0.38453","-0.29948"
"-0.29983","-5.522","0.20019","-0.2066","-0.45918","-0.26442","0.92039","-0.39705","-0.33442"
"-0.68853","-4.469","-0.46277","1.0949","-0.081844","-0.052332","0.9356","-0.37689","-0.3391"
"-2.9039","-3.8615","-1.0294","0.057184","-0.049808","-0.14724","0.92753","-0.37348","-0.31009"
"-12.939","-2.7596","-0.89093","0.031894","0.45365","-0.18485","0.91286","-0.37071","-0.30785"
"-18.162","-1.0764","-1.1719","-0.414","-0.050377","-0.20419","0.90102","-0.37884","-0.30735"
"-19.565","2.7907","-2.0508","-0.20123","-0.26533","-0.32147","0.88873","-0.35825","-0.27513"
"-11.65","7.996","0.20338","-0.65218","0.64395","-0.48319","0.88123","-0.35006","-0.25016"
"-7.8257","2.2538","0.48761","-0.39263","-0.20905","-0.57045","0.8778","-0.34906","-0.26275"
"-5.8408","-1.1992","0.96214","-0.50077","-0.74751","-0.70683","0.87746","-0.3259","-0.22888"
"-6.3868","-3.5299","2.5223","-0.17632","0.43002","-0.61342","0.89203","-0.33295","-0.23423"
"-10.262","-4.0849","3.6624","0.39147","0.019633","-0.46097","0.86999","-0.34122","-0.21078"
"-12.647","-6.7282","1.6086","0.3685","-0.29439","0.27881","0.87031","-0.32253","-0.22959"
"-9.9329","3.1461","-1.4222","0.64957","0.20719","0.35165","0.87566","-0.3025","-0.29774"
"-9.4224","2.425","-1.5193","0.70613","-0.059555","0.45879","0.87273","-0.27416","-0.31709"
"-9.8717","-1.3071","-3.7552","0.12644","-0.067811","0.48962","0.86256","-0.24425","-0.33197"
"-9.7989","0.8682","0.86069","-0.71624","0.33282","0.35374","0.86835","-0.23768","-0.33496"
"-9.6213","-1.0987","0.4901","-0.42921","0.25288","0.24403","0.86816","-0.25865","-0.31232"
"-9.8937","-5.5143","0.071607","0.85297","0.021371","-0.23673","0.86875","-0.25329","-0.30715"
"-10.264","8.3267","-5.9446","0.60932","-0.13315","0.18675","0.8375","-0.28723","-0.28849"
"-9.5876","0.83716","0.34291","-0.058592","0.13905","0.21749","0.85665","-0.29808","-0.30178"
"-9.5766","-2.0359","8.8001","-0.15946","0.25497","0.08164","0.84879","-0.3084","-0.27862"
"-9.8854","-1.2101","1.3811","-0.015706","0.069999","0.43603","0.87601","-0.28608","-0.29856"
"-9.8074","-2.9991","-0.059248","0.17104","-0.043034","0.16073","0.88116","-0.32172","-0.30677"
"-9.448","-3.6671","0.61534","0.13718","0.018322","0.43462","0.87382","-0.30207","-0.30577"
"-9.4565","-1.6018","-1.6521","0.18764","0.041458","0.46884","0.87222","-0.31982","-0.33394"
"-8.9453","-0.46916","-0.89355","0.034974","0.030583","0.41992","0.88455","-0.31931","-0.31488"
"-8.4576","0.17287","0.38526","-0.044063","-0.0096637","0.33945","0.87128","-0.31212","-0.304"
"-7.8963","-1.3623","0.82978","0.16414","0.05263","0.17934","0.8887","-0.32047","-0.3109"
"-7.2773","-1.9024","-0.61426","0.61119","0.116","-0.15497","0.87418","-0.33463","-0.28547"
"-8.1918","-0.68039","-0.14513","0.55838","0.10079","-0.079876","0.87973","-0.3485","-0.2534"
"-11.651","0.10139","-0.08755","-0.43049","0.24653","-0.13246","0.87357","-0.37196","-0.2812"
"-13.44","-1.1303","0.542","-0.82978","0.25456","-0.23957","0.88388","-0.35991","-0.26719"
"-17.854","-1.8176","-0.734","-1.0741","0.6914","-0.2148","0.87276","-0.37219","-0.26105"
"-22.106","-1.6072","-0.9021","-0.55531","0.76485","-0.20095","0.87246","-0.39501","-0.27003"
