"AccX","AccY","AccZ","GyroX","GyroY","GyroZ","MagX","MagY","MagZ"
"-13.485","2.5057","9.4406","0.91998","0.013881","-0.85475","0.80822","0.42478","0.3839"
"-8.465","-6.2514","-13.369","2.4027","-3.7805","1.3747","0.86522","0.39843","0.26183"
"-4.2365","2.6924","4.0218","-0.1036","1.8554","-0.97135","0.84836","0.42291","0.26685"
"-4.2083","2.0106","-1.4987","0.36587","-1.0936","0.080688","0.84901","0.4301","0.27193"
"-6.8795","1.5047","-1.4168","-0.52382","1.1117","-0.46696","0.83929","0.43689","0.29124"
"-10.22","0.88671","-0.27531","-0.004848","0.44129","-0.074487","0.82623","0.44064","0.31457"
"-13.965","-0.40575","-1.4295","-0.60264","0.66219","0.076821","0.80597","0.44206","0.36202"
"-14.453","-1.1374","-0.87583","0.52571","-0.21745","0.11301","0.80107","0.43884","0.37482"
"-7.3004","-2.8133","-5.832","0.51239","-0.59793","0.046003","0.8229","0.43684","0.32548"
"-6.4916","1.9975","-0.52423","-0.28745","0.15444","-0.44173","0.82106","0.44407","0.32343"
"-8.9088","1.833","-2.9434","-0.57912","0.2985","-0.38964","0.8135","0.44684","0.33361"
"-10.968","1.731","-2.0393","-0.49828","0.67005","-0.32518","0.79937","0.45837","0.35374"
"-10.737","0.5395","-2.0334","-0.21516","0.1635","-0.2107","0.79","0.46094","0.37334"
"-9.6848","1.4287","-0.25765","-0.040139","-0.10995","-0.10118","0.78649","0.45907","0.38385"
"-9.4472","0.98651","-1.8955","-0.059373","-0.073949","0.038305","0.78692","0.45816","0.38075"
"-9.193","0.76404","-2.2577","-0.32628","0.12956","-0.008016","0.78762","0.45576","0.38339"
"-9.8886","1.3574","-1.342","-0.4035","0.031458","-0.001457","0.78798","0.45417","0.38497"
"-9.9323","2.9884","-0.44438","-0.33937","-0.21841","0.18425","0.79073","0.44307","0.38799"
"-9.6823","3.6354","-0.70265","0.017522","-0.42481","0.43001","0.80082","0.43091","0.3894"
"-9.0363","3.3638","0.30846","-0.039463","-0.35269","0.67579","0.81563","0.4116","0.37634"
"-7.7002","5.4643","1.4284","-0.45118","-0.3526","0.88621","0.83321","0.3798","0.36943"
"-8.0346","1.9265","0.64526","-0.28991","-0.92646","1.2009","0.85934","0.34592","0.34001"
"-7.1175","-2.9826","-4.6353","0.70088","-1.1415","1.2123","0.8886","0.29232","0.31288"
"-14.589","-10.107","-15.364","2.317","2.3337","-0.29337","0.89396","0.28168","0.29936"
"-26.726","-6.4684","-0.2463","-1.4315","1.5329","-1.2927","0.85131","0.30319","0.39595"
"-18.929","-3.1885","-9.6665","1.0094","-1.5233","-1.088","0.8513","0.34249","0.36307"
"-11.857","9.4496","2.1358","0.40024","0.035267","-1.3425","0.84208","0.38735","0.34146"
"-6.0393","5.8076","3.412","-0.84163","-0.48635","-0.13292","0.82701","0.40528","0.35763"
"0.75921","7.0871","6.9834","-1.1677","-0.16591","0.024803","0.82965","0.39655","0.36883"
"4.2097","-3.3464","-3.7396","2.2426","-1.109","0.21335","0.84884","0.4014","0.31766"
"-0.42988","-5.0237","-1.5727","-0.00322","0.66678","-0.44865","0.84692","0.4215","0.29489"
"-1.0524","3.9031","4.4821","-0.65148","-0.6871","-0.21952","0.84011","0.41755","0.31097"
"-4.3141","-0.58959","-11.131","0.34963","0.030828","-0.053647","0.84908","0.41685","0.29578"
"-13.769","3.092","-5.5633","-2.5968","1.5852","-0.025793","0.82379","0.42472","0.33947"
"-47.023","-5.2607","7.3723","0.76114","-0.037896","0.1917","0.80649","0.36489","0.43692"
"-6.4976","2.0825","-2.9403","1.6831","-2.0941","0.22559","0.84448","0.4126","0.30559"
"-5.3945","-1.0293","-11.017","1.3179","-0.12137","-0.19499","0.87227","0.3876","0.25958"
"-2.0259","2.9244","4.4561","-0.67093","0.94498","-0.80656","0.84581","0.41225","0.29759"
"-4.0603","0.8992","-4.6156","-0.60533","-0.16061","-0.17003","0.8527","0.40545","0.2896"
"-9.1696","2.7966","-0.47386","0.16117","1.34","-0.37493","0.83304","0.42476","0.31804"
"-15.263","-1.0094","-1.7775","0.33691","1.7434","0.14787","0.81073","0.42783","0.36618"
"-16.701","-3.3276","0.64941","1.1454","-0.21702","0.27689","0.78436","0.43469","0.41673"
"-6.8887","-1.9083","-6.665","0.62145","-1.805","0.1992","0.81599","0.4449","0.33698"
"-6.4784","4.7615","-1.5173","-0.37505","-0.21243","-0.30789","0.82668","0.448","0.30494"
"-9.4904","3.5213","-1.9216","-0.75144","0.33527","-0.22309","0.82233","0.44691","0.31853"
"-10.631","1.97","-1.4627","-0.75527","0.81204","-0.19708","0.80979","0.44315","0.35192"
"-10.424","-0.11899","-0.28582","-0.068239","0.2673","0.14028","0.80154","0.43576","0.37523"
"-10.022","0.094245","-0.68312","0.62208","-0.59104","0.2923","0.80962","0.43289","0.36078"
"-8.441","1.8175","-4.1944","-0.029877","-0.44331","0.14341","0.81876","0.43065","0.34261"
"-9.1088","0.27777","-2.4656","-0.093211","0.17497","-0.0025","0.82126","0.42707","0.34221"
"-10.029","-0.41216","-1.5455","-0.11861","0.28895","-0.13766","0.81645","0.42954","0.35265"
"-9.5275","0.95305","-1.1393","-0.24667","-0.005995","-0.18356","0.81745","0.43087","0.34411"
"-9.3074","2.9433","-1.6247","-0.3826","-0.079847","-0.17048","0.81686","0.43167","0.35006"
"-9.4017","4.2664","-0.67519","-0.57866","0.071989","-0.041166","0.81037","0.42993","0.36824"
"-9.4469","4.4748","-0.34621","-0.45299","-0.083756","0.25077","0.81258","0.41746","0.37748"
"-8.7411","5.4205","0.16211","0.39105","-0.11756","0.49786","0.82112","0.40222","0.37323"
"-8.1785","5.4183","1.2088","0.32296","-0.70185","1.0303","0.84305","0.38344","0.34021"
"-8.0304","0.73025","-0.23866","-0.27096","-0.88441","1.0138","0.86795","0.35121","0.30813"
"-8.0421","-5.3932","-2.9331","0.6208","-1.0961","1.1434","0.88733","0.31321","0.29273"
"-18.17","-13.308","-17.39","2.374","1.9901","-0.46758","0.8988","0.30905","0.25697"
"-26.976","-3.3006","-1.2001","-0.87101","0.49735","-1.0592","0.86042","0.33739","0.34321"
"-17.545","4.205","-8.0862","0.081466","-1.8288","-0.86628","0.87852","0.3504","0.28182"
"-8.8764","9.9223","6.7267","-0.05822","1.193","-1.3219","0.86224","0.39292","0.27745"
"-3.441","3.9339","1.9958","-0.63368","-0.58281","0.23296","0.86082","0.39212","0.29938"
"3.555","0.46225","-0.48577","-0.2472","-0.58441","-0.089279","0.87404","0.38081","0.27712"
"4.0268","-5.1951","-2.9985","2.1553","-0.26052","-0.18344","0.88122","0.39785","0.22771"
"-3.3743","0.1742","6.2627","-0.67643","-0.045389","-0.67272","0.86543","0.4074","0.25011"
"-0.42131","4.4754","0.90048","-1.1043","-0.56214","-0.47994","0.86672","0.41536","0.24117"
"-6.492","-1.0212","-14.026","3.2687","1.6685","-0.5063","0.85954","0.43887","0.22114"
"-28.802","4.1115","-5.3787","-1.801","3.4227","0.56665","0.82688","0.43954","0.3133"
"-23.838","-4.2229","3.5605","-1.2669","-1.5646","-0.42075","0.80788","0.39258","0.41089"
"-11.154","2.2796","-0.68573","0.070507","-3.4589","1.0157","0.83176","0.39169","0.35163"
"-3.6275","1.3176","-3.8196","0.45308","0.2257","-0.75041","0.84917","0.39657","0.31054"
"-2.545","1.9632","0.65047","0.23731","-0.24742","0.068974","0.84273","0.41611","0.31097"
"-3.6374","-0.86679","-3.3447","-0.26613","0.74432","-0.51961","0.84191","0.41877","0.30845"
"-7.2972","0.97591","-2.0293","-0.31694","-0.60495","1.3784","0.81461","0.43179","0.31906"
"-6.4929","0.76504","-0.25183","-0.42825","0.15708","-0.95831","0.84344","0.43159","0.35144"
"-8.9033","1.3611","-1.8865","-0.34564","0.29568","0.09909","0.83899","0.43994","0.36118"
"-10.972","2.9741","-2.2587","0.028433","0.66125","-0.46799","0.85026","0.42993","0.37363"
"-10.727","3.6327","-1.3185","-0.043507","0.17693","-0.081508","0.83668","0.45567","0.38699"
"-9.6905","3.3512","-0.4804","-0.46721","-0.1154","0.061907","0.82713","0.43468","0.37685"
"-9.4594","5.4691","-0.70883","-0.29745","-0.083242","0.097478","0.81036","0.46961","0.38295"
"-9.2081","1.9443","0.3147","0.69492","0.13887","0.055092","0.81597","0.46137","0.36865"
"-9.8952","-2.9772","1.428","2.313","0.035948","-0.45114","0.81241","0.45827","0.3917"
"-9.9265","-10.107","0.64516","-1.4296","-0.22488","-0.39203","0.82477","0.45436","0.391"
"-9.6734","-6.4685","-4.617","1.0187","-0.41087","-0.33205","0.82043","0.43568","0.38228"
"-9.0347","-3.1997","-15.362","0.4045","-0.35887","-0.20547","0.80205","0.45255","0.36933"
"-7.6885","9.4519","-0.24489","-0.86582","-0.35368","-0.10231","0.79069","0.45878","0.35191"
"-8.0316","5.8104","-9.6803","-1.1544","-0.90782","0.041048","0.79554","0.44294","0.32338"
"-7.1155","7.089","2.1474","2.2464","-1.1488","0.0077742","0.79605","0.43293","0.29352"
"-14.59","-3.352","3.422","-0.0054578","2.3407","0.0058042","0.78168","0.40257","0.40213"
"-26.736","-5.0307","6.9865","-0.64452","1.5427","0.16935","0.79324","0.37719","0.36266"
"-18.916","3.9112","-3.7367","0.36115","-1.5269","0.42749","0.78562","0.34401","0.32985"
"-11.864","-0.59881","-1.5801","-2.601","0.048253","0.68435","0.80073","0.28467","0.35533"
"-6.0452","3.1092","4.4813","0.75726","-0.47972","0.88019","0.82375","0.28438","0.37391"
"0.76807","-5.2509","-11.131","1.6881","-0.18935","1.2247","0.83291","0.30927","0.31923"
"4.2049","2.0732","-5.5689","1.3376","-1.129","1.2073","0.85668","0.3332","0.30132"
"-0.42177","-1.0524","7.3586","-0.65832","0.66707","-0.2971","0.88326","0.38484","0.32115"
"-1.0538","2.921","-2.9502","-0.61467","-0.69024","-1.2895","0.88624","0.38877","0.28174"
"-4.3112","0.91557","-11.004","0.15687","0.037407","-1.0893","0.84476","0.39703","0.32215"
"-13.771","2.8028","4.4565","0.34978","1.5968","-1.3334","0.86522","0.40442","0.43972"
"-47.024","-1.0008","-4.6194","1.1467","-0.023676","-0.13017","0.82861","0.42238","0.29978"
"-6.4806","-3.3522","-0.45539","0.63078","-2.0979","0.041344","0.82414","0.42614","0.26153"
"-5.3797","-1.908","-1.7677","-0.35885","-0.13562","0.20162","0.83432","0.43613","0.2974"
"-2.033","4.7586","0.66035","-0.76438","0.94938","-0.4623","0.84089","0.42109","0.29408"
"-4.0558","3.5158","-6.6691","-0.75166","-0.16147","-0.22226","0.8566","0.37039","0.31475"
"-9.1545","1.9574","-1.5186","-0.072235","1.3435","-0.048581","0.84269","0.41784","0.35697"
"-15.275","-0.11855","-1.9141","0.59914","1.728","-0.054953","0.84202","0.38286","0.41831"
"-16.671","0.092083","-1.4679","-0.038687","-0.20245","0.19733","0.82465","0.39348","0.33815"
"-6.8864","1.8207","-0.29947","-0.093497","-1.8106","0.2295","0.82103","0.39417","0.29925"
"-6.4937","0.2892","-0.68085","-0.1161","-0.21204","-0.19173","0.84012","0.42663","0.31352"
"-9.4897","-0.42696","-4.1765","-0.25268","0.32734","-0.79453","0.87756","0.41576","0.37569"
"-10.629","0.97671","-2.4634","-0.37981","0.81198","-0.17922","0.85238","0.44004","0.36618"
"-10.43","2.9286","-1.5258","-0.57037","0.28405","-0.37254","0.85207","0.44227","0.35753"
"-10.039","4.28","-1.1496","-0.45837","-0.58608","0.14122","0.82712","0.43604","0.33083"
"-8.4548","4.4683","-1.618","0.39203","-0.44447","0.27961","0.82495","0.46304","0.32361"
"-9.1216","5.416","-0.68483","0.32423","0.17146","0.20164","0.77955","0.44143","0.35289"
"-9.9951","5.4127","-0.34385","-0.28792","0.28111","-0.30534","0.82107","0.43624","0.34159"
"-9.5467","0.71838","0.17209","0.60608","-0.012116","-0.22153","0.83292","0.43208","0.35223"
"-9.3015","-5.3915","1.222","2.3785","-0.080931","-0.20602","0.82882","0.44802","0.36356"
"-9.3917","-13.315","-0.22298","-0.87649","0.055084","0.14093","0.80415","0.42363","0.37786"
"-9.4544","-3.2999","-2.9426","0.077073","-0.10096","0.29562","0.81164","0.42807","0.35894"
"-8.7408","4.1912","-17.383","-0.080039","-0.1123","0.14979","0.81885","0.43519","0.33809"
"-8.1849","9.9447","-1.2031","-0.64683","-0.6919","0.027114","0.82038","0.44811","0.31027"
"-8.0369","3.9331","-8.0794","-0.25943","-0.88106","-0.14389","0.81808","0.45166","0.3056"
