"AccX","AccY","AccZ","GyroX","GyroY","GyroZ","MagX","MagY","MagZ"
"0.00047557109389468813","-0.00661984359353729","0.0022135145480036964","-0.002980614430618036","-0.002520420555951803","-0.01109206181551789","0.9076382662876935","0.32681970863296106","-0.44256265821833146"
"0.0003584362332738045","-0.005776139441721952","0.0022135145480036964","-0.0029187209936517872","-0.0023292884950126655","-0.006657387058673752","0.9076382662876935","0.3272769525523472","-0.4425773918622641"
"-0.00011326901625350191","-0.004450433816325567","0.0027755964280256765","-0.007559681204422815","0.00035007616527627406","-0.007687723814114298","0.9093045862258019","0.3280390257513242","-0.4386624521887377"
"-0.00011326901625350191","-0.004936466750876682","0.004192194679702701","-0.009810192918089784","-0.004727708202850935","0.0011320078177721375","0.9069241291713608","0.33139214782682264","-0.4349411546926115"
"0.0010723257216524065","-0.004701351947102453","0.004216880708217182","-0.0025395909559304667","-0.0009996741580447558","-0.002771878117080777","0.90978067763669","0.33217766943192195","-0.43404871683154955"
"-0.001300446657681282","-0.0018091818471773628","0.004064966686589619","-0.0013168245644124973","-0.003769970375753737","0.0038567033517790048","0.9074002205822495","0.3331507782860002","-0.431706067446262"
"0.00047715399741658814","-0.0022992462426985423","0.003958626871450324","-0.0008541514813079611","-0.0033098790685264995","0.006890744938994835","0.9076382662876935","0.3340887145308949","-0.4320070547437428"
"0.00047398819037278807","-0.003981494276287534","0.0025344329186919217","0.00026866006489780154","-0.004070731695726526","0.0018857708246506112","0.9076382662876935","0.33129835420233317","-0.4294097237990484"
"0.0003584362332738045","-0.0018133745665862317","0.0028230695597842932","0.0005760321263338528","-0.005199625406825243","0.003253019123190028","0.90978067763669","0.333010087849266","-0.43052106151282366"
"2.2829408454816738e-06","-0.0022973111414329108","0.004091551640374443","-0.0019571466520675487","-0.006338587111100517","0.005480310706294562","0.90978067763669","0.33177904652784174","-0.4310367390504655"
"0.00035685332975190446","-0.002899611410360717","0.0035294697603524593","0.002072648604964827","-0.005046687796190831","0.0032432180601180607","0.9076382662876935","0.332248014650289","-0.4338992755859472"
"0.00012100070498826533","-0.0022953760401672792","0.003242732044530436","0.0021578502897025686","-0.003192099529302299","0.0024367743392277636","0.9133513632183515","0.3324238776962068","-0.4334635806867967"
"0.00012100070498826533","-0.002537586215248823","0.0036661923798172675","0.000253994201131469","-0.004897425802112944","0.004924712943402425","0.9052578092332523","0.33145076884212854","-0.4317102770588142"
"0.00035685332975190446","-0.0032606690548397962","0.0033851514398062733","0.0004170646387237847","-0.005773820636720158","0.0032484248748750437","0.9064480377604727","0.33131007840539434","-0.4322280594027322"
"0.00012100070498826533","-0.002778506322819947","0.0036661923798172675","0.0019959147106159807","-0.0023192205018361055","0.003834957243088077","0.9064480377604727","0.33113421535947657","-0.4288814174237499"
"7.000373235535229e-07","-0.0034998153195840904","0.003377555738724896","0.0016787654066690414","-0.0037531903871261367","0.003820868214922125","0.9076382662876935","0.330841110282947","-0.42911505092039587"
"0.00035685332975190446","-0.0032597015042069816","0.003102211574524939","0.003564987539997288","-0.004302455348202904","0.0049023542682695","0.9090665405203578","0.33191973696457594","-0.42771956435934855"
"0.00011941780146636529","-0.0027764099631155115","0.002955994328708409","0.0030230489551080503","-0.00433202009007058","0.002415028230536837","0.9076382662876935","0.33053628100335625","-0.429940134980623"
"-0.0005913058798684085","-0.002892999814369811","0.002800282456540157","0.0008765950367355353","-0.004867062013167764","0.0071422034634349915","0.9107328604584664","0.3296335173676451","-0.4314955868186531"
"-0.00035228744806096925","-0.0020526820897693275","0.003375656813454552","-0.001337950391980667","-0.005724599336745865","0.008809915601774403","0.9090665405203578","0.32837902764009846","-0.4281573640647751"
"0.0003536875227081044","-0.00470360956524569","0.0025287361428808887","0.001155246448295852","-0.008216827171483192","0.01540082423445131","0.9114469975747985","0.3287073053258116","-0.4308872978048632"
"0.00035527042623000445","-0.0034969126676856438","0.0018242348675830671","0.004029493856072616","-0.0031205049111578727","0.007960592229944248","0.9128752718074634","0.3265735003686762","-0.43384034101021673"
"-0.0003554532551047693","-0.0025293620348698894","0.0016704219206851597","0.002693503504406235","-0.00543965914890767","0.006008649262517792","0.9114469975747985","0.32534245904725195","-0.434671739489272"
"0.00012100070498826533","-0.0020552622247901704","0.0035256719098117704","0.0010148731808180985","-0.0039532717753333274","0.012409662298175335","0.9128752718074634","0.32412314192888886","-0.43515374012649655"
"-0.0004694223086818247","-0.0010904529854340614","0.00408585486456341","0.002127471000472308","-0.007282900947295635","0.008206537656406424","0.9102567690475781","0.32239968407889485","-0.4321038758324429"
"0.0005958717615593718","-0.0019354472047598205","0.0029692868056008233","0.0033394998845899266","-0.004910050745937519","0.0018459540059207443","0.9107328604584664","0.32118036696053176","-0.4348359143788071"
"-0.0009458762687748594","-0.002048005595044053","0.002794585680729124","0.0033255323952886577","-0.0034290968924902084","0.006034070769860706","0.9119230889856866","0.3218017497227745","-0.4342634070717107"
"0.0004803198044603882","-0.0003701115393027331","0.0033965449914283435","0.0016867094162091381","-0.0033456763775987124","0.0018802577266726294","0.9133513632183515","0.32276313437379156","-0.44010424448785895"
"-0.00011485191977540195","-0.0018116007237594038","0.0029540954034380645","0.003582446901623874","-0.0026234976289499163","0.0010480862152184188","0.9112089518693545","0.32257554712481257","-0.4365408074624395"
"-0.00011326901625350191","-0.0006074839612201982","0.0031003126492545946","0.002965083874507784","-0.002376751891416448","-0.0022686547849794635","0.9107328604584664","0.32319692988705534","-0.438245700546072"
"0.00036318494383953275","-0.0001312877914360439","0.004247263512542695","0.00011004176452026525","-0.005227272435706907","0.0010395102850304476","0.9076382662876935","0.3231852056839941","-0.4391633960824469"
"0.00012258360851016535","-0.002056552292300591","0.00395293009563929","0.0013974077940566037","-0.003420467184053157","-0.005039599085357175","0.9059719463495846","0.32409969352276646","-0.4378521017724432"
"0.00012258360851016535","-0.0009674127966276577","0.002253391978680932","0.0026772662980935097","0.0007131631572944347","-0.0077691951509000256","0.9112089518693545","0.32440452280235726","-0.4321459719579647"
"-0.00034912164101714104","0.00011479258617676267","0.0036661923798172675","-0.002285819134688035","-0.004218875023895907","-0.010556066178769686","0.909542631931246","0.32563556412378153","-0.43279004267844806"
"-0.00011485191977540195","-0.0020570360676169983","0.004515011975661275","-0.002703010580755314","-0.007613067199720599","-0.006163658506423407","0.9090665405203578","0.32639763732275845","-0.4331057636198615"
"0.00036001913679573267","-0.0010944844464041276","0.004101046266726165","0.0004575703576974648","-0.004450918295203288","-0.006986641521247649","0.9074002205822495","0.3271479863186742","-0.43095044199314586"
"-0.0003554532551047693","-0.0030137823850329777","0.0025211404417995113","-0.0005038293902705078","-0.004117715663883806","-0.0022573223058025014","0.9131133175129075","0.3271831589278577","-0.4313503551856029"
"-0.0003554532551047693","-0.003135532506328959","0.002946499702356687","-0.0027299852944683897","-0.0043662193049877835","0.002745507825994729","0.9090665405203578","0.32623349847990185","-0.4311546082019266"
"-0.00011643482329730197","-0.0022942472310956623","0.003237035268719399","-0.0030658161153557764","-0.010355716388547917","0.0054392687546807","0.9116850432802426","0.32595211760643344","-0.4321817536646582"
"-0.00011960063034110203","-0.0038581315706035244","0.0025230393670698558","-0.004652522899979936","-0.009757549746327858","0.008786025510536482","0.9162079116836803","0.32565901252990387","-0.43120933316510485"
"0.0015376993570920846","-0.004705060891194914","0.0011349249944480003","-0.002278573499613002","-0.006889929594578798","0.00795722311451326","0.9166840030945684","0.3244279712084796","-0.43059893934503896"
"0.0003536875227081044","-0.0053088124860719435","0.0035199751340007374","0.003932419805428796","-0.005378132523939804","0.011258649953661194","0.9169220488000125","0.32259899553093496","-0.4355431292875731"
"0.00011783489794443715","-0.0028918710052981906","0.0012545572864797055","0.0015149092978035293","-0.005168142951971555","0.005464383978802616","0.9183503230326774","0.32106312492991995","-0.4332215279650464"
"0.0005927059545155717","-0.0030141049019105815","0.0011216325175555856","-0.0009926915158149233","-0.0034970158940781128","0.0027329502139337714","0.9164459573891244","0.3192107008462529","-0.43516636896415306"
"-0.00011643482329730197","-0.0027756036709214987","0.0030946158734435616","-0.0016296963247609232","-0.006654370516130397","0.002427279559376796","0.9188264144435655","0.3198320836084957","-0.4328931781859765"
"0.0005942888580374718","-0.002293924714218057","0.0019742499639402817","-0.0019408221489466905","-0.005801467665601823","0.0021571377584557014","0.9178742316217893","0.3207465714472679","-0.43239223429226714"
"0.00035685332975190446","-0.0030205552394626874","0.0036699902303579564","-0.004115560233154275","-0.002312188887554064","-0.004979261290820378","0.9140655003346837","0.32102795232073633","-0.43195022497428837"
"0.0005942888580374718","-0.003020877756340291","0.0033908482156173063","-0.0028695728906729468","-0.0024063166332841243","-0.0011148858914763313","0.915255728861904","0.32149692044318373","-0.4316513424830837"
"-0.0005881400728246083","-0.0006060326352709731","0.003375656813454552","0.002243401161672841","-0.003210317802669407","0.0005013706657352515","0.9157318202727922","0.3230210668411375","-0.42807527662000766"
"-0.00011010320920967373","0.0014395306609403318","0.0033908482156173063","0.002696908079923419","-0.004593787912661138","0.004906642233363486","0.915493774567348","0.32456866164521375","-0.43036109623584085"
"5.44874788928174e-06","-0.00012274109417950515","0.0019704521133995932","0.0002714535627580553","-0.004364461401417274","0.0010517616138704066","0.9138274546292396","0.32271623756154677","-0.4308999266425197"
"-0.00011326901625350191","-0.0006082902534142112","0.0033851514398062733","-0.0022738594719738233","-0.006334112447466491","0.006036827318849698","0.9171600945054571","0.322411408281956","-0.4280100276254489"
"-0.00011168611273160187","0.0003561964690642929","0.0031041104997952835","-6.289321239107169e-05","-0.010072693913695733","0.00319880699307321","0.9131133175129075","0.3231852056839941","-0.4317713164408208"
"0.00012258360851016535","-0.0008474365181585052","0.002395811373956769","-0.0013012857325648355","-0.0022271702785075583","0.00109249728226327","0.9116850432802426","0.32271623756154677","-0.4331878510646289"
"-0.00011643482329730197","-0.002292150871391227","0.0025287361428808887","-0.0033536336917700514","-0.005826877362666474","0.0005133157113542114","0.9176361859163452","0.3215086446462449","-0.4301948165400298"
"7.000373235535229e-07","-0.002533554754278758","0.0025287361428808887","-0.0020856475536392234","-0.0026735179760017137","-1.2266295880026855e-05","0.9157318202727922","0.3221065790023652","-0.429988545524973"
"0.00035685332975190446","-0.0025366186646160085","0.002961691104519442","-0.001159777606581354","-0.006643663285291833","0.0032502625742010377","0.9131133175129075","0.3225638229217514","-0.4311924947148961"
"0.0005958717615593718","-0.0018128907912698241","0.002259088754491965","0.0020848701581034374","-0.0023430321047457478","0.0016122599082985278","0.9162079116836803","0.322727961764608","-0.4300011743626295"
"-0.00011485191977540195","-0.0015727769758927135","0.0036642934545469234","0.0005814445284380944","-0.005073056349748489","0.0015966394640275802","0.9173981402109012","0.32271623756154677","-0.426625065095782"
"0.00012258360851016535","-0.0010912592776280744","0.0033870503650766178","0.0010616642699773496","-0.003363415222719318","0.0005038209315032432","0.9147796374510159","0.3221065790023652","-0.43029374243500595"
"0.0001241665120320654","-0.00048718516587343825","0.0028230695597842932","0.0015342018924009069","-0.004508929113030133","0.00020733877357623698","0.9143035460401278","0.3225638229217514","-0.42865409834593227"
"-0.0003507045445390411","-0.00012274109417950515","0.002530635068151233","-0.00020352837029322408","-0.005226313579213901","0.0010480862152184188","0.9143035460401278","0.3225638229217514","-0.42837415911121235"
"-0.00011643482329730197","-0.0027781838059423394","0.003945334394557913","0.0008999905813151608","-0.006807467936180308","-8.944966757176802e-05","0.9138274546292396","0.3231852056839941","-0.43035899142956474"
"0.0010707428181304783","-0.0013350820370976438","0.002838260961947048","0.0010631483157156096","-0.006964400782202241","-0.0012125902389750036","0.9123991803965753","0.3231852056839941","-0.43262797259518915"
"-0.00011643482329730197","-0.002050424471626092","0.0022457962775995544","-0.0010712586431345615","-0.004940254725467199","0.0016125661915195268","0.9135894089237956","0.3233258961207284","-0.4298138466040576"
"0.00047715399741658814","-0.0018132133081474298","0.002542028619773299","-0.0004527607575127431","-0.006919654145861974","0.003792996441811218","0.9143035460401278","0.3214851962401225","-0.4297338639655661"
"0.00035685332975190446","-0.0028959024662682576","0.0022514930534105874","-0.0009867553328618836","-0.0055315495628207164","-6.127161123986272e-05","0.9143035460401278","0.3225638229217514","-0.429211872009096"
"0.0005958717615593718","-0.002057197326055802","0.003394646066157999","-0.00033517195695768453","-0.004728187631097437","-0.005599791096564298","0.9109709061639104","0.32239968407889485","-0.43208703738223414"
"3.865844367381707e-06","-0.0015711643915046875","0.002957893253978753","0.00043461129715850397","-0.005533307466391228","-0.0011795116511071145","0.9135894089237956","0.3222707178452218","-0.4336761661206817"
"0.00012100070498826533","-0.00205397215727975","0.0031003126492545946","0.00027791352655989217","-0.0049618289965598274","-0.0011712420041401423","0.9121611346911312","0.32379486424317566","-0.4309820140872872"
"0.00012258360851016535","-0.001571325649943491","0.0028192717092436047","0.0009073235131983271","-0.004378684439396858","-0.0006156442412480045","0.9157318202727922","0.3256707367329651","-0.4345664991754676"
"-0.00011485191977540195","-0.001209622971709201","0.0030984137239842505","0.0006004752326110735","-0.006850456668950063","-0.00396730152863977","0.9126372261020194","0.32379486424317566","-0.4326384966265696"
"0.0010691599146085782","-0.0022969886245553053","0.0022685833808436862","0.00019882261839145642","-0.0046722543356721045","-0.000621157339225986","0.9109709061639104","0.3250141813615388","-0.43161766558266623"
"0.00035685332975190446","-0.0030179751044418445","0.0028192717092436047","0.00025748607345678625","-0.006055245017417332","0.0038000409558941943","0.9085904491094697","0.32487349092480455","-0.43501482291227467"
"0.00012258360851016535","-0.0013312118345663814","0.003102211574524939","0.0005053217117461784","-0.0052231173909038815","0.0010388977185884496","0.9088284948149138","0.3250141813615388","-0.43390348519849936"
"0.0003584362332738045","-0.0019343183956882018","0.002963590029789786","-4.648141246208061e-05","-0.0029239393300917035","0.0021798027168096253","0.9093045862258019","0.32409969352276646","-0.4344128483173131"
"0.00035685332975190446","-0.0028984826012890988","0.003102211574524939","0.00017673652593382477","-0.005763592834128097","0.004358395267775323","0.9083524034040257","0.32531901064112956","-0.4325374659253173"
"0.00012100070498826533","-0.002899772668799521","0.003949132245098602","0.0002615017266309011","-0.006645740807693345","0.002132328817554785","0.9062099920550286","0.3219424401595087","-0.43666288622645266"
"0.0003584362332738045","-0.0015734220096479256","0.003107908350335972","0.0005693975689157499","-0.007772077568144047","0.0037743131653302803","0.9064480377604727","0.32286865220134214","-0.4383509408598764"
"-0.0003507045445390411","-0.0010890016594848372","0.003377555738724896","-0.002881532553387158","-0.006112936216413176","0.00022969744870916206","0.9054958549386963","0.3237831400401145","-0.43618509520178034"
"0.00012100070498826533","-0.0024187387458512884","0.004233971035650281","-0.0016491635129745666","-0.006748817880691458","0.00713362753324702","0.9066860834659167","0.32334934452685077","-0.44059045473763564"
"0.00035685332975190446","-0.002536134889299599","0.0028211706345139488","0.0018346775059944567","-0.003890306865625952","0.004367583764405292","0.9062099920550286","0.32331417191766715","-0.4358714790666431"
"-0.00011485191977540195","-0.0013310505761275787","0.003381353589265585","0.0004144457344797968","-0.005190835888972689","0.004089478599738224","0.9047817178223642","0.32270451335848566","-0.4367239256084593"
"-0.00011326901625350191","-0.0013334694527096177","0.004233971035650281","0.001409629347195214","-0.006113415644659678","0.010995246383602077","0.9057339006441405","0.3225520987186902","-0.43725012717748163"
"0.0005927059545155717","-0.0032588952120129683","0.0023977102992271174","-0.0002917854433156177","-0.006351691483171595","0.0032447494762230557","0.9052578092332523","0.3213327816003271","-0.4400095282054349"
"7.031651411181772e-06","-7.2800519968252395e-06","0.0036718891556283004","0.002075442102825081","-0.004911489030677028","0.002414721947315838","0.9059719463495846","0.3207113988380844","-0.4377363374272583"
"-0.00035228744806096925","-0.0018125682743922187","0.003658596678735886","0.0014385245906872143","-0.005759277979909572","0.0037991221062311973","0.9071621748768054","0.32149692044318373","-0.43940334399792114"
"0.00035685332975190446","-0.0032593789873293757","0.0029597921792490975","0.002013548665858833","-0.003804808828332944","-0.001172773420245137","0.9050197635278082","0.32102795232073633","-0.44111455150038187"
"0.0003616020403176327","0.00035442262623746403","0.0029711857308711677","0.0004291988950542622","-0.004943930342023721","0.0004857502214643039","0.9076382662876935","0.32181347392583565","-0.4413502898033039"
"0.0003616020403176327","0.00011398629398274874","0.002828766335595326","-0.0009750575605720711","-0.002977475484284522","-0.002247214959509535","0.9047817178223642","0.32303279104419874","-0.4417502029957609"
"5.44874788928174e-06","-0.0008522742713225843","0.004237768886190973","-0.00020911536601373175","-0.004354073789409711","0.0024422874372057456","0.9045436721169201","0.3220948547993041","-0.4400537291372328"
"7.031651411181772e-06","0.0004756889722170389","0.003248428820341469","0.0034329074692921627","-0.0052387787136229744","-0.002311228152698321","0.9028773521788117","0.32239968407889485","-0.43982851486569124"
"0.0003616020403176327","-0.00012790136422118897","0.0031117062008766605","-0.0005129082583163327","-0.006686652018061588","-0.0011902315638420784","0.9047817178223642","0.322411408281956","-0.4400537291372328"
"-0.00011485191977540195","-0.0009687028641380791","0.0031003126492545946","-0.0011403104183677103","-0.0035324935843193237","-0.0005856284855901051","0.9047817178223642","0.32087553768094096","-0.44167653477609775"
"0.00012258360851016535","-0.0018174060275562987","0.004520708751472308","-0.003022342304905577","-0.00501424648484414","-0.003913701964964949","0.9057339006441405","0.32286865220134214","-0.43976537067740856"
"-0.00011485191977540195","-0.0012113968145360309","0.0036661923798172675","-0.0012940400974898025","-0.004697344413905754","-0.00226099770445449","0.9033534435896998","0.32239968407889485","-0.4398200956405869"
"0.0008333072898449391","-0.0018148258925354559","0.002547725395584332","-0.0004900364945855046","-0.0024318861397642764","-0.005017240410224251","0.9033534435896998","0.3248617667217434","-0.43878663575902693"
"-0.00011326901625350191","-0.0008482428103525182","0.0031003126492545946","-0.0012784139688340075","-0.005314048948323923","-0.006424918093935533","0.9012110322407028","0.32591694499724994","-0.4360945885319085"
"5.44874788928174e-06","-0.0003678539211594959","0.0033870503650766178","-0.003007414550714846","-0.0030375638245128795","-0.006659224757999746","0.902163215062479","0.3274645398013261","-0.4372374983398251"
"0.00012100070498826533","-0.0022966661076777015","0.003668091305087612","-0.00035228213135173904","-0.004536576141911797","-0.0011602158081841793","0.9031153978842558","0.3274645398013261","-0.4372101358582359"
"0.00012258360851016535","-0.0014518331467907443","0.003102211574524939","-0.0019183868692565272","-0.004140728219715942","-0.0033587167685148094","0.9009729865352587","0.32851971807683267","-0.4356336359574449"
"0.00035685332975190446","-0.002536134889299599","0.0028211706345139488","-0.0020730768132680814","-0.0052999857197598395","-0.004481551056697046","0.9012110322407028","0.32883627155948464","-0.43591567999844094"
"2.2829408454816738e-06","-0.0022947310064120696","0.0032389341939897476","-0.0016913278713027726","-0.004545046040933348","-0.0011479644793442204","0.9002588494189264","0.32851971807683267","-0.43509270074448997"
"-0.00035387035158286926","-0.002051392022258907","0.002950297552897376","0.001252058608515273","-0.0017242500479260664","-0.007228911549057838","0.9016871236515909","0.3302197275207043","-0.43511585361352695"
"0.0005958717615593718","-0.0022976336583105162","0.0032522266708821575","-0.00010610513241687274","-0.002835085295073175","-0.0028067944042746602","0.9028773521788117","0.33207215160437126","-0.43430550319723243"
"0.00035685332975190446","-0.0028984826012890988","0.003102211574524939","-0.0005102893540723448","-0.005254120417511066","-0.001169710588035147","0.9035914892951439","0.330841110282947","-0.43340885572361837"
"-0.00011801772681920201","-0.0027739910865334726","0.0025268372176105443","0.0010723144805695672","-0.0039646182438338945","-0.002271105050747455","0.8997827580080383","0.33143904463906737","-0.4343728569980673"
"-0.00011801772681920201","-0.0027722172437066425","0.001959058561777527","-0.0006601779736365878","-0.005127711169849814","-0.0028251713975345977","0.9016871236515909","0.33327974451967324","-0.43215018157051693"
"0.00047398819037278807","-0.0031356937647677627","0.0016856133228479143","-0.003488594557143563","-0.004449799629294781","-0.004459192381564121","0.9007349408298146","0.33281077639722584","-0.43049369903123447"
"0.00011941780146636529","-0.004470752379614699","0.0056467714367866165","-0.00226512979116053","-0.006221926237784825","0.0032692521339029736","0.9009729865352587","0.3323535324778397","-0.4315860934885249"
"0.00035685332975190446","-0.003503201746798946","0.00395293009563929","0.0024694125979290004","-0.001743906606032683","0.0038367949424140714","0.9009729865352587","0.33220111783804435","-0.43158188387597274"
"0.00011941780146636529","-0.002532587203645943","0.0019647553375885603","0.001213909903361182","-0.006363517379918667","0.0010189893092235165","0.9002588494189264","0.3309700765166201","-0.43155662620065965"
"0.00011941780146636529","-0.0032595402457681775","0.003381353589265585","-0.0017334049328228455","-0.006155445520936428","0.00908158881880049","0.9007349408298146","0.33221284204110546","-0.4343728569980673"
"0.000831724386323039","-0.002901546511626349","0.0033965449914283435","0.0013541958740308027","-0.005745374560760988","0.005452438933183656","0.9024012607679236","0.33053628100335625","-0.4353789543980381"
"0.0005942888580374718","-0.0025348448217891784","0.0019742499639402817","0.0018310110400528734","-0.005460114754091792","0.00489959771928051","0.8993066665971502","0.33143904463906737","-0.43605670201893887"
"-0.00011643482329730197","-0.0027781838059423394","0.003945334394557913","-0.0008699522035800217","-0.005710695917597283","0.009912841480591704","0.904305626411476","0.3287073053258116","-0.43833410240966775"
"0.00035685332975190446","-0.002535328597105586","0.002536331843962266","0.0021444938780582298","-0.006030634367430186","0.004891634355534536","0.9024012607679236","0.3288714441686682","-0.4417333645455522"
"0.00035527042623000445","-0.0032572826276249405","0.0022514930534105874","0.001840351798523097","-0.006061957012868373","0.0021240591705878123","0.9012110322407028","0.32776936908091686","-0.43783315851595844"
"-0.00011326901625350191","-0.00036737014584308755","0.0033851514398062733","0.00041069197173008076","-0.005468584653113342","0.004916443296435453","0.8997827580080383","0.32591694499724994","-0.4378057960343693"
"0.0003584362332738045","-0.002056068516984183","0.0033889492903469622","-5.398893796151264e-05","-0.00463118331588836","0.003266189301692984","0.9007349408298146","0.32823833720336426","-0.4398116764154825"
"0.00035685332975190446","-0.0030197489472686746","0.0033870503650766178","0.0004266672876184072","-0.005081206629939037","0.0010407354179144436","0.9012110322407028","0.3269955716788788","-0.43808573526908917"
"0.00012258360851016535","-0.0013329856773932093","0.0036699902303579564","-0.0019221406320062435","-0.004708211454159819","-0.0028116949358106434","0.898354483775374","0.3279100595176511","-0.4376374115322821"
"0.0003584362332738045","-0.002417448678340866","0.0033889492903469622","-0.0012910720060132826","-0.0032662510980947398","-0.002245989826625539","0.9000208037134824","0.3288479957625458","-0.4398495629284522"
"0.0003584362332738045","-0.0015734220096479256","0.003107908350335972","-0.00011483481323016583","-0.0029539835002058822","-0.0005905290171260885","0.9000208037134824","0.3257645303574545","-0.43918654895148396"
"5.44874788928174e-06","-0.0006095803209246327","0.0036699902303579564","0.00010026452200937697","-0.0063481756760305754","0.0032447494762230557","0.8997827580080383","0.3279100595176511","-0.43592830883609746"
