"AccX","AccY","AccZ","GyroX","GyroY","GyroZ","MagX","MagY","MagZ"
"0.0006702682270888421","0.005006793089068733","-0.003160443967071346","-0.0002164482978968979","-0.0031829903926187445","0.000505352347608238","0.28231600265661505","-0.11023161582092224","0.8682812232423212"
"0.0013762431978579157","0.0060945135104802034","-0.002146417872707361","-0.0006192357706222431","-0.0014962020120062095","0.0026943585280879007","0.28467265514051165","-0.11204652245479345","0.8683864635561257"
"0.0011403905730942485","0.0060925784092145715","-0.0018672758579667153","-0.0023222219036794674","-8.444563547081035e-05","0.002172758202726649","0.2856962516739211","-0.11266556037642395","0.8761321506521349"
"0.0006734340341326421","0.004281710644836607","-0.0033009644370768387","-0.001990057548733664","0.0003374512214516996","-0.0005320289219152848","0.28474406885214454","-0.11325763263101372","0.876090054526613"
"0.0006860972623078986","0.0022216340891330656","-0.0021597103495997754","0.0003333469997243036","-0.0026218995347949063","-3.768780322294156e-05","0.2809591421355836","-0.11241700727152686","0.8729117970497182"
"0.001029587326560993","0.004401041889550551","-0.002438852364340421","0.0014446353672565194","-0.0051595132435345034","-0.00492780570969255","0.2830301397729475","-0.11557433515590361","0.8727223644848698"
"0.0013841577154674158","0.004642284513999279","-0.001859680156885338","0.0009380519896611191","-0.00487649076868232","0.001563254592938692","0.2823398072271596","-0.1136328071289716","0.8732485660538923"
"8.617682750638024e-05","0.00319289366604128","-0.003883934495072615","0.001592603457041838","-0.0009351111541823714","-0.0024441550706118752","0.28084011928286157","-0.11369025572397139","0.8764689196563091"
"0.0016231761472748833","0.003797612811551126","-0.0021388221716259837","0.0028371940505930397","-0.0031959349552743216","-0.0038227358483282547","0.28310155348458044","-0.11354604802631883","0.8760269103383305"
"0.0010248386159952929","0.00524855174052163","-0.0027236911548921","0.002224632347924261","-0.0036141561956403094","-0.005444505503517818","0.2824826346504257","-0.11266438795611783","0.8770793134763754"
"0.0007905688947535258","0.004761857646371425","-0.0021597103495997754","0.0017415318117166188","-0.004314121435534474","-0.002752582274157841","0.2789833627803979","-0.11194803914907951","0.872553979982783"
"0.00020014588108343566","0.004399751822040129","-0.0030275191981472263","0.0011231212229029335","-0.0071237307694566885","-0.0033326826947298973","0.2848630917048666","-0.10991506233827028","0.8738800079367192"
"0.0008032321229287542","0.0024625541967041886","-0.0017286543132315625","0.0006597497653333339","-0.011064471146294634","-0.004203139608808979","0.28114957869993934","-0.10866057261072365","0.8723434993551741"
"0.0004280839882375747","0.0039027533136504373","-0.001876770484318437","0.00051579732872213","-0.009251113708605346","-0.006843300973820129","0.28910030526177166","-0.10814588009633767","0.8731643738028487"
"0.0010153411948638647","0.0037922912830706387","-0.004142188331839469","0.002215029699029638","-0.0054599549446762916","-0.004362406883728445","0.2893621555377603","-0.10693711476072965","0.8726171241710654"
"0.00112139573083142","0.006809114156190159","-0.002148316797977705","-0.00042831765123552227","-0.0012328360952606426","-0.004023045074861583","0.289885856089737","-0.10658421624858802","0.8699019240749102"
"-0.0004915829579884815","-0.0008205063588784657","-0.0010374455148261512","-0.0013216258888598086","-0.0047420910502460195","-0.009232922664054122","0.29055238406498085","-0.1068890455281788","0.869922972137671"
"0.00044074721641280306","0.0018428380163856982","-0.0007336174715710251","-9.152656545867318e-05","-0.015021991511760176","-0.022332349742959213","0.2917188080216566","-0.10268826357135671","0.8693967705686487"
"0.0013619970661607592","0.005844562930336134","-0.002712297603270034","-0.0015868335919676539","-0.009113677611274528","-0.0184569481476592","0.2946467701986188","-0.09930114130698078","0.8642820913177511"
"0.0016057642085339546","0.00658623886792105","-0.004136491556028436","0.0006920495843425184","-0.009382317238731626","-0.009572284472920982","0.29340893253030986","-0.09758471797882351","0.8620930927906181"
"0.001968249115049906","0.005375236370044972","-0.003272480558021674","0.00032409353806221286","-0.002064963721774093","0.0010615626769423735","0.29707483639414856","-0.09970445389228551","0.8619668044140528"
"0.0007858201841878256","0.005609432000718026","-0.0024464480654217986","-0.0011507860353436622","-0.000930157062301842","0.0010784082540973173","0.295051447897874","-0.100254319015855","0.8602408632676596"
"0.000697177586961227","0.0008833503055100759","0.00012279782535435963","-0.002963504256223981","-0.0020491425896394986","0.005911557481461117","0.2946467701986188","-0.10095425393860767","0.8651661099537089"
"0.00021597491630249223","0.0017351173792655447","-0.0018843661853998142","-0.0026194675353720985","-0.003456584111956372","0.0004897319033372905","0.2933137142481319","-0.10138218735034088","0.8645767641964037"
"0.0010438334582581214","0.0019776500712246937","-0.001153279956317168","-0.0013719961471525097","-0.002900926774259567","-0.0005825656533801155","0.2933375188186762","-0.10050638938167045","0.8656712634599703"
"0.0013809919084236159","0.002456265117590886","-0.0021369232463556392","-0.0010795518399071898","-0.0029196244758731777","0.0016125661915195268","0.29248055427907743","-0.1030388172428861","0.8644925719453603"
"0.00019698007403963562","0.002692508730436732","-0.0018805683348591257","7.118827731539223e-06","-0.0037602220014081784","0.0013332358939684632","0.29217109486200044","-0.101423222061055","0.8661132727779491"
"0.0009045379483306093","0.0034178491881709425","-0.0010089616357709821","-0.0001686969438481844","-0.001933120953985809","0.0046040344110165","0.2904809703533472","-0.10271874649931578","0.8641347548784252"
"0.000668685323566942","0.0032960990668749602","-0.0010146584115820192","0.0004728472991207278","-0.0032005694283238494","0.0010735077225613337","0.291028475475869","-0.10504131112573627","0.8674603487946463"
"0.0010248386159952929","0.002816677728314754","-0.0018615790821556824","0.0007960200828288396","-0.0023599719027888482","-0.0005396860024402591","0.2915997851689346","-0.10278557445676455","0.8669130991628632"
"0.0010216728089514648","0.003542340702926569","-0.0018615790821556824","0.0017003277182778755","-0.0032047244731268736","0.00350600906373518","0.2922663131441779","-0.1022017091443176","0.8675024449201681"
"0.000668685323566942","0.0031780578896714383","-0.0018691747832370596","0.003266868940223328","-0.002644752281211543","0.0013506940375654045","0.2896954195253818","-0.10398144316900527","0.8673972046063637"
"0.0015012925760882995","0.0022129261334377236","-0.0015634478147115891","0.0029443945309802796","-0.004054271325929928","0.0032196342521011397","0.28898128240904963","-0.10099528864932182","0.8538843483138692"
"0.0008918747201553809","0.0053599490700464835","-0.0030066310201734385","0.0012992861817151889","-0.003484071331422536","0.00540037078561383","0.2933613233892208","-0.10285591967513165","0.8554419049581755"
"0.0006623537094793419","0.004145608522487191","-0.001871073708507404","0.0010072783585105334","-0.0019355180952183232","0.002714573220673833","0.2931946913954099","-0.10352302682931298","0.8658817440875791"
"0.0006655195165231419","0.0034225256828962184","-0.002583170684886607","-0.0013774085492567517","-0.002915948859316656","-0.0005455053836392396","0.29214729029145586","-0.10259915962809173","0.8650187735143826"
"0.0006718511306107421","0.0024509435891103995","-0.0014419165974095395","0.002273693154094968","-0.005878815422704283","-0.001668033388600477","0.2917902217332898","-0.1034667506546193","0.8636296013721634"
"0.0013699115837702875","0.004633092782987529","-0.002140721096896328","0.0009394487385912458","-0.007003713898415475","0.00021560842054320928","0.2908380389115133","-0.10421475480992282","0.8710174714012376"
"0.0007779056665782974","0.004752778796266837","-0.002438852364340421","0.0009511465108810586","-0.003765975140366213","-0.0010916083666804087","0.29245674970853336","-0.10273398796329533","0.8713542404054119"
"0.0008982063342429811","0.004148027399069231","-0.002292635118523891","-0.0005537631645225445","-0.004886878380689881","0.0037553236056283444","0.2918616354449232","-0.101581498802381","0.8666605224097325"
"0.0005436359453365583","0.004627932512945844","-0.001590032768496414","-0.0012345036743431428","-0.0020707168607321277","0.001092803565484269","0.29219489943254473","-0.1037985456012508","0.8650187735143826"
"0.000663936613001242","0.0036648971164165646","-0.0027255900801624443","-0.0009481701436671282","-0.0006643940043237612","0.005701447191855821","0.2927185999845215","-0.10374461426716935","0.8694388666941705"
"-2.4626419026875123e-05","2.9970647366580927e-05","-0.0015976284695777912","0.001378027902651093","-0.00488655876185888","0.005902981551273145","0.2908380389115133","-0.10584090177450897","0.869922972137671"
"0.0015060412866540276","0.0018460631851617503","-0.00042409265250486583","0.001691510740656449","-0.007707993992528165","0.004250889857204683","0.2910760846169576","-0.1049088276311449","0.8682812232423212"
"0.0015994325944463264","0.005484198697143906","-0.003131960088016177","0.0009248701716330463","-0.0032060029484508815","0.003241686644013066","0.2919092445860118","-0.10381964916676094","0.8661132727779491"
"0.0006576049989136137","0.0051141267059357605","-0.002157811424329427","0.0004915288160611752","-0.00348311247492953","-0.0021672750388288036","0.28705311219495255","-0.10558296930716296","0.8659238402131012"
"0.00112931024844092","0.0053578688361859295","-0.002146417872707361","0.0012270917213892546","-0.0017969633319789985","0.0046126103412044706","0.2884337772865281","-0.1051714497797154","0.8673551084808419"
"0.0005499675594241584","0.003297550392824184","-0.0015881338432260654","-0.00048436220205686403","-0.0031967340023518268","0.005397001670182841","0.29369458737684256","-0.10507765615522592","0.8683864635561257"
"-0.0009648711110376879","-0.00046460898444107134","0.00037535488631018475","0.004739129609385215","-0.005453242949225251","0.0015724430895686613","0.2911236937580465","-0.10566972840981571","0.8688284728741046"
"0.0011340589590066483","0.004151575084722889","-0.002999035319092057","0.005122362597088783","-0.0049020602751624716","0.0021344728001017775","0.29259957713179946","-0.10368599325186344","0.8666815704724933"
"0.000893457623677281","0.004636317951763581","-0.0035763086012768003","0.0051315287619427405","-0.005886166655817326","0.0005010643825142524","0.29229011771472246","-0.1025077108442145","0.8677760697360597"
"0.0005452188488584582","0.003904204639599661","-0.0021597103495997754","0.0026521248173512254","-0.004331221042993076","-2.053594284699917e-05","0.29219489943254473","-0.10069632147126163","0.8672077720415156"
"0.0013714944872921875","0.004390721349467183","-0.001996402776350142","0.005432440859576956","-0.0034968560846626116","0.0021546874926877094","0.28962400581374836","-0.09729864742413062","0.8560943949037633"
"0.00112772734491902","0.005720684197647957","-0.002146417872707361","0.0032869472060939025","-0.004336015325458104","-0.002716440854079963","0.2928376228372438","-0.09566781077832","0.855947058464437"
"-0.00028105678957529904","0.004378788224995788","-0.00046966685899313393","0.0017565468627154831","-0.0057330692357674155","-0.006522316158213206","0.29538471188549553","-0.09476387472230274","0.8620930927906181"
"0.0013762431978579157","0.003663607048906144","-0.001569144590522622","0.0022163391511516323","-0.004054271325929928","-0.004882782076205701","0.2941230696466421","-0.09389511127546904","0.8639663703763378"
"0.0013619970661607592","0.00608391883105087","-0.002000200626890831","-0.00042142120339302074","-0.0071427480899013025","-0.005996734150978966","0.2933137142481319","-0.09514608374209732","0.8595252291337889"
"0.0004233352776718746","0.004870303946466191","-0.0018786694095887812","-0.0012235915733265267","-0.002914830193408149","-0.0008095215201403548","0.29628928556618295","-0.09488580643413905","0.8676287332967334"
"-0.0002778909825314709","0.0031753164962117935","-0.0021768006770328703","0.0010729255582264978","-0.0023526206696758045","0.004867744264296615","0.29359936909466483","-0.09483070267975148","0.8658606960248183"
"0.00021755781982439227","-9.855232835911129e-05","0.0008310969511928741","0.0029722422127746845","-0.0029234599018452003","-0.0010958963317743945","0.2951228616095069","-0.0940522155964889","0.8640084665018596"
"0.0019619175009622774","0.004632447749232318","-0.0012710133230785289","0.0038992470183382825","-0.0032155915133809387","-0.0010839512861554347","0.29643211298944955","-0.0945059422549567","0.8637769378114897"
"0.0004280839882375747","0.0039037208642832538","-0.00216160927487012","0.00017237168552717823","-0.004043564095091364","-0.0005577567124791985","0.29567036673202873","-0.09297241649455389","0.8623667176065098"
"0.0011356418625285483","0.004147543623752823","-0.001859680156885338","0.0018641838271433871","-0.005456918565781772","0.001586532117734614","0.2966701586948936","-0.09343552251547063","0.85554714527198"
"0.0009029550448087093","0.0034209130985081923","-0.001865376932696371","0.003947085669195129","-0.002083821232803205","0.004332054910769411","0.29467057476916336","-0.09148930480731417","0.8562838274686114"
"0.0013667457767264873","0.005597660134685434","-0.0012862047252412876","0.0013833530079472016","-0.0008134961889861476","0.004356863851670328","0.2945991610575302","-0.09218572246914847","0.86095649740153"
"0.0007747398595344973","0.005357465690088923","-0.0024407512896107656","-0.0005816981431250826","0.0007424082803311091","0.008970101726356865","0.29281381826669944","-0.09285400204363593","0.86472410063573"
"-0.00025889614026864235","2.4971635763699907e-05","-0.00046397008318210093","-0.0006074507015242974","-0.0009432614343729197","0.001091578432600273","0.2923853359968999","-0.09472401243189471","0.868302271305082"
"0.001029587326560993","0.002209055930906461","-0.0010051637852302934","0.0007780369403534558","-0.006860524662126623","0.0015604980439497013","0.2925757725612554","-0.0951003593501587","0.8718804419744342"
"0.0006496904813040854","0.006806243755979472","-0.0018748715590480925","0.0009412819715620374","-0.0032016880942323553","5.498130937913566e-06","0.2915997851689346","-0.09391738726128529","0.8729328451124788"
"0.000896623430721081","0.004390882607905985","-0.00257747390907557","-0.0023356656121319387","-0.0017880140047109453","0.0037969781236842047","0.2921234857209113","-0.09533953309260684","0.8691020976899961"
"0.00018906555643010732","0.004384593528792683","-0.0015976284695777912","-0.00045145130539074905","-0.0003829696236265866","0.0003041242714119124","0.2910998891875019","-0.09487056497015951","0.868512751932691"
"0.0010200899054295647","0.003902108279895227","-0.0010070627105006377","-0.0018291695313446712","-0.0029169077158096614","-0.0032453919767451885","0.29114749832859105","-0.09548139594964716","0.8690600015644743"
"0.0010169240983857646","0.0041489949497020475","-0.002433155588529388","-0.0016898438255645131","-0.0037608612390701824","-0.0005540813138272106","0.2897192240959264","-0.09586360496944175","0.8662606092172754"
"0.00019381426699583554","0.003297227875946578","-0.00188246726012947","-0.0009083627991585117","-0.0020707168607321277","-0.001074150223083468","0.28738637618257407","-0.09700554234760103","0.8642399951922296"
"0.0013778261013798157","0.003178864181865451","-0.001282406874700599","-0.0013854398556049816","-0.006294959140668759","-5.055169850489856e-05","0.29086184348205785","-0.09609105450882872","0.8696072511962576"
"0.0009013721412867811","0.003784712136446916","-0.0021502157232480496","-0.0010821707441511779","-0.0054490879044222255","0.0013139400510455276","0.28876704127415015","-0.09793761649096512","0.872553979982783"
"0.00043124979528137475","0.0034160753453441133","-0.0010203551873930524","0.00018668836206097897","-0.0020745522867041503","-0.0026946947453890353","0.2893383509672157","-0.09760816638494588","0.870933279150194"
"0.000668685323566942","0.0031780578896714383","-0.0018691747832370596","0.0007913060551896613","-0.0032020077130633577","-8.590897228039218e-06","0.28714833047713","-0.09601132992801267","0.8741325846898499"
"0.0016089300155777548","0.004150285017212468","-0.0021331253958149507","-0.0009141243884952849","-0.003624863426478874","-0.0005522436145012168","0.29198065829764525","-0.0966010573419902","0.8721330187275651"
"0.0009061208518525093","0.0028178065373863728","-0.0022907361932535467","0.0017077479469691744","-0.005877696756795776","0.0021160958068418387","0.28895747783850506","-0.09743230333902812","0.8698177318238666"
"0.00112931024844092","0.005478796539444018","-0.002146417872707361","0.0026698460694022106","-0.004334736850134096","-0.0032579495888061475","0.2900286835130036","-0.09659871250137797","0.8725960761083046"
"0.00017640232825487894","0.006084773500776525","-0.0035952978539802436","0.002167016454556526","-0.002498686475443673","0.0032545505392950233","0.2895287875315709","-0.09473808147556813","0.8698177318238666"
"0.0004296668917594747","0.0031817668337638986","-0.0031585450418010015","-0.002312793848401111","-0.001505950386351768","0.000552826246863079","0.2883861681454395","-0.09761285606617036","0.8714384326564555"
"0.0010311702300828931","0.0017252806144985847","-0.0010051637852302934","-0.0019712014381769506","-0.0029175469534716654","-0.004875431278901725","0.2856962516739211","-0.09608753724791036","0.8710385194639985"
"0.00044074721641280306","0.0019637818454876672","-0.0007336174715710251","-0.0012104970521065869","-0.007698565237013609","-0.003316143400795952","0.28741018075311864","-0.09731154404749794","0.8716699613468253"
"0.0006591879024355137","0.004393462742926828","-0.003582005377087829","-0.0007436337222116701","-0.006857328473816603","-0.0032977664075360133","0.2861247339437206","-0.09613677890076733","0.8732696141166532"
"0.00043124979528137475","0.0029392341418047496","-0.003014226721254816","0.0001642530823708156","-0.004746885332711049","0.0010499239145444126","0.2868388710600528","-0.0970536115801519","0.8738379118111973"
"0.0011245615378752199","0.006086515091915593","-0.00300283316963275","0.0026217455281209653","-0.0043323397089015826","0.004581063169441576","0.28752920360584067","-0.09619305507546103","0.8755217568320689"
"0.0010153411948638647","0.0041510913094064805","-0.00300283316963275","-0.0011004157770509607","0.001022234566873273","0.005455195482172647","0.28798149044618426","-0.09860706848575873","0.8761111025893741"
"-0.0002668106578781425","0.001358256407783808","-0.0013203853801074898","0.00016634820576600593","-0.0024924539082391366","0.0010756517051083265","0.28657702078406416","-0.09767382192208851","0.8749324110747638"
"0.0013794090049017158","0.0024572326682237014","-0.002421762036907318","0.0015827389177228168","-0.008272760466908525","-0.0030527398307368353","0.28645799793134213","-0.09791534050514888","0.8721961629158476"
"0.000893457623677281","0.004876189879482487","-0.0030066310201734385","0.0021796744917358013","-0.007707834183112665","0.00047748057449733145","0.2877434447407402","-0.09702547349280506","0.8722382590413696"
"0.0013667457767264873","0.0053578043328104084","-0.0018558823063446494","0.0018582476441903477","-0.006301671136119799","0.0021200774887148253","0.2893621555377603","-0.09791885776606725","0.8714805287819771"
"0.0001874826529082073","0.004148188657508034","-0.0031642418176120344","0.0004545149694128123","-0.00150978581232379","0.004611385208320475","0.2871721350476746","-0.09928121016177677","0.8727644606103919"
"0.0013746602943360156","0.003905494707110082","-0.001569144590522622","0.0015559387976260067","-0.004894709042049428","0.001322822264454498","0.2886480184214281","-0.09862348237004437","0.869523058945214"
"0.0004201694706280745","0.0051141912093112816","-0.002448346990692143","8.865404652769708e-05","-0.005449886951499732","-3.156213880296208e-05","0.28498211455758865","-0.09708526692841708","0.8688284728741046"
"0.0013667457767264873","0.005117932405091502","-0.002425559887448007","-0.0009199732746401917","-0.0034826330466830274","0.0002640011694610471","0.2901715109362702","-0.0968120929970915","0.8684917038699301"
"0.00112931024844092","0.004997069205208936","-0.0027160954538107225","-0.0008626192716968555","-0.00601289552230958","0.003202482391725198","0.2890288915501382","-0.09820492832076012","0.8709122310874332"
"0.0004170036635842463","0.00583880600407088","-0.0021635082001404643","-0.0004486578075304953","-0.004745287238556039","-0.0011004905800893793","0.2883623635748949","-0.09967045370340807","0.869523058945214"
"0.0014886293479130712","0.004632609007671121","-0.0018520844558039564","-0.002323531355801461","-0.0016507377167956294","0.0016379876988624415","0.28707691676549685","-0.0996727985440203","0.8700282124514757"
"0.0011324760554847482","0.004873609744461644","-0.0020039984774315196","-0.003248964818818666","-0.0023505431472742922","0.0005482319985480944","0.2877910538818293","-0.10089446050299564","0.8708701349619113"
"-0.0002873884036628992","0.0048679979507913135","-0.0020381791322977216","-0.001848636719558315","-0.0023470273401332716","9.173529589901204e-06","0.28976683323701496","-0.10135287684268791","0.8706807023970633"
"0.0011308931519628202","0.005115997303825871","-0.002146417872707361","-0.0014847836232602574","-0.0029162684781476583","0.0037853393612862435","0.28755300817638524","-0.10270936713686686","0.8573993747949389"
"0.0008855431060677527","0.007047550883803721","-0.0014419165974095395","-0.002171634909650161","-0.0043203540027390115","0.0010719763064563387","0.28788627216400675","-0.10256164217829596","0.8574204228576995"
"0.0004233352776718746","0.004750376045528678","-0.0021635082001404643","-0.003837607196059022","-0.004035413814900816","-0.004879719243995712","0.28657702078406416","-0.10373992458594489","0.8639663703763378"
"0.0007858201841878256","0.003659253071058473","-0.001012759486311675","-0.003887715563927325","-0.004034295148992309","0.0032245347836371238","0.2903857520711697","-0.10503662144451179","0.8674182526691244"
"0.0006750169376545703","0.002208088380273645","-0.0011570778068578566","-0.002302667418657691","-0.005164786954246035","-0.0019308243922175961","0.2907428206293358","-0.10623249015675253","0.8671656759159937"
"0.0016010154979682265","0.0056011110652758106","-0.0019926049258094537","-0.00030793535282020996","-0.004328664092345061","0.0013359924429574537","0.2917426125922012","-0.10610704118399786","0.8608933532132471"
"0.0006528562883479136","0.005720813204398999","-0.0027274890054327884","-0.00017026828639457722","-0.00432355019104903","0.004309389952415487","0.28848138642761695","-0.10579517738257037","0.861314314468465"
"0.0005341385242051299","0.006081161311747346","-0.00216160927487012","0.0012219412097094116","-0.004325787522866043","0.004852123820025668","0.2876244218880182","-0.10717277124225945","0.8629139672382932"
"0.00019381426699583554","0.0034170428959769293","-0.0015976284695777912","-0.0021428269629662935","-0.006147774668992382","-0.0030202738093109446","0.28798149044618426","-0.10821857015531702","0.8626613904851624"
"0.000667102420045042","0.003899689403313188","-0.0007317185463006807","-0.002773284511302324","-0.005444453431372699","-0.0016573134758655125","0.28826714529271746","-0.10850346828970378","0.8618615641002484"
"0.000896623430721081","0.004392978967610419","-0.0031490504154492757","-0.00013543685994953761","-0.0037642172367957022","-0.0008236105483063074","0.2871959396182189","-0.11037582351857479","0.8656712634599703"
"0.0011435563801380484","0.0029371377821003158","-0.0015729424410633108","-0.00028227009122912814","-0.0036245438076478714","-0.0021776886683427684","0.2885528001392501","-0.10922098951704821","0.8673761565436029"
"0.0013651628732045873","0.005359304036291273","-0.0022831404921721697","0.002006652218016331","-0.005317085327218442","0.003484262955044253","0.29150456688675713","-0.10806615551552164","0.8614406028450304"
"0.0004122549530185462","0.0065674522598005445","-0.003019923497065849","-0.001393383865145078","-0.0015070690522602744","0.0016474824787134099","0.29152837145730115","-0.11029140925653427","0.860346103581464"
"0.0006607708059574137","0.004748295811668125","-0.0013013961274040424","-0.0020096993305635732","-0.0040389296220418374","0.0005264858898571674","0.2905999932060692","-0.11089637813449135","0.8608723051504863"
"0.000895040527199181","0.00487267444551659","-0.002009695253242557","-0.0009281791746046869","-0.003057699810865999","0.0016205295552655001","0.29055238406498085","-0.11132782880714291","0.8528950893641072"
"0.00019539717051773558","0.0034165591206605215","-0.0014552090743019499","0.0004922271905262386","-0.004324828666373038","-0.0021844268992047464","0.2912427166107685","-0.11312045945519787","0.8523688877950848"
"0.0008982063342429811","0.004267519902221977","-0.001865376932696371","0.0015477328976615111","-0.0046105679012887375","0.002679350650258951","0.28979063780755954","-0.11289652717672927","0.8564311639079375"
"0.001585186462749198","0.00850619796614899","-0.0027103986779996895","0.00015054748349394538","-0.003203765616633868","0.002172758202726649","0.2911236937580465","-0.1123243860673435","0.8573151825438949"
"0.00029986880296339083","0.005837838453438064","-0.0020248866554053112","-0.003596668005612132","-0.0014995580097317295","0.006509728612072113","0.29007629265409246","-0.112725353812036","0.8624930059830753"
"0.0003267781628357476","0.0009957474373555064","-0.0007355163968413693","0.0003962879983881471","-0.0051684625708025575","0.0010385914353674508","0.2870055030538634","-0.11604799295957542","0.8645978122591648"
"0.0006576049989136137","0.005831710632763564","0.00012089890008401529","0.001895174194030578","-0.006018169233021111","-0.0043584252018554585","0.2879338813050956","-0.11381687711703219","0.8651661099537089"
"0.0006544391918698136","0.006077597500249807","-0.0010184562621227038","-0.0031220352597933843","-0.004175406862879648","0.004313371634288474","0.29005248808354817","-0.11582757794202517","0.8603040074559419"
