"AccX","AccY","AccZ","GyroX","GyroY","GyroZ","MagX","MagY","MagZ"
"0.0005309727171613299","-0.008879235579600877","0.00019685591089780105","-0.00024289923076117604","-0.0038939824821824743","-0.001094671198890399","0.8974023009535972","0.38621452134091705","-0.37063300853925013"
"0.0008871260095896527","-0.009125154698774882","0.0013381099983748644","-0.0013469419632183587","-0.003759902382577177","-0.0010860952687024275","0.896450118131821","0.38712900917968945","-0.36957218617610105"
"0.0010058437737324364","-0.00960844623986635","0.0016229487889265432","0.0011803006322300034","-0.005199305787994241","-0.003343096324243861","0.8952598896046006","0.38775039194193217","-0.3735355363939775"
"0.000768408245446869","-0.00936220460381474","0.0002006537614384855","0.00039620070158001417","-0.003770769422831241","-0.0033164496840169515","0.8969262095427091","0.38682417990009865","-0.37066247582711537"
"0.0008887089131115527","-0.008762968245224186","0.0010551701330935258","-7.563854637847967e-05","-0.003923866842881152","-0.003869903464362096","0.8962120724263769","0.3880552212215229","-0.36961217749534675"
"0.0013635799696826874","-0.00864653965240869","0.001632443415278269","-0.002279446467694331","-0.0022215769489650253","-0.0038331494778422186","0.9002588494189264","0.3886883281868268","-0.37063721815180234"
"0.0005309727171613299","-0.01020832763221212","0.0013267164467527985","-0.0001518486598785287","-0.006089604041750037","-0.005554767463077448","0.9009729865352587","0.386847628306221","-0.3699973570438711"
"0.0008855431060677527","-0.009602802194508257","-8.228610384284888e-05","-9.170115907493898e-05","-0.0028676864158353687","0.0011307826848881417","0.8988305751862621","0.39115041082967533","-0.36963743517065983"
"0.0006481075777821854","-0.010085771218722124","0.0009051550367363113","-7.022614427423797e-05","-0.0033618171285643085","-0.004967622528422417","0.8981164380699299","0.39051730386437145","-0.3685239926506084"
"0.0007699911489687691","-0.00864283070831623","0.0013381099983748644","-6.891669215224391e-05","-0.006101589747912608","-0.0066671881217457195","0.898592529480818","0.39082213314396225","-0.36684856685484124"
"0.000768408245446869","-0.00936091453630432","-0.00022470549911869035","-8.000338678512623e-05","-0.004913726362494041","-0.002773103249964773","0.9004968951243705","0.3909862719868188","-0.36596033860633154"
"0.0008871260095896527","-0.009363655929763966","0.00048549255199016844","-0.001971987109450147","-0.005070339589684973","-0.002759626788240818","0.9000208037134824","0.3905290280674326","-0.3667938418916629"
"0.0005341385242051299","-0.008400781791673488","0.0013324132225638315","-0.000550707776237892","-0.0037771617994512797","-0.0033069549041659834","0.9000208037134824","0.39037661342763724","-0.36678752747283466"
"0.0004170036635842463","-0.007678989019592934","0.0019001918783968486","-0.002323007574952664","-0.006272745631914127","0.005541873633715356","0.9004968951243705","0.38898143326335644","-0.36673069770338024"
"0.0006512733848260136","-0.00888310578213214","0.0013343121478341757","-0.0009252110831281673","-0.008218904693884704","0.010213305320391698","0.8990686208917061","0.38929798674600835","-0.36817669961505367"
"0.0019492542727870491","-0.012261147558169544","0.0007817248941639131","-0.00011972343448560994","-0.006822809640068399","0.006613864907211763","0.9057339006441405","0.3856283111878579","-0.36898073561251993"
"0.0013572483555950592","-0.011171040511863793","-0.0003614281185834988","9.729643053285729e-05","-0.0029530246437128762","-0.006908845583113909","0.9069241291713608","0.38471382334908555","-0.3694732602811248"
"0.0010074266772543364","-0.008763613278979397","0.0010570690583638744","-0.0013465927759858268","-0.003760062191992678","-0.0010876266848074223","0.9057339006441405","0.3836117482613344","-0.36612451349586644"
"0.000766825341924969","-0.010329271461314087","0.0013324132225638315","0.0003762097325175729","-0.004870098392062282","0.001102910911777235","0.9026393064733677","0.3843738214603113","-0.3687492069221501"
"0.0014775490232597427","-0.010811434193333937","0.00021014838779020713","0.00037612243570943994","-0.0032843095620463474","0.0022254389167384726","0.9050197635278082","0.3851593430654106","-0.3692627796535159"
"0.0008871260095896527","-0.009122252046876432","0.0003449720819846713","-8.716172505202662e-05","-0.004320833430985514","-0.000827285946958295","0.9069241291713608","0.3863903843868349","-0.3667433265410368"
"0.000768408245446869","-0.00924174455002918","0.0002006537614384855","-0.002612920274762129","-0.005187959319493673","1.56054772308797e-05","0.9057339006441405","0.3860738309041829","-0.36425123591014685"
"0.0010058437737324364","-0.00936752613229523","0.0016229487889265432","-0.0013584651418919057","-0.005455640090457766","0.0011075051600922198","0.9033534435896998","0.38621452134091705","-0.364606948170806"
"0.0007699911489687691","-0.008159216650347153","0.0007722302678121914","0.0006873355567033402","-0.003704288705982846","0.0027755235816526286","0.9047817178223642","0.3860621067011216","-0.364278598391736"
"0.000768408245446869","-0.0096052210710903","0.0009089528872769999","-0.001215385673362031","-0.006993645905238916","0.004413219964334139","0.9054958549386963","0.38730487222560717","-0.3637439775976093"
"0.0014775490232597427","-0.01129682209412984","0.0013438067741858974","-0.00024953378817927887","-0.004888156856013889","-5.5280650180496095e-06","0.9047817178223642","0.38637866018377365","-0.36428912242311645"
"0.0010058437737324364","-0.009124993440336081","0.0010570690583638744","0.00015185693561593937","-0.002890539162252005","-0.001089158100912417","0.9064480377604727","0.38637866018377365","-0.3645227559197624"
"0.0012416963984961036","-0.009847108729294235","0.0004911893278012014","-0.0010571165602170265","-0.005698870020850212","0.004978312507077244","0.9071621748768054","0.38670693786948673","-0.366465492112593"
"0.0010074266772543364","-0.008404651994204749","0.0019096865047485703","-0.0016712496054321984","-0.0037391271585620538","0.0011317015345511385","0.9054958549386963","0.38637866018377365","-0.36483005763607146"
"0.0002951200923976626","-0.009364139705080373","0.0016096563120341328","0.0003615438687512404","-0.005692957072476678","0.004420264478417115","0.9057339006441405","0.3866834894633644","-0.3634324662687481"
"0.0010058437737324364","-0.009366719840101213","0.0013400089236452087","0.0006986841417606212","-0.005608417891676674","-0.0011283623532002856","0.9064480377604727","0.3859214162643875","-0.36450802227582974"
"0.0007699911489687691","-0.009124670923458474","0.0013362110731045202","0.0008443825145344837","-0.0037034896589053412","0.0027752172984316296","0.9071621748768054","0.38484278958275864","-0.36473323654737133"
"0.0006512733848260136","-0.008400943050112289","0.0011937916778286786","0.0004501501290061657","-0.004568058596765485","0.0024906801861235834","0.9064480377604727","0.385311757705206","-0.3650468526825087"
"0.0007699911489687691","-0.008401910600745105","0.0013381099983748644","0.0010197618020735427","-0.005766629213022615","-0.002793930508992703","0.9026393064733677","0.3851358946592882","-0.3643080656796012"
"0.0005309727171613299","-0.009120478204049603","0.00033737638090329395","-0.0007193652095507151","-0.006045816261902776","-0.0011179487236863208","0.904067580706032","0.3866717652603033","-0.3629273127624866"
"0.0010058437737324364","-0.009365913547907202","0.0010551701330935258","-8.42809303836399e-05","-0.0014540123263139585","-0.0005142644950973444","0.9064480377604727","0.3863669359807125","-0.36117611394078014"
"0.000768408245446869","-0.009605704846406707","0.0010513722825528414","-0.00016817316299938691","-0.002590896508187722","0.00030504312107490944","0.9054958549386963","0.38759797730213674","-0.3612455725478911"
"0.0008887089131115527","-0.008401588083867501","0.0010570690583638744","-0.0016632182990839687","-0.0046212751321273015","-0.0010949774821113977","0.9069241291713608","0.38728142381948477","-0.3584019792688943"
"0.0012416963984961036","-0.010088996387498175","0.0010589679836342186","0.0005429466360514717","-0.002160689561659163","2.3568840976853e-05","0.9057339006441405","0.38544072393887896","-0.3611634851031236"
"0.00053255562068323","-0.008880041871794888","0.0004797957761791312","0.00037446379635491426","-0.003135526996214962","0.0025112011619305144","0.909542631931246","0.3865076264174467","-0.3557878098739911"
"0.0014807148303035429","-0.0091262835078465","0.0007836238194342574","-9.501843778399043e-05","-0.00574042046888046","0.0005344492536031405","0.9074002205822495","0.3896028160255991","-0.3593028363550605"
"0.0005309727171613299","-0.009725358607998254","0.0011880949020176457","0.0002127901076927254","-0.004566300693194974","0.002771848183000641","0.9090665405203578","0.3883600505011137","-0.35530791404304274"
"0.0010058437737324364","-0.009242067066906784","-7.848825330216022e-05","0.0011647618003823416","-0.0028478700483132507","0.002226970332843467","0.9107328604584664","0.38651935062050785","-0.3568696802999011"
"0.0010042608702105363","-0.01008738380311015","0.0007703313425418471","0.0008504059942956558","-0.004437654113716709","0.0011019920621142382","0.9083524034040257","0.38773866773887095","-0.35530580923676663"
"0.0005309727171613299","-0.009361075794743124","0.00019495698562745252","0.000862976734666798","-0.0008727854821370004","-0.0005112016628873542","0.9114469975747985","0.3902124745847807","-0.3533525490125556"
"0.0010042608702105363","-0.010085771218722124","0.0003449720819846713","0.00037856674633716204","-0.0028592165168138182","0.0016802547833602998","0.9104948147530222","0.3906697185041669","-0.3531147059033575"
"0.0014791319267816428","-0.009366074806346006","0.00035636563360673726","0.00013867511758786674","-0.003139841850433488","0.002505075497510535","0.9114469975747985","0.39068144270722804","-0.3553163332681471"
"0.0012416963984961036","-0.01008738380311015","0.0002082494625198628","0.0002375824012024779","-0.00391347923087359","-0.003043551334106866","0.9159698659782363","0.3882076358613183","-0.34757275097841395"
"0.000768408245446869","-0.008881170680866506","0.00048549255199016844","0.00021427415343098526","-0.0028419570999397158","0.003345210372710719","0.9162079116836803","0.3881959116582571","-0.3453353419069309"
"0.0012432793020180036","-0.009244002168172418","0.00021014838779020713","0.0003695751750994701","-0.004561026982483443","0.0033179511660418105","0.9138274546292396","0.3881959116582571","-0.34679607746253693"
"0.0012416963984961036","-0.010085771218722124","-7.65893280318159e-05","-0.0008793802588583783","-0.002873918983039906","0.0011347643667611283","0.9145415917455718","0.38926281413682484","-0.3451374901169785"
"0.00053255562068323","-0.008276935310673071","0.00019875483616814117","0.0005423355583945411","-0.0028743984112864092","1.928087588286734e-05","0.9114469975747985","0.39140834329702145","-0.34529956020023733"
"0.0014791319267816428","-0.009365591031029595","0.00021394623833089578","-0.001668106920339413","-0.0031666898322376476","0.0011350706499821273","0.9197785972653417","0.39082213314396225","-0.3419718614777399"
"0.0010058437737324364","-0.009241583291590376","-0.0002209076485780017","-0.0011951328138751912","-0.0051759736133311016","0.00027839648084799893","0.9197785972653417","0.38973178225927213","-0.34082474205727115"
"0.0010042608702105363","-0.009241099516273969","-0.0003614281185834988","-0.0010356415454163257","-0.003453068304815352","0.0005757974884380019","0.9188264144435655","0.3902007503817195","-0.3416961318555722"
"0.0010042608702105363","-0.009360753277865516","-0.0006462669091351776","-0.0026193802385639656","-0.0045917103902596255","0.0022370776791364334","0.9212068714980062","0.3923462795419161","-0.33780224024480665"
"0.0012432793020180036","-0.00875958181800933","-0.0006386712080538002","-0.002446270668036363","-0.002907958388541608","-0.001069555974768483","0.9166840030945684","0.38923936573070245","-0.33838106197073126"
"0.0010026779666886363","-0.010205102463436064","-0.0003652259691241875","-0.0010369509975383195","-0.006902394728987873","-0.000575521139297139","0.9162079116836803","0.3892276415276413","-0.3356006128800171"
"0.0012416963984961036","-0.009843883560518183","-0.00035952919331315024","-0.002610388667326274","-0.0028913382093295097","0.0005950933313609372","0.9195405515598977","0.3901773019755972","-0.33582372234528257"
"0.0012401134949741755","-0.010084158634334097","-0.0007848884538703303","-0.000881388085445436","-0.004592349627921629","0.0011127119748492022","0.9231112371415592","0.39048213125518794","-0.3329380329407639"
"0.0012416963984961036","-0.009601995902314246","-0.0009254089238758232","-0.00040631885558602355","-0.002580988324426663","0.0014107255488812033","0.9233492828470032","0.3886297071715209","-0.33035754044627824"
"0.0012401134949741755","-0.010327658876926061","-7.65893280318159e-05","0.00022509895763946875","-0.004597143910386658","-4.9154985760515815e-06","0.9240634199633354","0.38986074849294516","-0.3289852067542679"
"0.000766825341924969","-0.009358818176599887","-0.0009349035502275491","-0.0005033056094217102","-0.002530168930297361","0.006125649452939398","0.925967785606888","0.3903531650215149","-0.3334137191591601"
"0.000768408245446869","-0.008636057853886518","-0.0009330046249572005","-0.0008926493736945839","-0.004848044692723151","0.0038827374255639173","0.9235873285524473","0.3895676434164156","-0.33512703146789696"
"-0.00017658515712964381","-0.007435327518562167","0.0018887983267747786","-0.001090725831348205","-0.005896714077240389","0.013020697324068287","0.9254916941959997","0.39048213125518794","-0.33035964525255435"
"0.0002982858994414627","-0.006828512013347888","-0.00036902381966487613","0.00048114049589335634","-0.010615886116983466","0.012664796221267483","0.9323950196538787","0.3865076264174467","-0.32975556585131666"
"0.0007699911489687691","-0.00839723410601983","-0.00022280657384834602","-0.001417739674614166","-0.009025143195087001","0.015468819109513079","0.9309667454212138","0.3852765850960224","-0.333104312636575"
"0.0010058437737324364","-0.008879719354917284","-0.0003614281185834988","-0.00159416652385082","-0.010987922436269679","0.019599048344684233","0.9300145625994375","0.37881654920931024","-0.334868140295938"
"0.0013619970661607592","-0.00815953916722476","-6.709470168009426e-05","1.017421601619177e-05","-0.00702976283314213","0.013814583432897626","0.9304906540103256","0.3782068906501287","-0.3367877236197315"
"0.0004154207600623463","-0.007311803554439354","-8.41850291131932e-05","-0.0002922219273562824","-0.006777903194312631","0.010503661813898724","0.9364417966464282","0.37698757353176565","-0.3343482531457439"
"0.0006544391918698136","-0.005987065479675788","-0.00035952919331315024","-0.0017132393701441385","-0.007355134803102066","0.01105956586001186","0.9376320251736486","0.37393928073585786","-0.3389514644715515"
"0.0012432793020180036","-0.008398201656652645","-0.0006386712080538002","-0.002043395898502885","-0.0065955606512260465","0.015501285130938972","0.9435831678097507","0.3724268585409652","-0.3406879296493253"
"0.0018368681227318938","-0.00840287815137792","-5.9499000598716945e-05","0.0005304631924884626","-0.005432787344041129","0.0021914414792075865","0.9407266193444214","0.372415134337904","-0.3407679122878167"
"0.0002967029959195626","-0.006947359482745421","-0.0009368024754978934","-0.001207878147862599","-0.0034107188097075997","0.004460693863588981","0.9376320251736486","0.37331789797361514","-0.34005017334767024"
"0.0007715740524906973","-0.007196019995379071","0.0009165485883583772","-0.0008151298080725408","-0.0068656385634226534","0.002747345525320723","0.9395363908172011","0.37101995417362316","-0.33991757055227656"
"0.0010105924842981364","-0.006229598171634936","-0.00035193349223177294","0.0005446052754059975","-0.004462904001365859","-0.0011151921746973298","0.9383461622899808","0.3728606540542289","-0.33945661797781296"
"0.00053572142772703","-0.006711760903654787","0.00048739147726051274","6.063177111702611e-05","-0.005444293621957198","0.0010973978137992534","0.939060299406313","0.37316548333381977","-0.3380506073853852"
"-0.00017500225360774378","-0.006225566710664871","0.00019115913508676384","0.00022047222680842337","-0.006022643896655138","0.0002633886030190491","0.939060299406313","0.3737751418930013","-0.3372339425502625"
"0.0006528562883479136","-0.0069515522021542904","-7.848825330216022e-05","-0.00025101783391753873","-0.005022556574450188","0.0005503759810950872","0.9407266193444214","0.37316548333381977","-0.3371665887494276"
"0.0007731569560125973","-0.006470195762328452","-7.469040276147157e-05","0.0004651651800050299","-0.004606093237654711","-0.0011139670418133338","0.9407266193444214","0.37331789797361514","-0.33633308546409624"
"0.00053572142772703","-0.006469228211695637","-7.848825330216022e-05","0.0003948912494580202","-0.0039104428519790724","-0.0030417136347808725","0.9407266193444214","0.37439652465524403","-0.3366509112117857"
"0.0010074266772543364","-0.007677376435204908","0.0003525677830660486","-0.0003274898378419864","-0.0021538177567926218","0.001139358615076113","0.9388222537008689","0.37515859785422095","-0.33533119767667763"
"0.0002967029959195626","-0.007312932363510975","0.00048169470144947973","0.0016545841908162193","-0.003468889436949945","-0.002766977585544794","0.9388222537008689","0.37362272725320594","-0.33723604735653856"
"0.0005341385242051299","-0.007072657289695063","0.0003449720819846713","7.058360724418029e-05","-0.004032377436006297","-0.0008236105483063074","0.9383461622899808","0.374842044371569","-0.33505967766706213"
"0.0006528562883479136","-0.0076751188170616725","0.00020255268670882982","0.0010945751666434648","-0.005031346092302741","-0.0011228492552223044","0.94120271075531","0.37439652465524403","-0.33524279581308186"
"0.0007715740524906973","-0.007675763850816882","0.00020635053724951847","0.0008558183963998976","-0.0025806687055956613","0.0005718158065650153","0.9404885736389773","0.3760848098960545","-0.333081159767538"
"0.0004154207600623463","-0.007312609846633368","0.00019875483616814117","0.0010170556010214219","-0.002876795552518923","-0.0005387671527772621","0.9376320251736486","0.3760848098960545","-0.33706766285445144"
"0.0012448622055399037","-0.007194891186307451","-0.0002095140969559357","0.00148068894901542","-0.0037116399390958897","0.001655445842459383","0.9397744365226451","0.37453721509197824","-0.33472501346916383"
"0.0005341385242051299","-0.007433714934174142","0.0002006537614384855","4.247403502537641e-05","-0.005104698614017677","0.006088895466419522","0.9397744365226451","0.3748537685746302","-0.33529541596998413"
"0.0007699911489687691","-0.007674957558622869","-7.848825330216022e-05","0.0005384072020285592","-0.002863211752201342","0.0011249633036891614","0.9364417966464282","0.3749827348083032","-0.3326012639365896"
"0.0008902918166334528","-0.007434521226368155","-7.469040276147157e-05","-0.000251803505190735","-0.005596112566683101","0.0005414937676861167","0.9376320251736486","0.3759206710531979","-0.33539434186496025"
"0.0004170036635842463","-0.006710309577705563","0.0002006537614384855","-0.0014946481625792785","-0.004791152540804812","-0.003866228065710108","0.9369178880573165","0.37589722264707554","-0.331504659866747"
"0.0007699911489687691","-0.0081558302231323","-0.0003633270438538431","-0.00024935919456301305","-0.0056015460868101335","-1.1041162996031065e-05","0.9378700708790927","0.3759089468501367","-0.33259705432403747"
"0.0010090095807762365","-0.007195052444746255","0.00021204731306055145","-0.0007189287255100506","-0.004608969807133728","-0.0005513247648382197","0.9364417966464282","0.37575653221034133","-0.33290646084662256"
"0.0007715740524906973","-0.00743484374324576","0.00020635053724951847","-0.00010950970793405706","-0.004977809938109923","0.004704495307504163","0.9364417966464282","0.3773041270144175","-0.33602788855406324"
"0.0007699911489687691","-0.00791700647526561","0.0003468710072550156","-9.798652926051011e-05","-0.0037153155556524115","0.002227889182506464","0.9381081165845367","0.3762137761297275","-0.3320392806608737"
"0.0007715740524906973","-0.007675280075500476","6.393114197367702e-05","0.0008449935921914141","-0.005427513633329598","0.002197567143627566","0.9373939794682046","0.3776089562940083","-0.3329422425533161"
"0.0010074266772543364","-0.007797352713674061","0.00021014838779020713","-8.812198994148885e-05","-0.004318276480337499","-0.0005525498977222161","0.939298345111757","0.3754517029307505","-0.33281595417675075"
"0.0006512733848260136","-0.007794772578653218","-8.038717857250455e-05","0.00046176060448784555","-0.002869284509990378","0.0005724283730070133","0.9342993852974312","0.37728067860829523","-0.3333021644265274"
"0.00030145170648529084","-0.005507321624237976","0.0009127507378176886","0.0003604963070536453","-0.003962380912016882","0.0055473867316933375","0.939060299406313","0.3765186054093183","-0.32951351312956634"
"0.0007731569560125973","-0.006956389955318369","0.0013419078489155531","-0.0001913941139627466","-0.0067007152466256725","0.004406175450251163","0.9371559337627605","0.3765186054093183","-0.33095741023496367"
"0.0005341385242051299","-0.006828350754909084","-0.0007905852296813633","0.00037228137615159096","-0.004564382980208963","0.0027678665011276545","0.9404885736389773","0.37623722453584985","-0.3328075349516464"
"0.00053572142772703","-0.006831414665246335","0.00020255268670882982","-0.002144660195937085","-0.007762329193798488","-2.1454792509995947e-05","0.9378700708790927","0.3748303201685078","-0.3311615764437444"
"0.0007731569560125973","-0.0062302432053901475","0.00021014838779020713","-0.0015327095709252367","-0.005981253258040393","0.005534216553190381","0.939298345111757","0.3762137761297275","-0.33005444834252134"
"0.0007715740524906973","-0.007437262619827799","0.0010570690583638744","-0.0015319238996520403","-0.006274024107238134","0.004977393657414248","0.9369178880573165","0.3741972132032039","-0.3292188402509138"
"6.243327467782351e-05","-0.005743726495522625","-0.000228503349659379","-0.0011307077694730878","-0.00830040749579019","0.002459439297581688","0.9423929392825304","0.3739275565327967","-0.3318435336771974"
"0.0004170036635842463","-0.00622927565475733","0.00048739147726051274","-0.002167968443708578","-0.007411068098527399","0.006078481836905557","0.9433451221043067","0.3726847910083112","-0.3300965444680431"
"0.0007699911489687691","-0.007916200183071598","6.203221670333691e-05","-0.0020021045082560082","-0.005417285830737537","0.004992707818464197","0.9423929392825304","0.372227547088925","-0.3312268254383032"
"0.00029986880296339083","-0.005987871771869801","0.00048549255199016844","-0.0013267764005396516","-0.004744328382063033","0.013863282465036464","0.94643971627508","0.3722509954950474","-0.33167093956255805"
"0.0010090095807762365","-0.007193278601919425","-0.0003557313427724616","-0.0018576282907960071","-0.005954245466820732","0.00830607970323109","0.9469158076859682","0.36946063516648575","-0.3282190572697713"
"0.00053572142772703","-0.005986420445920577","-0.0003614281185834988","-0.002177396498986934","-0.004648442732762463","0.009990943701946442","0.94643971627508","0.37038684720831927","-0.32881892705845683"
"0.0002982858994414627","-0.006467615627307612","-0.00022660442438903467","0.0004980760766711451","-0.005339938073635077","0.010515606859517683","0.9490582190349647","0.36931994472975155","-0.32926935560154"
"0.0012480280125837038","-0.0059890005809414195","-0.0006310755069724228","-0.00025494619028352064","-0.002708835856827424","0.002790225176260579","0.9481060362131885","0.3688509766073042","-0.3292819844391965"
"0.0004154207600623463","-0.006948810808694647","-0.0006500647596758662","0.0016212368101094397","-0.005099105284475144","0.005521658941129424","0.9504864932676296","0.36623647932466025","-0.32717086374427873"
"0.0005388872347708582","-0.0045417060926878534","-7.279147749112725e-05","-0.00010174029201022612","-0.0021213764454459287","0.003909690349011827","0.9538191331438465","0.3677957983317977","-0.3279643757103645"
"6.559908172162357e-05","-0.004302721086382363","0.0013362110731045202","-0.0013624807950660207","-0.006306465418584826","0.001655139559238384","0.951914767500294","0.3669985525236372","-0.3249250354476913"
"0.0008918747201553809","-0.005506354073605159","-0.00035193349223177294","0.00020833797047794592","-0.004262662803743168","0.004431290674373078","0.9512006303839617","0.366541308604251","-0.3249271402539674"
"0.0005388872347708582","-0.0043004634682391255","-0.00021331194749662436","0.0005135276117106739","-0.0062473359348494744","0.006067761924170593","0.9507245389730736","0.3662247551215991","-0.32577327237695536"
"0.0007731569560125973","-0.0062302432053901475","0.00021014838779020713","-0.0013705121014142502","-0.005129628882835826","0.0047127649544711344","0.951914767500294","0.3659316500450695","-0.3265667843430411"
"0.0005388872347708582","-0.004784400043085805","0.0004930882530715457","0.0009803036447974577","-0.004215678835585888","0.00830638598645209","0.9523908589111821","0.36484129916037933","-0.32512078243136766"
"6.559908172162357e-05","-0.004299334659167507","0.00020255268670882982","0.002634665455724639","-0.005065385497804444","0.00800806612919909","0.9495343104458528","0.365450957719561","-0.3246640394694562"
"6.559908172162357e-05","-0.004056801967208359","-0.0003652259691241875","-0.0010626162591294013","-0.005104698614017677","0.006653988009162628","0.9552474073765114","0.3628599088430394","-0.3244135675226016"
"0.000893457623677281","-0.005022740015636086","-0.0009178132227944459","0.0003545601241006059","-0.005091274623115597","0.007189371079468834","0.9564376359037317","0.36117162360222893","-0.3271161387811004"
"0.0010121753878200646","-0.004905505130626579","-6.519577640974993e-05","0.0012885486743148382","-0.007646307558144798","0.008809915601774403","0.9569137273146199","0.3618047305675329","-0.32795806129153626"
"0.0010074266772543364","-0.0069489720671334475","-0.0014893897291681519","0.0019489490278404636","-0.004697983651567757","0.002748570658204719","0.9564376359037317","0.36117162360222893","-0.32683619954638055"
