"AccX","AccY","AccZ","GyroX","GyroY","GyroZ","MagX","MagY","MagZ"
"-0.12405305865216139","-0.06710555523512285","-0.06943094227076317","0.030389846924612045","-0.04717515995900309","0.17442758954467447","-0.1816491060397518","0.28532697152914666","-0.5990264949332498"
"-0.07052030373031382","-0.0037686186650116153","-0.09986449820090498","0.03629727846671361","-0.006574550727741125","0.37417952517765757","-0.13751280666305488","0.251500979411461","-0.5960846745028694"
"-0.0030555530581220947","-0.06710347780030593","0.023834193380733875","0.07206920258312915","-0.02112388218490044","0.40851992816651295","-0.07743839917810594","0.20004958734477837","-0.5807545213712207"
"0.08262285093882844","-0.08298338954087084","0.07129534037580738","0.0941729706364391","0.025444652582874958","0.15399322960360293","-0.026001777556020813","0.15304412325924252","-0.5762600734914729"
"0.09487394706920657","-0.05347031181424402","0.10985566358235448","0.06514414471443024","-0.05612369764789614","0.031195346152500806","0.0010818606978613091","0.12677752797596945","-0.581718784734512"
"0.09485439220855077","-0.03573628949957467","-0.0022294954896504037","-0.017214269768796364","-0.1344515236661074","-0.16114974072274474","-0.006887193356264777","0.12405983906167803","-0.6038151248560356"
"0.09844264655563423","0.04244796983534954","0.008040797010689054","-0.112919281948919","-0.10980056399892407","-0.16906138127000048","-0.056011117473131256","0.15991750153276602","-0.624947201614268"
"0.09462385474742689","-0.002079560287111785","0.010749850235461378","-0.08099450523182512","-0.0627052645493286","-0.08302835752760299","-0.09577279626766828","0.19799153166211114","-0.6279217089383193"
"0.08297620563408598","-0.07373880460556029","0.02012768531695636","0.017674812964942003","-0.06624016429966156","-0.1589728261304477","-0.14525895011426795","0.21971985031181013","-0.6463080866281966"
"0.035115419403688106","0.07378399661382694","-0.11166741433423563","0.03459609992452106","0.15567112524019988","0.011831727257272573","-0.17479460500018895","0.23648772705969567","-0.6446247116041455"
"-0.17365751069485189","-0.17816522054786496","0.03896588295653213","0.06176200537163318","-0.23179648808387585","-0.20388473409594296","-0.18897729211050393","0.21295201335534655","-0.666786425513011"
"-0.101474945290339","0.15151329772384486","-0.017291586067427096","0.15985656205754067","0.21897622564375974","-0.3970598151635693","-0.21770489606086652","0.21056414105686713","-0.6985253992674479"
"-0.0749781572426907","0.05145364976671387","0.06136560795777523","-0.3234629918482331","-0.11358675994003903","0.17157114754341068","-0.2235841632126868","0.24722655607053665","-0.6774913831902285"
"-0.1048544411496139","-0.016558449987143346","-0.05334262789129759","-0.011894115482347006","-0.03422742289109417","0.12007753124535173","-0.22071418920018684","0.25946934884948053","-0.6610008453332629"
"-0.08615648970029234","-0.009522178262222705","-0.048615265681464896","0.030588173342094595","-0.06328444243665464","0.26208177153417833","-0.19463364865941155","0.23997059052267114","-0.6521263537016155"
"-0.001110658005206067","-0.051800054221437346","-0.03526547567519204","-0.03757449829753885","-0.16800554837813755","0.38444524282026243","-0.14737660084193788","0.2226090438663238","-0.6299156094522436"
"0.05599897073920742","-0.0727333261541692","0.01113134361571489","0.01020868982136351","0.04048413127691186","0.1718017014857387","-0.10285020791014365","0.19084110743130553","-0.6173311553889499"
"0.09537215793313301","-0.044384650642428115","0.06039080893503995","-0.012764441120231595","0.004775421226205501","0.0008976458702768705","-0.06893993244206265","0.17281992754333414","-0.6145037390864176"
"0.11159601031127878","-0.047105051535189735","0.06050026729988099","-0.002143002439481705","-0.07588515143157894","-0.0846276738222783","-0.06988730250444125","0.1756695431039504","-0.6183281056459121"
"0.09426795820912993","-0.0005355068594332294","0.016300153476203658","-0.033098675409789474","-0.0006310368211893696","-0.08970471432070132","-0.0860204573902417","0.19148754799829718","-0.6236233824205968"
"0.08799345717900948","-0.004566976865155402","0.03225381341439309","-0.02930640473763529","-0.01517917162982115","-0.09128704243015245","-0.11360564450067738","0.22020797890321198","-0.615794871386418"
"0.07449087885123988","-0.04724527838533208","-0.018150730968820895","-0.0067970302780855476","-0.0438604435377362","-0.16958073436113932","-0.15949736487531102","0.24474633511962982","-0.6286898509395852"
"-0.004287961804524359","-0.11178079097306746","-0.16038051719283056","0.2489109000048019","0.29266105537514225","-0.1486343019797393","-0.17524042620601415","0.23416581808437872","-0.639738021000347"
"-0.07821323020199662","-0.016563643574185657","0.005642213144153582","0.14352832885121042","-0.05794499670680163","-0.3941232860033916","-0.21341386695479878","0.22913941285940276","-0.6812667194092167"
"-0.11124756152157557","0.17780323533201453","-0.022442324971456255","-0.15073608621452356","0.20260846708416097","-0.16511769541438986","-0.23149748961608435","0.24494422508911712","-0.6841921963927615"
"-0.1060772217026849","0.044149388950410075","0.068377139064102","-0.1213144584559473","-0.10548544940863946","0.12946714390711014","-0.23837985448101146","0.29225312046120006","-0.6480241485459184"
"-0.11428044242092486","-0.008848050664130958","-0.04253309805020351","-0.04368410725552069","-0.12548623289782893","0.19043774067665178","-0.2297420686181478","0.29399455219268783","-0.6388718183180683"
"-0.06151794296557867","-0.016964588493851934","-0.07939371872346432","-0.008196483095816777","-0.07745036770559233","0.37214094295075734","-0.20020641373222683","0.27382296796962174","-0.6323344395838897"
"0.03407942580124371","-0.06257363118200375","-0.010903761115477542","0.01518321700161755","-0.023393206452514345","0.33357776249189425","-0.14701437111220483","0.23644814906579825","-0.617919519475026"
"0.08233207950022417","-0.06914871237756733","0.01549966173634732","-0.0003155111498439621","0.07742467132186084","0.1033296074979248","-0.09192758836742593","0.20875674600221703","-0.6012492037028706"
"0.10594137236782533","-0.07093219016789634","0.07930232302653754","0.05188130623268461","-0.05055210210370169","-0.01357968557775974","-0.05868604470808248","0.17981203979854993","-0.597310433015528"
"0.09717153247204029","-0.043283610189458546","0.04734667624945528","-0.005495874194456104","-0.06677147624588631","-0.10458151080986622","-0.07080680874145592","0.18234503140798666","-0.6151901638535063"
"0.08650108721266302","0.014717331181643265","0.013631641151465854","-0.0023996714826897037","-0.012382125361565114","-0.14697431359497762","-0.09476969855456147","0.2067382683134472","-0.6181973580712286"
"0.0933236250071992","-0.005970180212246528","0.02055746429286994","-0.03630270607669202","-0.058689312090927266","-0.13857486944342792","-0.12898647610164748","0.22337421841500785","-0.6267286373193317"
"0.07671884278809518","0.03402501037013232","0.005819618305282735","-0.04327205042696471","0.035259563805702034","-0.16232920615402271","-0.17420946466754336","0.24733209738759646","-0.6316643582636365"
"-0.16237326811060626","-0.4092902311047134","-0.06370399801219347","0.3946326793745041","0.42477105281480443","-0.2795743799204251","-0.16927756757810203","0.22730563247548774","-0.6385776362750304"
"-0.007176419803904615","0.20386465511032262","0.0377907544736161","0.3433373807168817","0.10385624399801355","-0.6143387041806877","-0.24253156446025867","0.22299163114066584","-0.7050137476611203"
"-0.16231549895061867","0.191462369253288","-0.09998428282658008","-0.45173974847626647","-0.29106409635553876","0.31753606187307204","-0.22963061331669124","0.23561701119395181","-0.6863495313750404"
"-0.1349040325365","-0.06063538449781393","-0.010998762715150894","-0.07977566423894693","-0.15837013443444045","0.19731310192523324","-0.22784732849339057","0.2771211341277424","-0.6452621060307279"
"-0.05348802972730154","-0.07506420801875763","0.01795173563400322","0.0808042296987562","-0.09210452557376354","0.24853976102691236","-0.20962438670528433","0.25995747744088243","-0.6475992189281967"
"-0.006675753750678705","-0.01265806611836906","-0.03741746843301016","-0.00146811497028138","0.01623835680115126","0.27069720832643535","-0.1631475259980051","0.22332144775647794","-0.6445429943699682"
"0.06546829888050906","-0.015372234706679902","0.019343096018784475","0.00024047674382677678","-0.0719768973406556","0.15513629178082913","-0.12447253639266691","0.20528707520387404","-0.6336909456712317"
"0.10234995997332921","-0.049497217726877395","0.03577300310664076","0.007098527240405377","0.005107371527743202","0.09508791078059949","-0.09251272870007134","0.18072233365819126","-0.6267940111066733"
"0.10316517910268765","-0.0870946330435629","0.05566138147304044","-0.004836679543726485","-0.012560425992167557","-0.01995195385534544","-0.08774801456281431","0.17599935971976244","-0.628787911620598"
"0.08722127607384184","-0.033248561306308516","0.017412498293248608","-0.035909904240124635","-0.046086209798947904","-0.17571346922706424","-0.10176351872094468","0.19144797000439967","-0.6294253060471803"
"0.09288852695055923","-0.007519531098708239","0.02053330084251824","0.02254054944046047","-0.0003964937097928676","-0.27462353736938167","-0.15136112786900077","0.22863809160336843","-0.639149656914271"
"0.08944731437203088","0.06896434783856392","-0.04182884706132062","-0.03155827605070172","0.08026551492622461","-0.25183510033296097","-0.20017854990686257","0.2600234407640448","-0.6500507359535138"
"-0.014330167449036408","-0.1266448370881567","-0.15064078797414512","0.25714240907992714","0.35469531504246193","0.1449069773922761","-0.18936738566560093","0.24552470233294635","-0.6360934323560425"
"-0.08734075748003824","-0.07588271733662556","0.1393929000720999","0.11102590237445863","-0.07646193602184992","-0.360049840210916","-0.21809498961596382","0.23543231388909708","-0.6753503916547849"
"-0.14790209353371114","0.19829712980096703","-0.14139465402332774","-0.06504944636606792","0.39157602266103425","-0.07135747427859906","-0.2311631237117154","0.2284138163046162","-0.691056444063649"
"-0.10780066830898181","0.03944607652489477","0.10022952323284369","-0.2489750553403455","-0.2591614466115044","0.26885277678781133","-0.21165844595686206","0.2720155729149715","-0.6342793097573078"
"-0.08712893722675036","-0.03447009297865966","-0.023786804132050872","-0.03692945606592085","-0.1119401715661534","0.26307679381159393","-0.19914758836839178","0.26898126004950057","-0.6192269952218618"
"-0.028136996686074087","-0.08067639817667706","-0.04072187189990938","0.0017511271402921558","-0.11099960582351233","0.35442469264555276","-0.17220326924133003","0.24566982164390358","-0.6190472173066718"
"0.05490328233810918","-0.033215322349237734","0.0026624673178772115","-0.027077639414955185","0.00949284905144677","0.18321048130556974","-0.12631154886669593","0.22408662230516196","-0.5996312024661613"
"0.09209853368772872","-0.046281348630279474","0.0010088199079108333","-0.035437194186804584","0.0024060571416898214","0.09280664019335398","-0.09513192828429466","0.21919214372651089","-0.5828628260129933"
"0.1124355887697653","-0.06855456601992714","0.07692728303470374","0.0313689632672322","-0.05676270796159886","0.01979433236020081","-0.06902352391815511","0.1867513813952359","-0.588419597937045"
"0.09708487873205887","-0.04634678782701258","0.02418053616910825","0.0339327654505139","-0.01912212852804295","-0.06850345916093871","-0.076323846163543","0.18047167303017406","-0.6029325787269215"
"0.08986633334580765","-0.00019241849941827694","0.010278910783863233","-0.028359059131796323","-0.07851299159804179","-0.14838433296858364","-0.11271400208902697","0.20907336995339657","-0.6111206455914802"
"0.08365980736060596","1.1273984381094015e-05","0.0004881698366575236","-0.036283451084703426","-0.03547193735972867","-0.18265678321654236","-0.1630639345219128","0.23252992766995084","-0.6240646554851539"
"0.017871325147387915","-0.050558786918325424","-0.17822842641842","0.1686560933963295","0.3130040803432062","-0.06314247328091173","-0.18262433992749452","0.2393505352849444","-0.628787911620598"
"-0.1079739757889446","-0.03870390513555021","-0.02734316836330116","0.10485467744211328","-0.18513916199535752","-0.2712259003245479","-0.20452530666365865","0.22483860418921342","-0.6625207858889594"
"-0.15045356476649704","0.15021490096326753","-0.020771535968505336","-0.05215919197930166","0.22985136746198118","-0.10668319201045624","-0.20552840437676517","0.2266459992438636","-0.6700714583269357"
"-0.07355318462966311","0.0938572105323524","0.037726731656444926","-0.2281989189846493","-0.16957794454331612","0.28688452196146474","-0.18128687631001875","0.2530840991673589","-0.6268757283408506"
"-0.10925452550200321","-0.08932475931953052","0.03529592985610719","0.06529433365194129","-0.13843875655984794","0.2682945935590172","-0.16674195946997086","0.23341383620032718","-0.6261402732332556"
"-0.004730858697762661","-0.047524693368208325","-0.07333426886603787","0.00803422357609125","0.007461418511106457","0.25565052998502874","-0.12305148129909899","0.19272765847375045","-0.6252413836573059"
"0.07347414163545803","-0.0604889253432208","0.014607885850717893","0.03422832957753886","0.0030278357165960564","0.010948584313976141","-0.07852508836730492","0.18764848259024466","-0.5978661102079331"
"0.11355727329285796","-0.04748522210668678","0.09513454613731846","0.04368926989113601","-0.05577188298080139","-0.1273748016134938","-0.07718762474982946","0.18785956522436445","-0.6022461539598328"
"0.10170554499366749","0.0026707021652659945","0.025073757731254444","-0.02493263330742548","-0.0746286704776691","-0.05873525265704168","-0.08593686591414923","0.1865402987611162","-0.6210901481611025"
"0.08656367046931626","0.016944341305385493","-0.01721517173725505","-0.06747846360542945","0.013785705979119267","-0.08603526631228085","-0.10555299897045914","0.21390188520888523","-0.6157131541522408"
"0.09772351679572186","-0.05864727937801792","0.044814677092943754","-0.04949237558888097","-0.009502271015203784","-0.0521074335360124","-0.12196479210990031","0.2287700182496933","-0.6115292317623663"
"0.07291474360291139","0.043494996983079105","0.015145057939305697","0.013665923632916103","0.03912713184668924","-0.1037927736387441","-0.16320325364873334","0.2425695454552702","-0.6229859879940144"
"-0.034934501177948975","-0.2039773481481422","-0.32987782777525926","0.3741838778826141","0.28083816792311456","0.05154719205105498","-0.1633425727755537","0.22007605225688714","-0.6319258534130036"
"0.013712908447613454","0.2440630188177966","0.15819495579875645","0.2578259612955223","-0.10665577166856692","-0.7500500352857615","-0.2005129158112315","0.2099836638130379","-0.6786027375750389"
"-0.11247034207464657","0.17234996893758978","-0.18314785707976622","-0.45753550106483415","-0.10970243881966638","0.362360602028843","-0.21475133057227455","0.2443637478452878","-0.6647108077649092"
"-0.11970111526642847","-0.07465183720759826","0.01740588948631481","-0.21310300526558923","-0.27282717279593327","0.0769178332415493","-0.22561822246426438","0.2895222388822762","-0.6250452622952807"
"-0.04084621188334726","0.006272662522589187","-0.07018888981598317","0.0008261173251599551","-0.033207878345635905","0.33612599027551954","-0.19764294179873154","0.27776757469473407","-0.6143403046180632"
"-0.01858582890145667","-0.06551527888276774","-0.040294364701379294","-0.0006046248545527464","-0.10682569575947662","0.4065784212837508","-0.1538131445010396","0.23128981719449748","-0.6165957002813547"
"0.06145141662270423","-0.04419664279149652","0.006852863964338785","-0.004470160771223541","0.05569353406185846","0.1262490962489319","-0.10145701664193998","0.20774091082551585","-0.5877658600636273"
"0.09439678343590228","-0.06648128607263727","0.052675026839830275","-0.027120000397330098","-0.01751718352291546","0.05003524356610395","-0.0735095998017711","0.20493087325879702","-0.5693467954800788"
"0.10661919717834656","-0.0855147438652924","0.029871131989542072","0.09895302239760831","-0.012065013501768822","0.010533587217785734","-0.07220000000965959","0.19442951221134075","-0.5792018939218533"
"0.09735822314073356","-0.0020664724477651654","-0.004581404657215923","0.026741988692372338","-0.018737525691293788","-0.10011361809590985","-0.08217524948999902","0.1804452877009091","-0.6045832668573016"
"0.09450471548314579","0.004845298608577238","0.044730001754104465","-0.0034405000746333147","-0.033260530880847364","-0.12501587075093779","-0.11196167880419662","0.19328175038831477","-0.6204200668408492"
"0.07852412903770785","0.043616526919869135","-0.025695097134185177","-0.006163733591580591","0.13613942797380343","-0.13337405788122883","-0.14280693348222942","0.20652718567932749","-0.6210901481611025"
"-0.28366924769791485","-0.7240423802168263","0.11506836005138799","0.4099981629814045","0.5824653957731257","-0.6737730836292438","-0.1144972869123278","0.18037932437774667","-0.6166447306218612"
"-0.03964268771693881","0.2992396875552906","-0.00021649420265873367","0.45195479052455745","0.10102258028481499","-0.6468104067948846","-0.192265223503465","0.1661048612454004","-0.7000780267168154"
"-0.08085135517476394","0.18462760870560896","-0.15030208661878797","-0.41360523684285","-0.289628118122499","0.2590967047019315","-0.21268940749533286","0.21155359090430337","-0.6852545204370656"
"-0.1771236602941082","-0.14453155086186995","-0.10247704219192218","-0.10535207009740037","-0.1433569820080093","0.12655731046657037","-0.19070484928307654","0.24395477524168088","-0.6380546459762961"
"-0.03809254859060472","-0.09530361672263696","0.010069019206150128","0.1443081560267486","0.016782113892062328","0.26365924587642253","-0.171144443877495","0.22727924714622275","-0.6355377551636373"
"0.009647885223152294","-0.004408884075587506","-0.00962475044857086","0.02009901645630637","-0.07435104801928141","0.2421036657105559","-0.12594931913696306","0.18398092182241446","-0.6380709894231315"
"0.07145896077122373","-0.01260716896535443","0.01849489695387478","0.030029778574425278","-0.06662069853141712","0.11123639427797362","-0.10307311851305619","0.1615401992825614","-0.6373355343155365"
"0.10338354652744079","-0.029607856789649698","0.018634921050784636","-0.018797030110259037","0.0038729089067399817","0.13076552663495736","-0.07573870583089727","0.13223929113381727","-0.6385449493813594"
"0.10579117255185756","-0.06465833702078672","0.04260692252662171","-0.06380942488200228","0.021644096859429605","0.03415129038150617","-0.055621023918034106","0.13400710819456993","-0.6245549588902172"
"0.09614551367788708","-0.04742809264922137","0.024140676802288784","0.008714887542888154","-0.028235564384030076","-0.11581070124304178","-0.06467676716135887","0.15035281967421607","-0.6242280899535083"
"0.09322801704741972","-0.019618511472471987","0.015388757694989515","0.059464884827393545","0.026962002915787025","-0.16842796464949933","-0.09150963098696452","0.1564874087283205","-0.6389698789990811"
"0.0748047579538392","0.06310702037224748","-0.022948311752325198","-0.0037316355535009023","0.1556471922696492","-0.14662241547247698","-0.11561183992689072","0.16891489881211924","-0.6427942455585756"
"-0.14625567247406437","-0.1601746350333055","-0.03354718587240445","0.2032091765198669","0.36580021337796975","-0.07681310861916067","-0.1061102754777406","0.14705465351609537","-0.6348513303965486"
"-0.0916253035124523","-0.05195690055011508","0.13705090411493506","0.10752149383253398","0.07594561374182986","-0.3532545661212485","-0.13121558213077364","0.1454979190894624","-0.6586147020952878"
"-0.1798580672001881","0.21966354689302756","-0.06528598117197146","-0.2457498441822555","0.09227029295443738","0.15769422709886827","-0.104382718305168","0.1681893022573327","-0.6313374893269275"
"-0.14280877926147062","0.005997090794124255","-0.01818170975132307","-0.14969631664713928","-0.24298993841042113","0.28499155275077165","-0.10711337319084743","0.19303108976029765","-0.6060214901788209"
"-0.04113505768328528","-0.0833552503731002","-0.06836320690052136","0.043881819811021974","-0.11627443253287854","0.4084713904944439","-0.09722171518660017","0.15948214359989407","-0.6153862852155317"
"0.0213471029399755","-0.07000357680473145","-0.07405091136792163","0.03310768904380251","0.06840433472131582","0.2973443902923458","-0.046593144500073604","0.12230521466555783","-0.6062993287750235"
"0.08494035707366454","-0.037726472054187596","0.09939516135745163","0.09643158119670153","0.07952837943326417","-0.003105498633618324","-0.0068036018801723094","0.09171142538283039","-0.5894165481940072"
"0.11056001670883436","-0.032218153637114354","0.1145499817575182","0.01788661787681657","-0.02385224082767607","0.05302031039835074","0.02654939708062693","0.0657614540507369","-0.5839905238446391"
"0.08053738426327589","-0.018315959842260816","0.017558924671875576","-0.07385282870325448","0.006497637787031239","-0.10525618445162607","0.02579707379579689","0.08264806478031475","-0.5802151876256508"
"0.0892870049530653","0.00013290779291197784","0.0034701874403173893","-0.05492517157846361","-0.0520670591395587","-0.07998747237247678","0.007908497912059893","0.10552414525303981","-0.5887954972142603"
"0.10335639502224661","-0.054721966291440556","0.04720004334561163","-0.026984252703810493","-0.07626568566333448","-0.11686396872694023","-0.029373300425074182","0.1346667414261941","-0.5981112619104648"
"0.08419994900649007","-0.015144755594226756","-0.03120518991523963","0.04147398306284791","0.05011954522060896","-0.21855524547881441","-0.07518142932361581","0.1473316994733775","-0.6278890220446484"
"-0.13452853299658052","-0.2665185233116308","-0.22580977108960196","0.5273188291679262","0.49295608591364454","-0.2303620342096117","-0.05996778067483035","0.1180967546477958","-0.6209757440332544"
"-0.005770703577539544","0.26417258784561826","0.07195828632135404","0.26479626839539444","0.11429580575221293","-0.6542366706214497","-0.10496785863781373","0.11967987440369374","-0.6792891623421276"
"-0.16209405050399947","0.1621393768124097","-0.14858586206816718","-0.43331272114317915","-0.4304736498131533","0.36061324583435705","-0.11508242724497321","0.14880927791221554","-0.6667373951725046"
"-0.12956038523764646","-0.07709697798711748","-0.1082597482589958","-0.16163441168006945","-0.16046187606056844","0.17184295850699738","-0.1162248440849004","0.1844030870906539","-0.6411925877687017"
"-0.0513024298411038","-0.04735538243062904","-0.03582722426456491","-0.024380977786952175","-0.10504508275050727","0.2815453780338688","-0.11271400208902697","0.182819967334756","-0.6375643425712325"
"-0.004730858697762661","-0.06171772803743118","-0.03329109460371976","-0.01737504895190115","-0.1056960595494853","0.35823489990297347","-0.08111642412616399","0.1547327843322003","-0.631468236901611"
"0.0687197397684781","-0.06189638743168662","0.03448841625888369","0.02204280789755524","-0.007951414523520791","0.056226223638511735","-0.050912037431505276","0.12965352886585066","-0.6298665791117373"
"0.0917138873641446","-0.03757689674736909","0.08297640663129613","-0.01509718339965012","-0.04841010123941732","-0.01960418143497067","-0.03645071206754955","0.12830787707333746","-0.6286735074927496"
"0.10613586187311692","-0.017952408749299164","0.0021323170866565672","-0.08451046676894294","-0.065065055445624","-0.08840633159285412","-0.02984698545626349","0.12680391330523438","-0.6359953716750297"
"0.09850908108961998","0.0016897374447146138","-0.025812816507693463","0.01091438527774559","-0.01893856264391936","-0.060526292756389745","-0.047512650737087964","0.14051109185838395","-0.6421568511319932"
"0.09240557677306285","-0.03159803934426262","-0.009239787444677098","0.06902787659853026","-0.03336583595127028","-0.14517113907761228","-0.08256534304509586","0.1598251528803386","-0.6567025188155404"
"0.07223595597305701","-0.023480462797133183","0.02155085058510652","0.13754965383875103","0.019296272448409525","-0.3153466442353176","-0.12182547298307994","0.1605243641058602","-0.6847478735851666"
"0.01675541754029401","0.06506084781756424","-0.1734845421912528","0.13555676216793122","0.30484293738543","0.05851962864377451","-0.13801435551960797","0.14920505785119004","-0.6905171103180794"
"-0.16125639768417924","-0.15787906956060485","0.11899233916833082","0.04365075990715882","-0.3691573792623536","-0.3424792029219186","-0.14127442308720523","0.12073528757429235","-0.7048666566396014"
"-0.12128013897275637","0.20650299732781574","-0.16260685902865393","-0.0979966631577563","0.22830051097029816","-0.11471860362148807","-0.1475995114448504","0.14432377193717144","-0.7050954648952975"
"-0.09150976519247708","0.030803947686492097","0.11373627240379425","-0.13452338296012484","-0.1630657832564806","0.22252356879789967","-0.14915988566523855","0.1903265935106387","-0.6804658905142797"
"-0.10873460306211474","-0.0016609571715016556","-0.08565349804107152","-0.044956862225966954","-0.17485277125268237","0.2642416979412512","-0.14832397090431634","0.18010227842046456","-0.6791093844269376"
"-0.034144989324785026","-0.0520161074423974","-0.03831585312557338","-0.03482969918956435","-0.06856166244307593","0.41072839224565494","-0.10937034304533756","0.1481496446805914","-0.6692542859851633"
