"AccX","AccY","AccZ","GyroX","GyroY","GyroZ","MagX","MagY","MagZ"
"-0.11078540824167474","0.12121391091901242","-0.13098991360692883","-0.431599026856194","-0.2606452907856456","0.31464807038496334","-0.38653181394180564","0.052674330735314044","-0.8655227390320404"
"-0.1226569706191276","-0.10307633909015707","-0.078617183908743","-0.0732308924620228","-0.19888626027965856","0.18809094423211306","-0.3919095322370722","0.09134203077312088","-0.8579557231472286"
"-0.022735580227232974","-0.06415975266472501","0.006531923777616199","0.04722448642024241","-0.030802854134999745","0.23166563933210593","-0.3522593087439916","0.07040527200137082","-0.8578086321257097"
"0.026697489974160885","-0.03626499666048176","-0.023776477871216818","-0.0015189481491312761","-0.006156441732221035","0.21617484129126746","-0.29558428795346015","0.045775886398988844","-0.8482477157269734"
"0.08840862487545374","-0.022938252309916092","0.03176641390302545","0.030511153374140204","0.0038729089067399817","0.041269339990432884","-0.2440919386806471","0.04750280619938083","-0.832345541956084"
"0.10707653636158178","-0.037038841129785845","0.05350732346305552","0.016299043787356745","-0.018587944625352137","-0.03801209356715925","-0.22230242724593907","0.04211624122993814","-0.8274098210117792"
"0.09490485356979994","-0.02103947688724781","0.03648758035635772","0.019788048335690527","-0.015039881741216286","-0.0705954328271149","-0.23105166841025931","0.020509295094857948","-0.8420208624826684"
"0.09253315033470214","-0.008330769394716952","0.009312042329448522","-0.029934117476463556","-0.02005695035775186","-0.1603100389959501","-0.25626843036474845","0.03149086913493655","-0.8431975906548205"
"0.09216920462678022","-0.01760963200450675","0.035789525123975256","-0.010446140084804512","-0.04553814477333771","-0.24114467805975193","-0.3070641840034598","0.05245005543656185","-0.8543274779497595"
"0.03462053026646095","0.07568381075390368","-0.12025473284383997","0.06689923723419086","0.23263716523407843","0.07184321962672974","-0.3546277338999381","0.08217312885354541","-0.8559291357396334"
"-0.09248221271893513","0.01087355741163015","0.2539070022174924","0.03389618096573556","-0.4960021231808697","-0.12910031585554865","-0.4009652754803971","0.04192494759276713","-0.8752307464522955"
"-0.17683481449417016","0.32845880825532275","-0.5080058271627955","-0.1450654910738817","0.5955567306643387","0.14752558480040154","-0.356383154897875","-0.0102797456244302","-0.8577759452320386"
"-0.11555136394065219","-0.04138171861456488","0.1170117623403581","-0.16175956912799533","-0.1121244554393935","0.24443832773707735","-0.3661076299499375","0.07279314429985018","-0.8568116818687475"
"-0.07909902398847322","-0.053800623950134886","0.05808805276904456","0.11738967722668996","-0.08866296440857814","0.3866779757354389","-0.32921592516790044","0.028588482915790366","-0.8568443687624182"
"0.023992930467407823","-0.05640884336278262","-0.03416676152244805","-0.023547236633845923","0.015139115463759286","0.3133132844030644","-0.27343254678901935","-0.028113589674620323","-0.8436715506130484"
"0.08272779824613927","-0.04790694137452229","-0.00637734794147565","-0.03170750223861334","0.014752119329955056","0.05278732957241929","-0.22071418920018684","-0.027068730635727702","-0.8301718635269696"
"0.12050497760070061","-0.0761486289931918","0.05918470166962173","0.08226472084109128","-0.019090297677210568","-0.1206353458467057","-0.2110733056242165","-0.031236293393128983","-0.8320840468067168"
"0.09378943700056594","-0.0010443745178386945","0.05414548638260043","0.09196057205694931","-0.032757938499283434","-0.056679682244917255","-0.21586588358683764","-0.05375353338785047","-0.8393405372016552"
"0.08039103572464062","0.01972914267747174","0.017046122558856156","-0.0013005965399805856","0.04413869587999817","-0.1419385301178133","-0.2377668503230015","-0.05207410718013543","-0.8428870651649469"
"0.08815781043917423","-0.04044479551213229","0.01484477027425123","-0.022112739730695448","-0.1527052003050984","-0.191908063512904","-0.2846338045853783","-0.027740237265521064","-0.8548994985890003"
"0.056235824295156604","0.0066131540890829845","-0.08913551319431658","0.028384439508999666","-0.008924050446699755","-0.2256271842992755","-0.3646308472056414","-0.01018343917261308","-0.8783686882447013"
"-0.2561711275438147","0.05764856039078041","0.159045839691483","0.011921421358749214","-0.45706318009494035","-0.2695756194742001","-0.371401756769112","-0.025885348618194","-0.8790224261181191"
"-0.06838284481077245","0.22280047346658233","-0.1690277280152725","-0.2659964682582653","0.2593942263097201","0.024626742991395785","-0.35284444907663703","-0.028696705451376064","-0.8665033458421673"
"-0.15652895475852688","-0.03834139275999702","0.0939408303849011","-0.01784679625562178","-0.06968411876190204","0.11916987677766043","-0.3711231185154713","0.036021230169731126","-0.8661601334586227"
"-0.08814952571986473","0.0008198116151278056","-0.04317126096974842","0.05249072672912371","-0.0710243651127392","0.35913284683625096","-0.3324759927354974","0.0012902212582571375","-0.8589036430636846"
"-0.007551919343824046","-0.029244305696688046","-0.03485449049399645","-0.02869313324279848","-0.04812290559280935","0.443855353432784","-0.2941075052091642","-0.032021256938761705","-0.8536573966295061"
"0.07539304056637965","-0.035464145538557666","-0.0008672551604211997","-0.01666357699792249","0.025987931014375017","0.1970582791468707","-0.2589712214250638","-0.045638725372410364","-0.846074037297859"
"0.0991671681038121","-0.06343368919621017","0.03872837895734875","-0.0032303318370777785","0.06352200872898046","0.09382350442320064","-0.2119370842105028","-0.04747250575632545","-0.8275405685864626"
"0.09620277254362813","-0.07072964027324628","0.04845778191520015","0.03274088144641974","-0.020011238384000093","0.007468190538264654","-0.20056864346195954","-0.062038526777049616","-0.8269848913940575"
"0.09200254060021598","-0.026575840674349527","0.0159843764198981","-0.020675354578746676","-0.07833110102185675","-0.11881275626051274","-0.21497424117518724","-0.05625882040155895","-0.8326724108927929"
"0.09605654917150616","-0.01736449469610975","0.01741518312106546","0.018946605185788834","-0.10645473471594133","-0.1902043912232802","-0.26200837838974805","-0.040162450283466794","-0.8508790106674804"
"0.078190993548446","0.014268501389446893","-0.048487220047122546","0.0019085366997989362","0.06314865438839012","-0.20371242536009782","-0.32233356030297344","-0.0188642125007867","-0.8663725982674836"
"-0.291015559209672","-0.3436744524121777","0.07107229314179168","0.13203309863401796","0.18467788554760395","-0.5218259012170715","-0.3317515332760313","-0.06013614453704561","-0.8638230205611539"
"-0.06284663364529361","0.270062115551597","-0.05716540965206662","0.18765114299308047","0.30804995543921887","-0.35987995835867426","-0.3509218451265158","-0.08271670932200302","-0.8720274308725482"
"-0.12089501123950568","0.07457965414870872","0.02763549651896807","-0.3906147764084652","-0.23203342449232742","0.2269793270938388","-0.33601469855673505","-0.014427519384882757","-0.8548668116953293"
"-0.1053069662361835","-0.007554847490595943","0.0024540833742458796","0.010360804258073427","-0.06765220956215072","0.2645814616457346","-0.3407236850432639","0.005841690556463684","-0.8609302304712799"
"-0.05908201005276798","-0.05067200711584777","-0.013229235055307865","0.10719415896872782","-0.10850579029213321","0.4221347451818825","-0.30695272870200324","-0.024671623472005594","-0.8558310750586207"
"0.0403261976345701","-0.039758203305138996","-0.018053664116980728","-0.014736152299863926","0.08507125541279782","0.36971405934730467","-0.25688143452275813","-0.06643036483320312","-0.8429034086117823"
"0.10434867662696706","-0.061381183597089536","0.0037465181802368366","-0.01077828869660781","0.037281899817233094","0.12611319076713853","-0.19747575884654722","-0.07807025283844261","-0.8239123233889936"
"0.13011102608730626","-0.11656927822607666","0.06965553015535864","0.1080124961282432","-0.08653293002956909","-0.027154216325311956","-0.1823457016738536","-0.12079469725073787","-0.8235037372181074"
"0.09749686912470382","-0.02072162936025848","0.024701599290794924","0.02641946757656334","-0.06567055960055579","-0.08462039317146794","-0.19744789502118298","-0.13418789038563433","-0.8331627142978565"
"0.08668864441875611","-0.010400933189781438","0.011557983408334917","-0.08162125522105397","-0.040950194318775536","-0.21757235761941607","-0.22221883576984708","-0.09042254473383617","-0.8381638090295028"
"0.09175731051606861","0.0030807150879081442","0.008727885754065743","-0.06882053654703466","-0.11637016441508119","-0.23930752717193823","-0.27502078483477194","-0.04425613411892618","-0.8538862048852025"
"0.04317710567995842","-0.021195284498517087","-0.1681438000878769","0.0837810514601933","0.1303763686652037","-0.07208553935963487","-0.3304697973092839","-0.021899844632720978","-0.8660130424371038"
"-0.1801372848067949","0.05863326449400225","0.17538611483529964","0.10973581791122262","-0.44526422561346324","-0.25559676991831265","-0.3493057432553995","-0.05438282349081991","-0.867810821589003"
"-0.09926046082414745","0.23369661908134726","-0.056211263150999474","-0.2974783801596214","0.0330146511680498","0.1448147558153449","-0.32453480250673555","-0.03513472579202763","-0.857677884551026"
"-0.17066314256882759","-0.016562604856777196","0.017010393696370307","-0.04957902305282966","-0.04798888095772565","0.2877824688947422","-0.3237546153965414","-0.007504008985755826","-0.8543438213965948"
"-0.04499596320912356","-0.08402522310155809","-0.017372130901932764","0.07783029618611738","-0.10335302173257535","0.3765578711090412","-0.3143645062488477","-0.031043680489494744","-0.8564848129320384"
"0.026218968765596883","-0.023563560189810134","-0.008294934578360601","0.0072450577294386","0.11186182264721048","0.2581744889326195","-0.2506678014665689","-0.06500423778643175","-0.8410729425662125"
"0.08924675910494059","-0.04477520838800978","0.0475738539878046","0.014852031139413682","-0.0014220214978887958","0.10588026216515356","-0.20290920479254215","-0.06433141189017512","-0.8280799023320324"
"0.12310362698080975","-0.07218696079731828","0.04957921384177907","0.015851365223621863","-0.05294061256465791","-0.05573319763957071","-0.20198969855552748","-0.07504253630528783","-0.8322147943814004"
"0.1002190482252531","-0.02987376844621593","0.01441292604617084","-0.023398973195533725","-0.04615082881943469","-0.07169238421587551","-0.2045810343143867","-0.08842253677555179","-0.8347970589814011"
"0.08820306294783117","-0.015093858441212124","0.0282525938664115","-0.08566191528986103","-0.0182835172399477","-0.20730663997681123","-0.22272038462640034","-0.05167173090884471","-0.839520315116845"
"0.08628185325051006","0.005582538676407128","0.013789219891793611","-0.05298715663481132","-0.005668448462693008","-0.26799814513195586","-0.27084121103016046","-0.016081879529796107","-0.8502906465814043"
"0.011471465040094376","0.040085926448507274","-0.15322648368699376","0.057724233551624385","0.23550912170015803","0.03862646374627291","-0.31096511955443035","0.030207222866195985","-0.8486072715573533"
"-0.1307350248240611","0.0041787848090895155","0.1991034707189688","0.09731634807857754","-0.3820572503891611","-0.28809274136854407","-0.33707352392056994","-0.023737582816025816","-0.8592795423409"
"-0.13995883403541542","0.26570988961014175","-0.2284945989064576","-0.1967651445632647","0.1432810263861214","0.03690580327142496","-0.29976386175807157","-0.04148303601317831","-0.8383762738383638"
"-0.1381872464624622","-0.0069627785677726815","0.025028322183584584","-0.10689246945648813","-0.0708472611306643","0.21297620870191686","-0.32642954263149276","0.030977674480732978","-0.843213934101656"
"-0.05939011223936854","-0.05742263155344139","-0.05694442767021774","0.0460951811401112","-0.0899673113035893","0.38927474119113326","-0.30177005718428523","0.012422191675146051","-0.8423150445257064"
"0.015363180784592716","-0.0539688961703057","0.01537430092982183","0.019970970759582197","0.06277769334485483","0.28273455099956063","-0.23737675676790462","-0.035953990265704804","-0.8302699242079823"
"0.08002901565538498","-0.024479708944073492","0.005686203015306679","0.017931867107989774","-0.0020591171739474563","0.08947210212220999","-0.18666459460528562","-0.058710017490274234","-0.81426968975608"
"0.12004378714013292","-0.09367698526098571","0.05552507483003084","0.031610613416689096","-0.07347988789123727","-0.018817871147452002","-0.1695840696571067","-0.06252665536845148","-0.8105597273244337"
"0.09395022782919811","-0.029867536141765162","0.028844495137419823","0.06728048607556508","-0.031544536892364805","-0.08196052874208382","-0.1813426039607468","-0.07275624752447857","-0.8166885198877262"
"0.08455522934041385","0.008384375013992149","0.014050267765678649","-0.06420511496736796","0.02757229366482894","-0.21018492393050608","-0.19218163202737268","-0.057648007987359376","-0.8190092893383596"
"0.09925305158832701","-0.007245309702874308","0.03455863483255529","-0.04544690177207674","-0.03592666380019127","-0.19244197790566359","-0.2407761434623218","-0.012697961051564274","-0.834176008001654"
"0.023333399224216","-0.001049983591844389","-0.09391863721265319","0.11685053745100923","0.21825584323018474","0.03388676006872983","-0.2584696725685104","-0.0003126874945895038","-0.8290931960358301"
"-0.13415303345666107","-0.17476861462219467","0.12457265052305688","0.07678282462193771","-0.2832858809265732","-0.2881898167126822","-0.27844803535455304","-0.034870872499377974","-0.8374610408155789"
"-0.09559211916493456","0.22551152590266776","-0.2246325773545191","-0.07118890056163209","0.28674961164912843","-0.18726300829589554","-0.2949991476208146","-0.03811362946604222","-0.8385723952003891"
"-0.08888126841304105","0.025857575387396713","0.01835053582741462","-0.24722285106938316","-0.13654565858929046","0.26987206790126145","-0.3064790436708141","0.04351730221390781","-0.8341106342143122"
"-0.10208152147020888","-0.050686549159566226","-0.05799357577095825","-0.006652521563211127","-0.15823371650230167","0.35275014295917045","-0.29920658525078997","0.023868147510288054","-0.8401086792029212"
"-0.005597396097576739","-0.06476013132681598","-0.05410883644518485","0.024777016759936012","0.005449134347206675","0.34204758626794407","-0.2537328222566174","-0.017517241441810213","-0.8338818259586159"
"0.06067345860153781","-0.047079083599978186","0.02754607110014511","0.03234037761305692","0.057605778408856466","0.1321779728921668","-0.19911972454302768","-0.03514396065727037","-0.8183555514649418"
"0.10365544670711578","-0.0652441736391592","0.08471121845141821","0.060235084506937424","-0.02637214329695542","-0.040242399598732256","-0.15988745843040802","-0.05333268738607427","-0.8090397867687372"
"0.10200113052893739","-0.05057125152722696","0.04121494256619041","0.06699262394533556","-0.051906708236869256","-0.13133547565432857","-0.16649118504169438","-0.06353193641344666","-0.8159694082269666"
"0.08512425556629176","0.005915655349300846","0.00418207986221749","-0.013788806694024958","-0.025849207890423425","-0.2238167291310998","-0.174766741174825","-0.0698815659010606","-0.8205946036813979"
"0.08267002908615166","0.0012490096483042466","0.017338355740460054","-0.07281305913587025","-0.06965539919724126","-0.1997881545733148","-0.210543892942299","-0.03827589924102177","-0.832345541956084"
"0.0756289313029957","0.018669650920840643","0.01563349007675674","-0.060386850056029166","0.007386747642988385","-0.2482190437638165","-0.27170498961644657","0.004494719497487189","-0.8466133710434288"
"-0.06293328738527498","-0.1559782167031196","-0.22271189283938397","0.33181326801170635","0.3046514736210247","-0.07045952734532156","-0.293661684003339","-0.009023803951417853","-0.8423150445257064"
"-0.024189437420254388","0.06104308888163377","0.03446156798071513","0.12709419318894286","0.10648887075858653","-0.33563539116018204","-0.3070641840034598","-0.023827292935526687","-0.8505684851776069"
"-0.1450040073409996","0.12972100649431503","-0.061512765463205915","-0.3041213523956874","-0.09987316781450889","0.1353523366454829","-0.2996245426312511","-0.003252013174706662","-0.840582639161149"
"-0.11896937257325217","0.020452089993761195","0.0013376080528673055","-0.022151249714672642","-0.10696690028572553","0.23961611001701688","-0.3126926767270031","0.030328595380814838","-0.8416122763117821"
"-0.07589283560916114","0.012794249771616976","-0.09219415165336516","0.015119675528055177","-0.030629100768801928","0.44662200074072006","-0.2802313201778541","0.013357551597589078","-0.8348787762155783"
"0.012213798745935102","-0.01812795199132922","-0.05815053493563596","-0.07432553875657455","0.005216505873454227","0.5636705969352428","-0.21578229211074532","-0.025914372480385462","-0.8147109628206372"
"0.0843626654737885","-0.07233965225636216","0.02688064685199828","-0.00675775009442881","0.1237924084667162","0.3459791377055374","-0.14105151248429254","-0.05426145097620106","-0.7880057706915177"
"0.11989358732416514","-0.20677149797690458","0.11848635238746189","0.09349230666964219","-0.05054013561842636","0.07128989016514252","-0.111014308741818","-0.09962442831499288","-0.7771373785459457"
"0.09126492470910759","-0.03571967002103928","0.010970873522353599","-0.02520701694326299","0.05463091016940901","-0.18174427498164417","-0.10379757797252227","-0.09326424469567295","-0.774947356669996"
"0.09114370575506692","0.014962468490040265","0.04919714219091885","-0.0341153389867874","-0.005843877136829371","-0.19706519117024093","-0.10719696466693959","-0.06441980274321275","-0.7717276976434129"
"0.09755704533302423","0.024171737033463113","0.0013359558511338555","-0.024411785774133936","0.02128031570705952","-0.17464078667433816","-0.14963357069642816","-0.04127327264552184","-0.787580841073796"
"0.03366541348799921","0.01709807148183785","-0.11798089020817996","0.07028907857378336","0.07130501075205621","0.002968748337463387","-0.18585654366972734","-0.025394581493865646","-0.7917320765699994"
"-0.16732215948287782","-0.08776772192424616","-0.009481834998627469","0.16209014112821793","-0.12058715382610809","-0.2416907268705288","-0.2126615436699689","-0.07213487302028863","-0.8003777599459506"
"-0.16854494003594875","0.18862667072818712","-0.00032925697096667","-0.08628385153109272","0.13576607363321308","-0.28299628580129343","-0.21452841996936187","-0.07638554956487457","-0.7981223642826589"
"-0.06350135079181979","0.0890396391919063","-0.06402411209804931","-0.2546745329689702","-0.1224563188261149","0.2549467337400274","-0.222246699595211","-0.021134670084036973","-0.7964716761522789"
"-0.12043285795960482","-0.06646986018114419","-0.07648790892475982","-0.022081931743513694","-0.23265568172664466","0.3633070866341896","-0.21402687111280846","-0.030940777705361376","-0.7989558800712667"
"-0.017026061581791315","-0.08285354986481312","-0.05801422829262636","0.04628099181280117","0.03237324755729202","0.2590481670298625","-0.17944786383598987","-0.07341324222317622","-0.7959813727472156"
"0.05346194179641842","-0.0565781543003619","0.06642754101863146","0.07748466907992207","0.050658037057998886","0.03141376567681155","-0.13163353951123474","-0.07348448261219162","-0.777039317864933"
"0.08991177841833124","-2.6448288922949943e-06","0.09073349376984204","0.014026954732702298","-0.046940616847606594","-0.08609593840236716","-0.09889354470844487","-0.08818243027924062","-0.7677072097218932"
"0.10704668896225485","0.0073051476266002766","-0.01044527513444527","-0.06946269052985436","-0.14289746897343655","-0.10313023441500153","-0.10137342516584752","-0.10766271887556457","-0.7796215824649335"
"0.09992596602024931","-0.025323147479744523","-0.013349019680982961","-0.030551239969698087","-0.11892859896694713","-0.12636521803445747","-0.13347255198526378","-0.08445550252056425","-0.7970436967915197"
"0.09313520126370631","-0.03945801397409352","0.012870389202778946","-0.014100737564240226","-0.027632453526153358","-0.18150886727210924","-0.1666583679938787","-0.0637403805146399","-0.8113442127725352"
"0.07690177846138928","-0.09302363201106317","0.028505174206412607","0.08917148646740103","-0.048934233294476846","-0.3124343839111744","-0.23160894491754078","-0.01881671890810976","-0.8343067555763376"
"0.025150239305826185","0.05801938250560129","-0.10881117058753462","0.02711264728815283","0.16084064687914318","-0.17719144134156695","-0.2908195738162031","-0.016505364064498783","-0.8539515786725443"
"-0.17865454303377964","-0.05174915706842271","0.015297886599649787","-0.0503415207355781","-0.18919819380075","-0.2844281471273305","-0.29332731809897","-0.050385446107177635","-0.8457308249143146"
"-0.14291468938811455","0.16353125813974861","-0.014038813904698176","-0.1663903947012529","0.11434845828742439","-0.08711765639942076","-0.2839093451259122","-0.037172992477746206","-0.8394876282231741"
"-0.09841317981099594","0.05036195777042046","0.05501495754482828","-0.07794451450083136","-0.10535621136766589","0.24805438430622181","-0.30249451664375104","0.021717743175193382","-0.8370361111978573"
"-0.09048917669936274","-0.024509831748918885","-0.018084642899482906","0.05556767444890151","-0.19996324395443843","0.36641349764660897","-0.294023913733072","-0.0021293174144823776","-0.8464335931282388"
"-0.006011408410821237","-0.046576344374282645","-0.06729547153027954","-0.012379341280459654","0.004929788886257279","0.3541091977771039","-0.25877617464751534","-0.03632866194126731","-0.8423313879725417"
"0.07598421163691947","-0.028183775222648484","0.005365469353800773","0.005363363637352957","0.07812351406194024","0.16696977623126438","-0.21140767152858544","-0.06754382572818465","-0.8279491547573488"
"0.11359386042751678","-0.07117005645443411","0.07207807094702913","0.050912780135658184","-0.01673840466119687","0.019476653296508856","-0.1726769542725192","-0.07871537413897102","-0.8148580538421561"
"0.10345845387155805","-0.046891075749046586","0.0625820414840275","0.05344769983095697","-0.040624705919286505","-0.021438420062460207","-0.1754354729835627","-0.09417717708824075","-0.8222452918117782"
"0.08524653362159886","-0.014456085952416542","0.027377339998116566","-0.04735603422774614","-0.05048030319204971","-0.13134275630513892","-0.1992311798444841","-0.08195285403978228","-0.8238632930484873"
"0.09572549337200387","0.0003993388081824445","0.021818920316358716","-0.017533902635807078","-0.054529761809221956","-0.21488094370318703","-0.2396337266223949","-0.057731121774544016","-0.8410239122257059"
"0.06499940586527632","0.07547295111998593","-0.08721276342701459","-0.015587222945759916","0.09360335941410933","-0.13745850298583967","-0.2883118295334363","-0.03465978986525824","-0.8499637776446953"
"-0.34617547880450383","-0.5405217884897848","-0.0035785182050120114","0.2826360184728296","0.5116477359137127","-0.384973934818375","-0.27457496362894657","-0.08470352461565493","-0.8355652009826671"
"-0.07722152628887605","0.3262255658271297","0.04106004865367951","0.3189220508753407","0.39641048271226825","-0.5070461800720448","-0.27747280146681047","-0.11252685432556096","-0.8380494049016548"
"-0.06532107933142935","0.11399482493020248","-0.03973055085983961","-0.48990314259766576","-0.5150527677391977","0.4216736372972265","-0.27410127859775724","-0.03367034001782204","-0.8294854387598808"
"-0.1110935104282753","-0.08666044916682582","-0.09446592903685838","0.05182161575751996","-0.10500200340351606","0.22731423703111525","-0.28622204263113055","-0.020632029561539384","-0.839258819967478"
"-0.0031614631847660477","-0.08719538863218368","-0.011862038120878316","0.07667114566840384","0.002095646513647715","0.3456393740010541","-0.2586925831714231","-0.058547747715294696","-0.8378532835396295"
"0.06156791776201257","-0.02400813124063181","0.011191731589072475","0.02365637622619967","0.09551321046405228","0.20796469406078705","-0.19669557173635308","-0.0913552661233527","-0.8117201120497506"
"0.10652002678703451","-0.07954419620145363","0.08905857426255749","0.06224530567054695","-0.0711177036978868","-0.004138865671968475","-0.15829922038465577","-0.10848857968155799","-0.8026658425029131"
"0.09833866206765653","-0.0406213774715708","0.042061695954583346","0.04512569229348534","-0.028063486325770805","-0.06734826256569522","-0.15999891373186442","-0.14510350110255052","-0.8064738656155722"
"0.08821038037476293","0.04049725854225817","0.011114470505512038","-0.07398376264877696","0.02291493759566983","-0.13735172010728777","-0.16963979730783477","-0.12786332696082212","-0.8105760707712693"
"0.0956991121222762","-0.015657881994006913","0.01864566036205206","-0.11570162829127126","-0.10297248750081982","-0.1151481620192992","-0.19886895011475106","-0.08003595986868253","-0.8205946036813979"
"0.07563085694166195","-0.0638387889855103","-0.016595596087211447","-0.019135917969258346","-0.056221822827153864","-0.20033177650048822","-0.26518485448125284","-0.045501521660232545","-0.8446521574231753"
"-0.22550533178372761","-0.2983344375328176","-0.038024652570052886","0.33173624804375196","0.6060393717655292","-0.5776442240964832","-0.2610888721527337","-0.06619289686981843","-0.8287009533117795"
"-0.05657867978663842","0.23075704881540016","0.07956461005172268","0.04916153861429528","0.1136280758738494","-0.30549349680529975","-0.27942326924229577","-0.06829580761223618","-0.843508116144694"
