"AccX","AccY","AccZ","GyroX","GyroY","GyroZ","MagX","MagY","MagZ"
"0.08845406994797733","0.011159620185920547","0.013280548283107811","-0.09146633262482362","-0.09471800595789599","-0.17708951223022193","-0.1564880717359907","0.11772736003808633","-0.7621831246915122"
"0.09592981326268671","-0.007986953932516076","0.024250135167129816","-0.05481926912252633","0.003738884271656267","-0.26496454062764","-0.22152224013574523","0.1718964410190603","-0.7719401624522738"
"-0.009073173890164331","0.04653116796801312","-0.1412831304063199","0.11498280322811531","0.31140057131631177","0.1323065977231498","-0.23698666321280765","0.18056402168260147","-0.7616601343927779"
"-0.10405530110311871","-0.1505664990050333","0.08382316001968905","0.06475423112666115","-0.26279925813520527","-0.18342853220244035","-0.272903134107102","0.15031324168031862","-0.7941835935953164"
"-0.21044683741362516","0.242390683790173","-0.18363938709546748","-0.09279396432243739","0.21901212509958573","-0.08619786751371218","-0.2520609927347727","0.13854538482814402","-0.7833969186839217"
"-0.07073212398360172","0.054342322879646306","0.006662241189342035","-0.23427386895705166","-0.22683996988283345","0.3659766585979875","-0.2600579106142626","0.19754298106460672","-0.762509993628221"
"-0.0576185246664153","-0.12201215744641677","-0.0438032281327929","0.02394423835642919","-0.3376855229882311","0.3790090235485284","-0.23247272350382708","0.17833446135971187","-0.7681321393396147"
"0.04461748340231604","-0.05493698079499216","-0.047607422624060626","0.030412952914998365","0.19171657218655408","0.2131776400410034","-0.17451596674654807","0.12610470207971283","-0.7633925397573351"
"0.08791585394075949","-0.029390764851281167","0.08433121205272481","0.08582593160938229","0.03860778638573985","-0.004256084150015239","-0.11204527028028878","0.09880907895510609","-0.7444014545345464"
"0.11148817454596857","-0.03484922483274824","0.07559106488277637","0.06402639242949218","-0.08937377363393284","-0.07944627732890683","-0.11396787423041027","0.07986441254286092","-0.757639646471258"
"0.09504489564180323","-0.017741549115381405","0.014290250067462207","-0.08016076407871887","-0.09451936230232548","-0.06349922517061928","-0.14255615905395247","0.0882681399137524","-0.7713517983661976"
"0.08237733200888113","-0.0023243859802862454","0.02039472242212515","-0.08481373289276335","0.015052238780660377","-0.16269323869454064","-0.1618100623805295","0.12214690268996803","-0.7676745228282222"
"0.08486910844301318","-0.0600069604656945","-0.015930584889497976","0.0009264358334205456","-0.10390348005524062","-0.2737741281081732","-0.22090923597773526","0.15607843612471356","-0.7764019234383507"
"0.0326862262262093","0.08048372389840594","-0.10795409093830764","0.06502187551530265","0.20114376928646038","-0.10745736787995765","-0.27808580562482027","0.18051125102407148","-0.7840016262168332"
"-0.2535137461843848","-0.1498082352968562","0.03952556629373819","0.022949718020218158","-0.32138717004322936","-0.18802262286377627","-0.29084743764156706","0.15516814226507225","-0.7955237562358229"
"-0.1485953234535624","0.18488728805772445","-0.0456082585265866","0.008781317265248815","0.1686834813285956","-0.199086785211917","-0.31389082121765854","0.14861138794272832","-0.8072420076168382"
"-0.07669197565565634","0.09659215346883249","0.09169383602740963","-0.17646075551128915","-0.11504188454951937","0.3328254285748239","-0.3010177338994549","0.17270119356164174","-0.7919445413788604"
"-0.11811246336676934","-0.07058837470569547","-0.035688852369388506","-0.05013067857330296","-0.24343987825677363","0.33287396624689297","-0.27457496362894657","0.1587301617158426","-0.7906697525256955"
"0.006718025992447582","-0.07483153531926216","-0.05464167150422235","0.01330296703393105","0.02060061934342068","0.3157401680065171","-0.23511978691341434","0.12601235342728545","-0.7944450887446836"
"0.07982393513742897","-0.055156150168177605","-0.02380332614938537","-0.00022799721125578863","0.08564325340895867","0.11698568153455302","-0.1654880873285874","0.12581446345779818","-0.7662853298472092"
"0.1151959917978397","-0.06686665023117662","0.0916008996799031","0.07810082882355718","0.00634039817051338","-0.12389465052614265","-0.1345871049998267","0.11060332113654564","-0.7596172035383472"
"0.09572155544093139","-0.009112923603288733","0.04769157336131289","0.012000366825902463","-0.022641471847518004","-0.11364106730155507","-0.13263663722434157","0.08322854202414402","-0.7739013760725273"
"0.08358278181395581","0.025885620757425187","0.03725378891024497","-0.060819124626173164","0.008877053719178197","-0.13833703485028953","-0.15378528067567537","0.10690937503945049","-0.7757318421180973"
"0.09562569714812529","-0.016980169254978864","0.02048765876963169","-0.04616896397164913","-0.05426649913316466","-0.18878223743165692","-0.19045407485480007","0.13387518154824513","-0.7779382074408826"
"0.07574832090030342","0.0065849009755728225","0.0035373081357387803","-0.0721535756602608","-0.002106743785343276","-0.25676167404796996","-0.28234897090552374","0.190418942163066","-0.7946412101067091"
"-0.08366278762749405","-0.10815566721753557","-0.1278424693047073","0.24597451372654086","0.36678146517054694","0.01564800172370191","-0.28572049377457714","0.19417885158332363","-0.7791803094003764"
"-0.016583164688553014","0.01094907216722533","-0.05132281127215545","0.11871827167390316","0.09720048488787406","-0.2931163904276911","-0.32623449585394404","0.17334763412863338","-0.8014564274370901"
"-0.1764304303742569","0.19718570217391287","-0.07957339566197696","-0.21912981775802012","-0.03053911279953143","0.06666182313335825","-0.30087841477263455","0.17425792798827472","-0.787580841073796"
"-0.08826506403983995","0.04250198314058957","0.03913936413854434","-0.16141297927220058","-0.21199913484436705","0.318870847854971","-0.283853617475184","0.2250233014940682","-0.7545834219130295"
"-0.054913002340329135","-0.0722326643632906","0.012574851617708148","0.012524102607992301","-0.27172625615060275","0.40403019350012553","-0.26317865905503934","0.19123688737027997","-0.7705509694712608"
"0.033202297388765234","-0.05784331210386844","-0.08290877791137835","-0.05332604449381064","0.05600705597607216","0.28096292596904016","-0.20767391892979903","0.15749005124038917","-0.7665141381029056"
"0.09065160879390584","-0.055168614777079156","-0.00335154699187937","0.0004548810796198046","0.031786889778800766","0.12000957850445505","-0.1463735031288309","0.1495348744670021","-0.7433881608307488"
"0.1203278188434053","-0.11146917575052889","0.11068176444907928","0.18647658848177606","-0.01767897040383794","-0.08610807282038443","-0.1303518035444869","0.11956114042200139","-0.7538152799117636"
"0.09045297916548178","-0.007119624896450423","0.03208033223238088","0.08367033525625886","-0.039361045074211475","-0.06321770667261876","-0.14523108628890402","0.08966656236479559","-0.7712047073446786"
"0.07960152387147669","0.01862394735486832","0.029973155446582588","-0.04299862954072663","-0.0414503934032844","-0.1339079722739884","-0.1727326819232474","0.09698849123582348","-0.7793764307624018"
"0.09653077620584444","0.011436334503534788","0.009254297878864457","-0.07806293270156123","0.002996962184585701","-0.23806496276697048","-0.21951604470953143","0.13676437510275885","-0.7844919296218967"
"0.0021658161854242893","-0.04220334408465821","-0.19520273397744795","0.09347497717685246","0.11935523572662317","0.06391701777785327","-0.26340156965795186","0.1599834648559284","-0.7852110412826562"
"-0.08063953492147603","-0.04363158052129327","-0.028014375317515064","0.07136061887794878","-0.16499238738580901","-0.20250869109278527","-0.2894821101987275","0.1353527599870832","-0.8068987952332939"
"-0.22849969990975183","0.1864453641704172","-0.042016785008500514","-0.09096281458432179","0.12052316468949557","0.005158525412858739","-0.263429433483316","0.1250097109152168","-0.7960467465345572"
"-0.08233409694777911","0.10716110309993189","0.010691135116358911","-0.2670169828336609","-0.2855116471877848","0.3285541134327472","-0.2546801923189961","0.17838723201824183","-0.7656969657611331"
"-0.04764371637522213","-0.10331524409410328","-0.07188652709710266","-0.029745418554975304","-0.2586349212593898","0.33714528138896965","-0.23773898649763767","0.17849277333530167","-0.7680177352117665"
"0.05637735873712623","-0.08181379373894279","-0.10997184230528297","-0.013560635038960081","0.17167031605331837","0.17675739780398905","-0.19351909564484845","0.15279346263122537","-0.7652393492497407"
"0.09141733900954155","-0.047470680062968305","0.07371581591531107","0.10531679724983962","0.07151801418995712","0.06694334163135877","-0.12455612786875937","0.12756908785391838","-0.7360826400953042"
"0.10436764416782966","-0.07364532003879873","0.09425887921859016","0.1615028638725657","-0.011726840627887949","-0.09389108853665719","-0.10530222454218235","0.08986445233428281","-0.7464934157294836"
"0.08525712463426326","-0.007161173592788898","0.02664520810498171","-0.012788509860217342","-0.017554518956974494","-0.08831653689952637","-0.11739512475019154","0.06332081109372759","-0.7617091647332844"
"0.08934496667691952","0.017296466506854062","0.05099597682821211","-0.08990282727534953","-0.07075870913962684","-0.1470932308915468","-0.14679146050929215","0.09102540682194127","-0.7655498747396142"
"0.1010357115836112","0.031269293085483006","0.014461665997307603","-0.12975777244294706","0.016862289343407052","-0.237499498887366","-0.19903613306693538","0.14767470875382208","-0.7685243820636654"
"0.006160553598567191","-0.0158625093234739","-0.22655326186965427","0.10351645549890579","0.20934559829417274","0.09797347538510473","-0.23484114865977346","0.1830046646396108","-0.7561850797029034"
"-0.06164310947888517","-0.03431324664998192","0.0026587498639769496","0.13101258405862234","-0.2430689172132383","-0.20121273524854158","-0.25805171518804926","0.14539237777240255","-0.7847697682180992"
"-0.21999800519824256","0.16151614636733258","0.034385153650543086","-0.09444507988545958","-0.015417783346211264","-0.007216396769506817","-0.24871733369108362","0.14467997388224849","-0.776450953778857"
"-0.08380721052746302","0.09432774951838563","-0.012268892797740278","-0.16817148146019814","-0.12908814496570375","0.32814154322016026","-0.23837985448101146","0.17595978172586502","-0.7589471222180938"
"-0.06058400821244574","-0.08779368985945772","-0.03616592561992208","-0.06337715031185828","-0.2432268748188727","0.34813906411261036","-0.21667393452239575","0.16619720989782777","-0.7585221926003723"
"0.03906971840483968","-0.0897766013922114","-0.07700422196646281","0.07510764031892976","0.08295079422200903","0.1560609344337446","-0.17521256238065006","0.1206297462572325","-0.7612842351155628"
"0.06424070423077245","-0.02411927400333723","0.02239781049871612","0.04106000073509308","0.06166241691719392","0.12835563121672883","-0.10833938150686678","0.09052408556590694","-0.7406261183155584"
"0.11896350384836468","-0.045870016536528585","0.05543420373469112","0.08140979919679757","-0.04991548508705405","-0.0005606684870378443","-0.09429601352337215","0.07055039131232811","-0.7467058805383444"
"0.11094610726141821","-0.009215756626726457","0.06274726165737246","0.06638031520009817","-0.055410495125486375","-0.11985874309360083","-0.11254681913684235","0.05490389105820362","-0.7638338128218923"
"0.07982297231809585","0.023757288787486838","0.022602063938013832","-0.03721346719775266","0.052168207499745746","-0.15263380615822927","-0.12341371102883218","0.06402002231924918","-0.7647000155041709"
"0.08547953590021554","-0.04679447503005964","0.015022381960597065","-0.05418963088449922","-0.17232784285958738","-0.19400003717908018","-0.1650701299481263","0.09872992296731119","-0.7717930714307547"
"0.06131951037406586","0.028313103341000553","-0.08790875340723024","-0.03459960203530062","0.07312391651390664","-0.2741381606486911","-0.2515594438782193","0.1417775876631023","-0.793578886062405"
"-0.4707354159311121","-0.377547027102119","0.25510484847424336","0.09486422484882973","-0.08392184294249172","-0.40497145571082505","-0.24927461019836508","0.13326831897515093","-0.7832171407687318"
"-0.07270590361651155","0.28061548442156947","-0.027531106310481054","0.24948854976445983","0.3342565581921953","-0.3889540239280374","-0.2990672661239696","0.1277933631526706","-0.8161491861421564"
"-0.08048548382817573","0.08931386058774021","0.005107312832949271","-0.32355926680817604","-0.26327791754621854","0.2987519827823483","-0.2896771569762759","0.1504187829973785","-0.7962592113434181"
"-0.11986479455306003","-0.07066627851133012","-0.07448461432295216","-0.08958126890913996","-0.12099640762252442","0.33726662556914233","-0.25983500001135024","0.1626088051177925","-0.7801445727636678"
"0.003181590581873009","-0.0848800875287222","-0.022729395022643126","0.007774377459205132","-0.07753652639957472","0.28004071019972815","-0.22430862267215287","0.14479870786394083","-0.7762058020763253"
"0.05871700971662425","-0.037034686260151994","-0.030951163898721747","-0.03356464621591352","0.07470827916436056","0.22094852133925888","-0.16278529626827207","0.13774063228556258","-0.757051282385182"
"0.10746358973349875","-0.06770177902757996","0.059219810956457536","0.024116570534727138","-0.011167048446707932","0.0289650401209278","-0.12433321726584655","0.12357171047027615","-0.7441236159383438"
"0.10536560640661553","-0.06672642338103427","0.039862202396928545","0.09486037385043201","-0.02008112265800803","-0.08565909935374567","-0.11332700624703665","0.09183015936452275","-0.7559235845535361"
"0.08455619215974697","0.003772521656291913","0.03315839386345675","0.006743946562935364","-0.02456807597684641","-0.10472955070967684","-0.13244159044679268","0.08863753452346193","-0.7654518140586015"
"0.09133030014182687","-0.0003780373003104113","0.035233972291102825","-0.03339905328481159","-0.043101768371280165","-0.17360450737566388","-0.1662682744387817","0.11106506439868255","-0.7727736782408816"
"0.08530815405891896","0.03488299094952182","-0.009234624314260068","-0.10745086422415745","0.012830301794736784","-0.19864023862888172","-0.24559658525030703","0.16780671498299066","-0.7822038470649341"
"-0.08598318222032952","-0.16347775639221424","-0.1229767351996982","0.31334773069464184","0.3098688612010693","-0.02019731178765451","-0.2516708991796759","0.16630275121488766","-0.774146527775059"
"-0.03831399703722387","0.042306704267798735","-0.03774790877970008","0.13855091342215808","0.1707871894399989","-0.2227246315095461","-0.27326536383683503","0.1435849827177524","-0.7896401153750623"
"-0.16546391816994313","0.17293165068632843","0.003092865869440834","-0.2948982112331494","-0.06396653209734855","0.20576593751605893","-0.22520026508380328","0.15139504018018218","-0.7640626210775885"
"-0.09088393262594471","-0.013577331024857808","0.03226207442306034","-0.046099646000490185","-0.16324767383266564","0.29967419855166033","-0.20906711019800286","0.17582785507954013","-0.7438784642358122"
"-0.019548648234583417","-0.10222459081521837","0.020793935665969918","0.09199715654172765","-0.15158992387743753","0.32780177951567685","-0.18563363306681469","0.12024715898289048","-0.7636867218003733"
"0.04826656867486645","-0.032951488127488424","-0.028222965786363078","-0.04921317820504631","0.10109916579057712","0.12914436838785096","-0.13274809252579767","0.09189612268768516","-0.7523443696965734"
"0.09952052279906963","-0.02652909839096874","0.0560682361499024","-0.0009190588737265355","-0.0061863579454093645","-0.03445185532089417","-0.09816908524897879","0.09213359065106987","-0.736948842777583"
"0.11239033626110834","-0.0503250755014215","0.04791875109966221","0.07230700173418833","-0.04669410725093475","-0.0840379411066393","-0.104382718305168","0.08619689156645263","-0.7487978417332816"
"0.0939152774874056","-0.003935748296033129","0.021112810600525687","0.058650398666275895","-0.021473782214351138","-0.057279122494970074","-0.125977182962327","0.07173773112925155","-0.762509993628221"
"0.08180349168633759","-0.001866207731413718","0.026239799104636512","-0.009027528550044626","-0.07652894833939178","-0.09089874105360003","-0.15788126300419453","0.08343962465826374","-0.7717440410902484"
"0.08388414426522449","-0.04307898285999156","-0.019270097643233","0.030592024340492314","-0.014742634246977047","-0.19476693239777126","-0.2195717723602598","0.1035320528935349","-0.7923040972092401"
"-0.14044987189531005","-0.055578908153421584","-0.034257632617787775","0.22144365393306825","0.2474277410343884","-0.19775927988082836","-0.24501144491766147","0.07883538470152729","-0.8029763679927868"
"-0.06178753237885418","0.018804684183940684","-0.020515444699820647","0.014997406328927588","0.006234135781268435","-0.25088861572761445","-0.3009341424233629","0.09419164633373714","-0.8235364241117783"
"-0.14083499962856075","0.16195240767888658","-0.04668425490549566","-0.22042952971725044","0.028079672640503","0.1907216860582558","-0.2843273025063733","0.10541860393597995","-0.805444228464939"
"-0.10843612906884546","0.01960553530586478","0.011281652668415468","-0.13867283373366748","-0.18355958593901373","0.2853555852912895","-0.26841705822348555","0.13076171269497922","-0.7899016105244295"
"-0.03675422971755854","-0.0750974469758284","0.0008735458909846465","0.02247893346609696","-0.24362655542706876","0.34117390817070115","-0.24130555614423946","0.10874315542336555","-0.7967985450889878"
"0.04468776921363429","-0.07891992703896805","-0.13352604326777398","-0.0421042351628563","0.04861176807591716","0.20871460109425394","-0.21422191789035705","0.08317577136561408","-0.7989722235181023"
"0.08778510307532086","-0.05062422611505852","0.02372638721762629","0.07617532962469747","0.11588256169972193","-0.020343410180582357","-0.15083171518708324","0.06750288578222462","-0.7789351576978448"
"0.10237345276505751","-0.05452668741864972","0.0834865239164987","0.10206270360376672","-0.023673222207957107","-0.1603318809483812","-0.13829299377324886","0.043968491344338716","-0.7798994210611361"
"0.08543332057222545","0.007701937676632708","0.04663622950407195","0.03150278546155295","-0.00448927100366182","-0.18334116439271603","-0.15389673597713163","0.017936725491523812","-0.7963082416839244"
"0.0816205560130435","0.022522253788825684","0.014019702033609832","-0.007334533379447234","0.0014367718343879512","-0.22518306459984364","-0.17590915801475188","0.03476528849671878","-0.8004104468396216"
"0.09590122715668617","-0.02208234916534352","0.008588873630717626","-0.037355954138468275","-0.1539353549914025","-0.2647946587753983","-0.23849130978246771","0.07506228261663721","-0.8146455890332954"
"0.06232758221584958","0.019252371386987748","-0.05736780436441421","-0.011377118947453177","-0.0033838070939266767","-0.26976977016247633","-0.3266803170597694","0.10824183416733121","-0.8368890201763381"
"-0.37614804464473967","-0.3345856750881364","0.0001426531491498734","0.28213538868112603","0.5131555130584045","-0.3185015929198061","-0.29438614346280506","0.07800424682968085","-0.8197284009991194"
"-0.04938641936818154","0.20471640338526134","0.13045035818980388","0.05367105773802471","0.31101764378750113","-0.2673428865590236","-0.34515403327615213","0.08176415624993841","-0.8405662957143136"
"-0.10843612906884546","0.11710058998150344","-0.006249302307133306","-0.23812486735477106","-0.2161251789673014","0.3539393159248623","-0.33016329523027904","0.10833418281975861","-0.8259552542434243"
"-0.12979146187759685","-0.06610319293595716","-0.03732246683333681","-0.0156382486745297","-0.11603988942148202","0.31302205837065006","-0.31138307693489164","0.10486451202141567","-0.8206763209155752"
"-0.012240849496151344","-0.07283927532983232","-0.02970375158996729","0.03310287529580536","-0.11601116985682125","0.37592688137214353","-0.2843273025063733","0.07176411645851653","-0.8277530333953236"
"0.05934958201848852","-0.04384244015521103","-0.04454465366067841","-0.023009059607764636","0.06125076982372251","0.1970801210993018","-0.22662132017737105","0.04343418842672316","-0.8167538936750681"
"0.10826369259932705","-0.054767669857412875","0.026606587889462324","0.036873002727172664","0.022022237794130088","0.030180908806257588","-0.16727137215188823","0.02388397870784703","-0.7997730524130392"
"0.10583738787984764","-0.0495543471843428","0.07006031958005379","0.07520295252927332","-0.044796222686267144","-0.045770840447397466","-0.16370480250528674","0.00595382820583979","-0.8023716604598751"
"0.08310907470205746","-0.00237247859629803","0.04572751855067467","-0.017979655700343097","-0.01519448873097357","-0.09658735622009311","-0.17451596674654807","0.0033192530787329757","-0.8113115258788645"
"0.08354234340196451","0.0002782243583557921","0.03742520484009037","-0.06695665332253846","-0.032121321482635794","-0.16928222767791465","-0.20343861747445952","0.029969754902811296","-0.8144658111181055"
"0.0866521535660306","-0.03617878311557943","0.020368080669173276","-0.026997731198202507","-0.12407658093239482","-0.2807878217221515","-0.2776678482443592","0.06990395074533647","-0.8346172810662111"
"-0.022360080687313558","-0.053916960299882605","-0.1706943865138898","0.20280482168810635","0.3843961314958352","-0.08130284328554813","-0.317373799388168","0.07763485221997132","-0.8355488575358315"
"-0.054961143306985476","0.00918668034028809","-0.04223157123384896","0.021465158137897327","-0.20708569599031587","-0.30161048303977545","-0.36621908525139374","0.06396725166071926","-0.8537554573105189"
"-0.16798650482273522","0.1649335266411721","-0.1218738905426206","-0.22681255956147034","-0.013069958935191181","0.054901145191026575","-0.34746673078137047","0.06536567411176242","-0.8387031427750726"
"-0.06058400821244574","0.033298946901617485","0.02990851305376137","-0.10692135194447103","-0.10385082752002915","0.34835748363692104","-0.33481655406607963","0.11903343383670206","-0.8219020794282337"
"-0.07728892364219493","-0.08236846883506142","0.015412714620124533","-0.0067317558552442034","-0.23973266111847585","0.35325978851589546","-0.3078722349390179","0.09258214124857425","-0.8253832336041838"
"0.023552922032168903","-0.060122258098033766","-0.03883216616727639","-0.015153022876417052","0.026014257281980747","0.24199688283200396","-0.25699288982421425","0.05549756096666535","-0.8257427894345636"
"0.08013396296269579","-0.03712713210950511","-0.03958804846032959","-0.03518399104215453","0.02901545178903394","0.07903892951096692","-0.2074231445015224","0.05192234885126255","-0.8084514226826613"
"0.10509688353073986","-0.05931101980202505","0.06010580413601989","0.10125399394024565","0.00468016800341386","-0.0297776775006443","-0.18262433992749452","0.036176903612394416","-0.8058528146358251"
"0.09593679370285187","-0.060512815843615425","0.06408761031363346","0.09534848789734295","-0.0198310231157536","-0.11848027320683974","-0.18474199065516442","0.0073588469891991935","-0.8170971060586123"
"0.07923276406688916","0.00920766243193902","0.04657427193906759","-0.015785549363242467","0.008284712698049276","-0.2750846452540377","-0.21129621622712902","0.014670221728521102","-0.823487393771272"
"0.08911648964916853","0.0592232559820086","0.038251305706815175","-0.08817469174437295","-0.049156809920598024","-0.2365554411656229","-0.2629557484521268","0.05796458925293963","-0.8307602276130457"
"0.06264723823444766","0.03153935961168309","-0.02889830324491061","-0.05760642921287575","-0.027595596751505334","-0.08613962230722932","-0.3395255405526088","0.10396741082640687","-0.8385723952003891"
"-0.19528243291687875","-0.23131639033885837","-0.10847659973651107","0.33553910896149985","0.06925395517586437","0.0179768392295751","-0.359308856561103","0.07485119998251749","-0.8441945409117827"
"-0.053122158380713366","0.1857598106808324","0.06432511431281684","0.30445192439591","0.3903315081923997","-0.3995837741111601","-0.3959776507402274","0.02977054566686081","-0.871112197849763"
"-0.10948560214195364","0.20578628231597706","-0.08404466660312497","-0.4929358038358698","-0.32095637657331744","0.4809381348935409","-0.3468537266233606","0.03829300701944465","-0.8457471683611502"
"-0.1263445686650031","-0.08302493823720931","-0.0002559405190448447","0.018546101352426018","-0.09095334969027663","0.28882602884422687","-0.3366555665401088","0.07139472184880702","-0.8379676876674776"
"-0.003729526591310843","-0.09239936284857761","0.03685106473771663","0.091518669990811","-0.11723893124607028","0.2933885700187179","-0.3128319958538235","0.030002736564392517","-0.845779855254821"
"0.05242402255530778","-0.03724139102443591","-0.07160978330674984","-0.010654093998281359","0.13407161931822612","0.1830794295909833","-0.25872044699678715","0.01925731122123533","-0.8326397239991221"
"0.10769755483144852","-0.05699987356819741","0.062373451015179486","0.0020935771728093537","-0.034497865458316665","0.09500296985447866","-0.20513831082166817","0.008478904216496979","-0.8148743972889916"
"0.11388174340812168","-0.06632443974395953","0.05205338593761986","0.1132498539491416","-0.014823288357732783","-0.0638826727799648","-0.20940147610237195","-0.012265241651618847","-0.823487393771272"
"0.09101950206109356","-0.0118426729527265","0.024668761781342613","0.027568027848683153","-0.0453538609000976","-0.10089022084901471","-0.21583801976147354","-0.05750684647579181","-0.8309073186345647"
