"AccX","AccY","AccZ","GyroX","GyroY","GyroZ","MagX","MagY","MagZ"
"-0.005633608841864107","-0.08323512977885439","-0.03691251843745079","-0.004159976895631148","-0.00018722379281717485","0.0014130513892337733","-0.012821055920885074","0.40682635070794876","0.5105021349762234"
"-0.005633608841864107","-0.07941668045814536","-0.036932848460947715","-0.003553740899734469","-0.00018722379281717485","0.0018159673626887303","-0.01555259589730742","0.40673617018697156","0.506622560371554"
"-0.005633608841864107","-0.08036488599416036","-0.03845760022321751","-0.00112879691614775","-0.00018722379281717485","-0.00011802930989506468","-0.01555259589730742","0.40682635070794876","0.5026963562644245"
"-0.005633608841864107","-0.0813387187068244","-0.03844743521146905","0.00031684276637510174","-8.123206588718188e-06","-0.0005209452833500222","-0.012821055920885074","0.40673617018697156","0.506622560371554"
"-0.005633608841864107","-0.0813387187068244","-0.035408096698677914","-0.0011754304542936486","0.001514231776353165","0.00020430346886890117","-0.01555259589730742","0.40673617018697156","0.506529301366634"
"-0.004843988378474137","-0.0813387187068244","-0.03692268344919926","-0.000709095072834664","0.0006187288452108809","-0.00011802930989506468","-0.01555259589730742","0.40673617018697156","0.5065759308690941"
"-0.005633608841864107","-0.07941668045814536","-0.03769522434208262","8.367507564560935e-05","-0.0012618273101879158","0.00020430346886890117","-0.012821055920885074","0.40186642205420786","0.5064453682622061"
"-0.005633608841864107","-0.08323512977885439","-0.03768505933033415","0.0005500104571045938","0.0010664803107820228","-0.00011802930989506468","-0.01555259589730742","0.40673617018697156","0.5105021349762234"
"-0.004843988378474137","-0.08037769958248488","-0.03538776667518099","-0.0009422627635641563","-0.0005454249652740885","0.0006072194423238583","-0.01555259589730742","0.40673617018697156","0.5026963562644245"
"-0.007212849768644122","-0.08036488599416036","-0.037715554365579544","0.0007365446096881877","-0.0009036261377310018","-0.00011802930989506468","-0.01555259589730742","0.4016860610122539","0.5101477507575278"
"-0.0064232293052541144","-0.08323512977885439","-0.03692268344919926","0.0007831781478340859","-8.123206588718188e-06","0.0014130513892337733","-0.01555259589730742","0.4016860610122539","0.5102783133644156"
"-0.007212849768644122","-0.08036488599416036","-0.03695317848444465","8.367507564560935e-05","-8.123206588718188e-06","-0.0004403620886590308","-0.01555259589730742","0.3968163128794897","0.5101477507575278"
"-0.00405436791508413","-0.08229973783116391","-0.03690235342570232","-0.0033205732090049764","0.0026783855868381342","-0.0005209452833500222","-0.01555259589730742","0.3968163128794897","0.5101477507575278"
"-0.005633608841864107","-0.07941668045814536","-0.035418261710426384","-0.005279181811132711","0.0007082791383251092","0.0006072194423238583","-0.018284135873729613","0.40664598966599463","0.5102316838619558"
"-0.00405436791508413","-0.07845566133380584","-0.03844743521146905","-0.0018282999883362265","0.00026052767275396726","-0.0016491100090239026","-0.01555259589730742","0.3968163128794897","0.5101477507575278"
"-0.007212849768644122","-0.07941668045814536","-0.03695317848444465","0.001436047681876664","0.001514231776353165","-0.0012461940355689453","-0.01555259589730742","0.4017762415332306","0.5103249428668756"
"-0.004843988378474137","-0.0832479433671789","-0.036150142556315885","0.002928320902545414","0.00035007796586819577","-0.0026966915400067916","-0.01555259589730742","0.40673617018697156","0.5105021349762234"
"-0.0064232293052541144","-0.08323512977885439","-0.03845760022321751","-0.0009422627635641563","0.001514231776353165","-0.0012461940355689453","-0.01555259589730742","0.4017762415332306","0.5103249428668756"
"-0.005633608841864107","-0.08037769958248488","-0.03845760022321751","-0.0013619646068772423","0.00026052767275396726","-0.0012461940355689453","-0.01555259589730742","0.3968163128794897","0.5101477507575278"
"-0.005633608841864107","-0.0813387187068244","-0.03769522434208262","-0.000289393229521578","-0.0012618273101879158","-0.0012461940355689453","-0.018284135873729613","0.4065558091450176","0.5104555054737637"
"-0.0064232293052541144","-0.08228692424283938","-0.03844743521146905","-0.00010285907693798425","0.00035007796586819577","-0.0004403620886590308","-0.01555259589730742","0.3968163128794897","0.5103249428668756"
"-0.00405436791508413","-0.08228692424283938","-0.036139977544567416","0.0007831781478340859","-0.0028737325862440272","0.0002848866635598924","-0.018284135873729613","0.4016860610122539","0.514204517471545"
"-0.007212849768644122","-0.07941668045814536","-0.03542842672217484","-0.0022480018316493127","0.0007082791383251092","0.0028635488936716194","-0.02101567585015196","0.39672613235851295","0.5101011212550677"
"-0.004843988378474137","-0.07941668045814536","-0.036170472579812825","-0.0024345359842329064","-0.0026050817069013417","0.003266464867126576","-0.02101567585015196","0.3966359518375356","0.5100544917526078"
"-0.0064232293052541144","-0.0755726039607873","-0.03543859173392331","-0.00201483414091982","0.0010664803107820228","0.0014130513892337733","-0.02101567585015196","0.4016860610122539","0.5104088759713036"
"-0.007212849768644122","-0.07941668045814536","-0.033913839971653516","0.00013030861379150784","0.0010664803107820228","-0.0030996075134617487","-0.018284135873729613","0.39654577131655855","0.5177297078575187"
"-0.004843988378474137","-0.07749464220946634","-0.036932848460947715","-0.00010285907693798441","0.004648492035351159","-0.004953020991354552","-0.01555259589730742","0.3968163128794897","0.5180001589717865"
"-0.005633608841864107","-0.07941668045814536","-0.03845760022321751","0.0026951532118159216","0.002409734707495449","-0.005758852938264466","-0.01555259589730742","0.3968163128794897","0.514073954864657"
"-0.0032647474516941228","-0.08518279520418247","-0.038376280129229785","0.004000892279901079","-0.0020677799482159715","-0.0008432780621139879","-0.01555259589730742","0.4016860610122539","0.5181400474791664"
"-0.007212849768644122","-0.08131309153017535","-0.03542842672217484","-0.000289393229521578","-0.0016200284826448296","0.0010101354157788156","-0.01555259589730742","0.3968163128794897","0.5180001589717865"
"-0.007212849768644122","-0.08131309153017535","-0.03695317848444465","0.0012028799911471722","0.0007082791383251092","-0.00205202598247886","-0.01555259589730742","0.3968163128794897","0.5180001589717865"
"-0.008812870181302808","-0.08131309153017535","-0.03697350850794158","0.00031684276637510174","0.0031261370524092763","-0.0031801907081527403","-0.018284135873729613","0.39672613235851295","0.5179535294693266"
"-0.0016751167819747902","-0.08326075695550343","-0.03838644514097826","-0.002481169522378805","0.0026783855868381342","-0.0035025234869167057","-0.018284135873729613","0.3966359518375356","0.5179535294693266"
"-0.0064232293052541144","-0.07941668045814536","-0.03465588582929148","-0.0029008713656918906","-0.001799129068873286","0.002138300141452696","-0.018284135873729613","0.39672613235851295","0.5179535294693266"
"-0.008812870181302808","-0.07939105328149632","-0.035469086769168705","-0.0024345359842329064","0.00026052767275396726","0.0017353841679977387","-0.02101567585015196","0.3966359518375356","0.5179068999668666"
"-0.00405436791508413","-0.07941668045814536","-0.03842710518797212","-0.003134039056421383","0.0014246814832389364","-0.00205202598247886","-0.02101567585015196","0.3966359518375356","0.5179068999668666"
"-0.007212849768644122","-0.07845566133380584","-0.03620096761505821","-0.0009422627635641563","0.00026052767275396726","-0.0012461940355689453","-0.01555259589730742","0.3968163128794897","0.5180001589717865"
"-0.00405436791508413","-0.08326075695550343","-0.034615225782297615","-0.002481169522378805","0.0014246814832389364","-0.00011802930989506468","-0.02101567585015196","0.3966359518375356","0.5179068999668666"
"-0.005633608841864107","-0.08228692424283938","-0.03539793168692945","-0.0043931445863606405","-0.00018722379281717485","0.00020430346886890117","-0.02101567585015196","0.3966359518375356","0.5179068999668666"
"-0.005633608841864107","-0.0755726039607873","-0.03542842672217484","-0.001781666450190328","0.0010664803107820228","0.00020430346886890117","-0.02101567585015196","0.3966359518375356","0.5179535294693266"
"-0.005633608841864107","-0.0755726039607873","-0.03618063759156128","0.0020422836777733446","0.0007082791383251092","-0.0008432780621139879","-0.02101567585015196","0.3966359518375356","0.5179068999668666"
"-0.0024751269883041154","-0.07845566133380584","-0.03690235342570232","0.004234059970630571","-0.0012618273101879158","-0.0016491100090239026","-0.02101567585015196","0.3916760231837947","0.5177297078575189"
"-0.008812870181302808","-0.08323512977885439","-0.03543859173392331","-5.622553879208577e-05","-9.767349970294636e-05","0.0018159673626887303","-0.02101567585015196","0.3966359518375356","0.5257779599821096"
"-0.0064232293052541144","-0.08707920627621245","-0.03766472930683722","-0.006538287341071968","-0.00018722379281717485","0.0014130513892337733","-0.018284135873729613","0.3917662037047717","0.5177763373599786"
"-0.0064232293052541144","-0.08036488599416036","-0.03845760022321751","-0.007004622722530953","0.0014246814832389364","-0.0016491100090239026","-0.018284135873729613","0.39672613235851295","0.5179535294693266"
"-0.005633608841864107","-0.07941668045814536","-0.035408096698677914","-0.0015951322976067346","0.0018724329488100785","-0.0026966915400067916","-0.02101567585015196","0.3966359518375356","0.5179068999668666"
"-0.005633608841864107","-0.08037769958248488","-0.03388334493640812","0.0012028799911471722","0.0023201844143812206","-0.004308355433826621","-0.02101567585015196","0.3966359518375356","0.5179068999668666"
"-0.004843988378474137","-0.0832479433671789","-0.03537760166343252","0.0007831781478340859","-0.00045587467215986","-0.0005209452833500222","-0.02101567585015196","0.3966359518375356","0.5179535294693266"
"-0.005633608841864107","-0.0813387187068244","-0.036160307568064355","-0.0033205732090049764","-0.0013513776033021443","0.002138300141452696","-0.02101567585015196","0.3966359518375356","0.521842429974488"
"-0.005633608841864107","-0.07941668045814536","-0.03692268344919926","-0.003973442743047555","-0.0013513776033021443","0.0028635488936716194","-0.02101567585015196","0.3966359518375356","0.5179068999668666"
"-0.007212849768644122","-0.07941668045814536","-0.033903674959905046","-0.0029008713656918906","0.0007082791383251092","0.0025412161149076535","-0.02101567585015196","0.3966359518375356","0.5179068999668666"
"-0.00405436791508413","-0.07653362308512682","-0.035408096698677914","-0.0011754304542936486","0.0014246814832389364","0.0006072194423238583","-0.02101567585015196","0.3966359518375356","0.5179068999668666"
"-0.005633608841864107","-0.07172852746342923","-0.03544875674567178","-0.0009422627635641563","0.001514231776353165","-0.0016491100090239026","-0.02101567585015196","0.3916760231837947","0.5179068999668666"
"-0.00405436791508413","-0.07461158483644778","-0.035418261710426384","0.0031148550551290083","0.0026783855868381342","-0.0035025234869167057","-0.02101567585015196","0.3916760231837947","0.5216559119646482"
"-0.005633608841864107","-0.08037769958248488","-0.035408096698677914","0.004000892279901079","0.0007082791383251092","-0.0035025234869167057","-0.02101567585015196","0.3966359518375356","0.521786474571536"
"-0.007212849768644122","-0.08996226364923099","-0.03537760166343252","0.0009697123004176798","0.0026783855868381342","-0.00205202598247886","-0.02101567585015196","0.3916760231837947","0.5255914419722696"
"-0.004843988378474137","-0.08709201986453698","-0.036139977544567416","-0.007237790413260446","0.0025888352937239057","-0.00205202598247886","-0.02101567585015196","0.3966359518375356","0.521842429974488"
"-0.00405436791508413","-0.07172852746342923","-0.035418261710426384","-0.004626312277090133","0.0010664803107820228","-0.0008432780621139879","-0.02101567585015196","0.3916760231837947","0.5179068999668666"
"-0.004843988378474137","-0.07461158483644778","-0.036190802603309744","0.0005500104571045938","-0.0009036261377310018","-0.00011802930989506468","-0.02101567585015196","0.38671609453005373","0.5214787198553003"
"-0.0064232293052541144","-0.0841961489031939","-0.03539793168692945","0.0020422836777733446","-8.123206588718188e-06","-0.0016491100090239026","-0.02101567585015196","0.3966359518375356","0.5255914419722696"
"-0.0064232293052541144","-0.08323512977885439","-0.035408096698677914","-0.0009422627635641563","0.0007082791383251092","-0.0004403620886590308","-0.02101567585015196","0.39158584266281743","0.5177297078575189"
"-0.005633608841864107","-0.08132590511849987","-0.03539793168692945","-0.0033205732090049764","0.0026783855868381342","-0.0004403620886590308","-0.02101567585015196","0.3966359518375356","0.5179068999668666"
"-0.00405436791508413","-0.07941668045814536","-0.036160307568064355","-0.004812846429673727","0.00026052767275396726","0.0006072194423238583","-0.02101567585015196","0.38671609453005373","0.517552515748171"
"-0.005633608841864107","-0.0755726039607873","-0.033913839971653516","-0.005046014120403219","-0.002515531413787113","0.002138300141452696","-0.02101567585015196","0.39654577131655855","0.5178602704644067"
"-0.004843988378474137","-0.07845566133380584","-0.036160307568064355","-0.00201483414091982","-0.00018722379281717485","0.00020430346886890117","-0.02101567585015196","0.3966359518375356","0.5179068999668666"
"-0.007212849768644122","-0.08036488599416036","-0.036190802603309744","-0.00112879691614775","-0.0005454249652740885","-0.0004403620886590308","-0.02101567585015196","0.3966359518375356","0.5179068999668666"
"-0.007212849768644122","-0.08131309153017535","-0.03618063759156128","-0.0018282999883362265","0.0010664803107820228","-0.0023743587612428257","-0.023740139298137893","0.39654577131655855","0.5178602704644067"
"-0.0032647474516941228","-0.08037769958248488","-0.03537760166343252","-0.0003360267676674765","0.0023201844143812206","-0.0039054394603716637","-0.02101567585015196","0.3966359518375356","0.5179068999668666"
"-0.007212849768644122","-0.08323512977885439","-0.03388334493640812","-0.0003360267676674765","0.00035007796586819577","-0.0012461940355689453","-0.02101567585015196","0.3966359518375356","0.5179068999668666"
"-0.004843988378474137","-0.08228692424283938","-0.036150142556315885","-0.0029008713656918906","0.0018724329488100785","-0.0012461940355689453","-0.02101567585015196","0.3966359518375356","0.5257779599821096"
"-0.0064232293052541144","-0.07845566133380584","-0.03544875674567178","-0.0024345359842329064","0.0018724329488100785","-0.0004403620886590308","-0.023740139298137893","0.39654577131655855","0.5178602704644067"
"-0.004843988378474137","-0.07941668045814536","-0.03387317992465965","-0.0015951322976067346","0.0023201844143812206","-0.0008432780621139879","-0.02101567585015196","0.3966359518375356","0.5179068999668666"
"-0.005633608841864107","-0.08132590511849987","-0.034645720817543024","-0.0020614676790657186","0.0014246814832389364","-0.0004403620886590308","-0.02101567585015196","0.3966359518375356","0.5255914419722696"
"-0.0064232293052541144","-0.08132590511849987","-0.035418261710426384","-0.0033205732090049764","0.003036586759295048","-0.0004403620886590308","-0.02101567585015196","0.39158584266281743","0.5178602704644067"
"-0.00405436791508413","-0.07941668045814536","-0.03538776667518099","-0.005279181811132711","0.0021410838281527636","-0.0004403620886590308","-0.02101567585015196","0.3916760231837947","0.5216559119646482"
"-0.0064232293052541144","-0.07749464220946634","-0.03542842672217484","-0.0033672067471508756","0.0014246814832389364","0.0006072194423238583","-0.023740139298137893","0.39654577131655855","0.5178602704644067"
"-0.004843988378474137","-0.08037769958248488","-0.03539793168692945","-0.0013619646068772423","0.0014246814832389364","-0.0008432780621139879","-0.02101567585015196","0.39654577131655855","0.5179068999668666"
"-0.004843988378474137","-0.07749464220946634","-0.03465588582929148","-0.000289393229521578","0.0010664803107820228","-0.0008432780621139879","-0.02101567585015196","0.39654577131655855","0.5178602704644067"
"-0.004843988378474137","-0.07941668045814536","-0.03538776667518099","0.0007831781478340859","0.0016037820694673932","-0.0004403620886590308","-0.02101567585015196","0.3916760231837947","0.5138035037503892"
"-0.005633608841864107","-0.07941668045814536","-0.035408096698677914","8.367507564560935e-05","0.0014246814832389364","-0.0012461940355689453","-0.02101567585015196","0.3916760231837947","0.5177297078575189"
"-0.005633608841864107","-0.0813387187068244","-0.03617047257981282","-0.00010285907693798425","0.0023201844143812206","-0.00205202598247886","-0.02101567585015196","0.3966359518375356","0.5179068999668666"
"-0.005633608841864107","-0.0813387187068244","-0.036932848460947715","-0.0013619646068772423","0.003036586759295048","-0.0016491100090239026","-0.02101567585015196","0.3966359518375356","0.5179068999668666"
"-0.004843988378474137","-0.07941668045814536","-0.035408096698677914","-0.0013619646068772423","0.0018724329488100785","-0.0012461940355689453","-0.02101567585015196","0.3966359518375356","0.521842429974488"
"-0.005633608841864107","-0.07941668045814536","-0.035408096698677914","-0.0009422627635641563","0.0014246814832389364","-0.0008432780621139879","-0.02101567585015196","0.3966359518375356","0.5179068999668666"
"-0.0064232293052541144","-0.08037769958248488","-0.03542842672217484","-0.00112879691614775","0.00026052767275396726","-0.00011802930989506468","-0.02101567585015196","0.3966359518375356","0.5179068999668666"
"-0.0064232293052541144","-0.08131309153017535","-0.03845760022321751","-0.0037402750523180626","0.0026783855868381342","-0.0012461940355689453","-0.02101567585015196","0.3966359518375356","0.5179068999668666"
"-0.00405436791508413","-0.08037769958248488","-0.03691251843745079","-0.0026677036749623985","0.0010664803107820228","-0.00011802930989506468","-0.02101567585015196","0.3966359518375356","0.5179068999668666"
"-0.005633608841864107","-0.07941668045814536","-0.035408096698677914","-0.0015951322976067346","-0.0005454249652740885","0.00020430346886890117","-0.02101567585015196","0.3966359518375356","0.5179068999668666"
"-0.00405436791508413","-0.07748182862114181","-0.03621113262680668","-0.0018282999883362265","0.0018724329488100785","-0.0030996075134617487","-0.02101567585015196","0.3966359518375356","0.5179068999668666"
"-0.0064232293052541144","-0.08132590511849987","-0.035408096698677914","-0.0011754304542936486","0.0007082791383251092","0.0014130513892337733","-0.02101567585015196","0.38671609453005373","0.517552515748171"
"-0.007212849768644122","-0.08131309153017535","-0.03466605084103995","-0.0020614676790657186","-9.767349970294636e-05","0.0010101354157788156","-0.02101567585015196","0.3966359518375356","0.5179068999668666"
"-0.005633608841864107","-0.07941668045814536","-0.036932848460947715","-0.00201483414091982","0.0026783855868381342","-0.0004403620886590308","-0.02101567585015196","0.38671609453005373","0.5177297078575189"
"-0.005633608841864107","-0.08036488599416036","-0.035408096698677914","-0.0013619646068772423","0.0010664803107820228","-0.0008432780621139879","-0.02101567585015196","0.3916760231837947","0.5177297078575189"
"-0.005633608841864107","-0.0813387187068244","-0.036932848460947715","-0.0013619646068772423","0.0026783855868381342","-0.00205202598247886","-0.02101567585015196","0.3966359518375356","0.5216652378651401"
"-0.00405436791508413","-0.0813387187068244","-0.03690235342570232","-0.0018282999883362265","0.0018724329488100785","-0.0023743587612428257","-0.023740139298137893","0.38671609453005373","0.5176830783550588"
"-0.005633608841864107","-0.0813387187068244","-0.035408096698677914","-0.0022480018316493127","0.0014246814832389364","-0.0004403620886590308","-0.02101567585015196","0.39654577131655855","0.5179068999668666"
"-0.005633608841864107","-0.07941668045814536","-0.035408096698677914","-0.0026677036749623985","0.0014246814832389364","-0.0004403620886590308","-0.02101567585015196","0.3868062750510308","0.5175991452506309"
"-0.00405436791508413","-0.07941668045814536","-0.03539793168692945","-0.0013619646068772423","0.0014246814832389364","-0.0004403620886590308","-0.02101567585015196","0.3966359518375356","0.5179068999668666"
"-0.007212849768644122","-0.07941668045814536","-0.03542842672217484","-0.0015951322976067346","0.0010664803107820228","-0.0004403620886590308","-0.02101567585015196","0.3916760231837947","0.5177297078575189"
"-0.005633608841864107","-0.08037769958248488","-0.036932848460947715","-0.0020614676790657186","0.0010664803107820228","-0.0008432780621139879","-0.02101567585015196","0.3916760231837947","0.5177297078575189"
"-0.005633608841864107","-0.07941668045814536","-0.035408096698677914","-0.0015951322976067346","0.0007082791383251092","-0.00205202598247886","-0.02101567585015196","0.38671609453005373","0.517552515748171"
"-0.005633608841864107","-0.0813387187068244","-0.035408096698677914","-0.0009422627635641563","0.0007082791383251092","-0.0004403620886590308","-0.02101567585015196","0.38671609453005373","0.5214787198553003"
"-0.007212849768644122","-0.07845566133380584","-0.03543859173392331","-0.0015951322976067346","0.00026052767275396726","-0.0016491100090239026","-0.02101567585015196","0.38671609453005373","0.517552515748171"
"-0.000885496318584783","-0.0755726039607873","-0.03689218841395385","0.0012028799911471722","0.004290290862894245","-0.011077343787869903","-0.02101567585015196","0.3966359518375356","0.5216559119646482"
"-0.0064232293052541144","-0.08900124452489148","-0.03539793168692945","0.003767724589171586","0.0007082791383251092","-0.0012461940355689453","-0.02101567585015196","0.3966359518375356","0.5179068999668666"
"-0.0064232293052541144","-0.08323512977885439","-0.034635555805794555","-0.0018282999883362265","-0.0005454249652740885","-0.0004403620886590308","-0.02101567585015196","0.38671609453005373","0.5254049239624298"
"-0.005633608841864107","-0.07845566133380584","-0.036932848460947715","-0.003553740899734469","0.00026052767275396726","-0.0004403620886590308","-0.02101567585015196","0.3916760231837947","0.5216559119646482"
"-0.004843988378474137","-0.07749464220946634","-0.03389350994815659","-0.0022480018316493127","0.0014246814832389364","-0.0004403620886590308","-0.026464602746123826","0.3914956621418404","0.5215533270592362"
"-0.004843988378474137","-0.07941668045814536","-0.033863014912911195","-0.0018282999883362265","0.0010664803107820228","0.00020430346886890117","-0.023740139298137893","0.38662591400907653","0.5214320903528403"
"-0.005633608841864107","-0.07941668045814536","-0.03388334493640812","-0.0033672067471508756","0.0007082791383251092","-0.00011802930989506468","-0.02101567585015196","0.38671609453005373","0.5214320903528403"
"-0.005633608841864107","-0.07749464220946634","-0.036190802603309744","-0.0024345359842329064","0.0014246814832389364","-0.0008432780621139879","-0.02101567585015196","0.38671609453005373","0.5214787198553003"
"-0.005633608841864107","-0.07845566133380584","-0.036943013472696185","0.0005500104571045938","0.0014246814832389364","-0.00205202598247886","-0.02101567585015196","0.38671609453005373","0.5214787198553003"
"-0.005633608841864107","-0.0813387187068244","-0.03617047257981282","0.00246198552108643","0.0016037820694673932","-0.0030996075134617487","-0.02101567585015196","0.3916760231837947","0.5216092824621882"
"-0.005633608841864107","-0.08037769958248488","-0.035408096698677914","0.0020422836777733446","0.0023201844143812206","-0.0030996075134617487","-0.02101567585015196","0.3966359518375356","0.5179068999668666"
"-0.005633608841864107","-0.08037769958248488","-0.03617047257981282","0.0020422836777733446","0.0023201844143812206","-0.0026966915400067916","-0.02101567585015196","0.38671609453005373","0.5254049239624298"
"-0.005633608841864107","-0.08323512977885439","-0.034625390794046085","0.001809115987043852","0.001961983241924307","-0.00205202598247886","-0.02101567585015196","0.3916760231837947","0.5255914419722696"
"-0.005633608841864107","-0.0813387187068244","-0.03388334493640812","0.0005500104571045938","0.0026783855868381342","-0.0026966915400067916","-0.02101567585015196","0.38671609453005373","0.5254049239624298"
"-0.00405436791508413","-0.07941668045814536","-0.03691251843745079","0.0013894141437307654","0.001514231776353165","-0.00205202598247886","-0.02101567585015196","0.3916760231837947","0.5295642755818589"
"-0.005633608841864107","-0.07941668045814536","-0.036932848460947715","0.0007831781478340859","-8.123206588718188e-06","-0.0016491100090239026","-0.023740139298137893","0.38662591400907653","0.5332107026742285"
"-0.005633608841864107","-0.07941668045814536","-0.03845760022321751","0.0012028799911471722","-0.0009036261377310018","-0.0012461940355689453","-0.02101567585015196","0.38671609453005373","0.5254049239624298"
"-0.007212849768644122","-0.08323512977885439","-0.03845760022321751","0.002228817830356938","-8.123206588718188e-06","-0.00205202598247886","-0.02101567585015196","0.38671609453005373","0.5332573321766887"
"-0.005633608841864107","-0.08515716802753341","-0.036150142556315885","0.0018557495251897505","0.0007082791383251092","-0.0026966915400067916","-0.02101567585015196","0.38671609453005373","0.5332573321766887"
"-0.005633608841864107","-0.08228692424283938","-0.03538776667518099","-0.00010285907693798425","-9.767349970294636e-05","-0.00205202598247886","-0.02101567585015196","0.38671609453005373","0.5293311280695594"
"-0.004843988378474137","-0.0813387187068244","-0.03387317992465965","-0.002481169522378805","0.00026052767275396726","0.00020430346886890117","-0.02101567585015196","0.38671609453005373","0.5332573321766887"
"-0.00405436791508413","-0.07749464220946634","-0.03388334493640812","-0.0037402750523180626","-0.0009036261377310018","0.0006072194423238583","-0.026464602746123826","0.38653573348809944","0.5331640731717686"
