"AccX","AccY","AccZ","GyroX","GyroY","GyroZ","MagX","MagY","MagZ"
"-0.005633608841864107","-0.07941668045814536","-0.03388334493640812","0.0016225818344602582","-8.123206588718188e-06","-0.0012461940355689453","-0.018284135873729613","0.38689645557200786","0.5254981829673497"
"-0.005633608841864107","-0.08228692424283938","-0.03539793168692945","-0.0005225609202510703","0.0007082791383251092","-0.0012461940355689453","-0.02101567585015196","0.3916760231837947","0.5295176460793991"
"-0.005633608841864107","-0.0813387187068244","-0.035408096698677914","-0.00112879691614775","0.0007082791383251092","-0.0008432780621139879","-0.02101567585015196","0.3868062750510308","0.5254515534648897"
"-0.005633608841864107","-0.0813387187068244","-0.035408096698677914","0.0007831781478340859","0.0007082791383251092","-0.00205202598247886","-0.02101567585015196","0.38671609453005373","0.5254515534648897"
"-0.005633608841864107","-0.0813387187068244","-0.03388334493640812","-0.0009422627635641563","0.0014246814832389364","-0.0008432780621139879","-0.02101567585015196","0.38671609453005373","0.5293311280695594"
"-0.005633608841864107","-0.0813387187068244","-0.03388334493640812","-0.0033672067471508756","0.0023201844143812206","-0.0004403620886590308","-0.02101567585015196","0.38671609453005373","0.5254049239624298"
"-0.005633608841864107","-0.08037769958248488","-0.034635555805794555","-0.003134039056421383","0.0026783855868381342","0.0006072194423238583","-0.02101567585015196","0.38671609453005373","0.5254049239624298"
"-0.007212849768644122","-0.08611818715187293","-0.03539793168692945","-0.003973442743047555","0.0010664803107820228","0.0014130513892337733","-0.02101567585015196","0.38671609453005373","0.5254049239624298"
"-0.007212849768644122","-0.08804022540055197","-0.037674894318585686","-0.008077194099886617","0.0021410838281527636","0.0010101354157788156","-0.02101567585015196","0.38671609453005373","0.5254049239624298"
"-0.0032647474516941228","-0.08037769958248488","-0.03613997754456743","-0.009989169163868454","0.0021410838281527636","0.003266464867126576","-0.02101567585015196","0.38671609453005373","0.517552515748171"
"-0.005633608841864107","-0.07845566133380584","-0.033131134067021686","-0.005046014120403219","-0.0013513776033021443","0.002460632920216662","-0.02101567585015196","0.38671609453005373","0.517552515748171"
"-0.005633608841864107","-0.07845566133380584","-0.03618063759156128","-0.0037402750523180626","0.0007082791383251092","0.002138300141452696","-0.02101567585015196","0.3916760231837947","0.5100544917526078"
"-0.005633608841864107","-0.0755726039607873","-0.036190802603309744","-0.001781666450190328","-0.0009036261377310018","0.0014130513892337733","-0.02101567585015196","0.38671609453005373","0.517552515748171"
"-0.005633608841864107","-0.07845566133380584","-0.035418261710426384","0.001436047681876664","0.001514231776353165","-0.0012461940355689453","-0.02101567585015196","0.38671609453005373","0.517552515748171"
"-0.005633608841864107","-0.0813387187068244","-0.035408096698677914","0.004653761813943657","-8.123206588718188e-06","-0.0035025234869167057","-0.02101567585015196","0.38671609453005373","0.5214787198553003"
"-0.005633608841864107","-0.0813387187068244","-0.034645720817543024","0.0053066313479862345","0.00035007796586819577","-0.0023743587612428257","-0.02101567585015196","0.38671609453005373","0.517552515748171"
"-0.007212849768644122","-0.08131309153017535","-0.033903674959905046","0.002928320902545414","0.00035007796586819577","-0.0023743587612428257","-0.023740139298137893","0.38662591400907653","0.517552515748171"
"-0.005633608841864107","-0.0813387187068244","-0.03618063759156128","0.0010163458385635783","0.0026783855868381342","-0.0030996075134617487","-0.02101567585015196","0.38671609453005373","0.5254049239624298"
"-0.005633608841864107","-0.08228692424283938","-0.034635555805794555","8.367507564560935e-05","0.0023201844143812206","-0.0039054394603716637","-0.02101567585015196","0.38671609453005373","0.5252277318530818"
"-0.004843988378474137","-0.0813387187068244","-0.033863014912911195","-0.00010285907693798425","0.0014246814832389364","-0.0005209452833500222","-0.02101567585015196","0.38671609453005373","0.5254049239624298"
"-0.0064232293052541144","-0.08323512977885439","-0.03539793168692945","-0.000289393229521578","-0.00018722379281717485","0.00020430346886890117","-0.02101567585015196","0.38671609453005373","0.5254049239624298"
"-0.0064232293052541144","-0.08707920627621245","-0.03538776667518099","-0.002481169522378805","0.0007082791383251092","0.0010101354157788156","-0.02101567585015196","0.38671609453005373","0.5254049239624298"
"-0.007212849768644122","-0.08900124452489148","-0.03691251843745079","-0.006538287341071968","0.0014246814832389364","0.0036693808405815335","-0.02101567585015196","0.38671609453005373","0.517552515748171"
"-0.0064232293052541144","-0.08611818715187293","-0.036150142556315885","-0.010875206388640523","0.00017097737963973878","0.0028635488936716194","-0.026464602746123826","0.3816659853553356","0.5172634128329191"
"-0.005633608841864107","-0.07845566133380584","-0.033131134067021686","-0.013020349143351853","0.0005291785520966524","0.0028635488936716194","-0.02101567585015196","0.3816659853553356","0.5133838382282496"
"-0.00405436791508413","-0.07365056571210826","-0.031616547316500355","-0.011947777765996188","0.0021410838281527636","0.004072296814036491","-0.026464602746123826","0.3766158761806176","0.5092151607083283"
"-0.00405436791508413","-0.06980648921475019","-0.032399253221132185","-0.007844026409157125","0.0009769300176677945","0.002138300141452696","-0.026464602746123826","0.38662591400907653","0.5095881967280081"
"-0.005633608841864107","-0.07268954658776874","-0.033924004983401986","-0.002481169522378805","0.00026052767275396726","0.0018159673626887303","-0.023740139298137893","0.38662591400907653","0.5096348262304681"
"-0.0064232293052541144","-0.07749464220946634","-0.03543859173392331","-0.0005225609202510703","0.0007082791383251092","-0.0023743587612428257","-0.026464602746123826","0.38653573348809944","0.5094576341211203"
"-0.005633608841864107","-0.08132590511849987","-0.035408096698677914","0.0012028799911471722","0.0023201844143812206","-0.0035025234869167057","-0.026464602746123826","0.38653573348809944","0.5095881967280081"
"-0.005633608841864107","-0.0813387187068244","-0.03539793168692945","-0.0013619646068772423","0.0018724329488100785","-0.0026966915400067916","-0.026464602746123826","0.38653573348809944","0.5095881967280081"
"-0.005633608841864107","-0.08037769958248488","-0.03387317992465965","-0.003134039056421383","-0.00018722379281717485","-0.00205202598247886","-0.023740139298137893","0.38662591400907653","0.5096348262304681"
"-0.005633608841864107","-0.07941668045814536","-0.03388334493640812","-0.003553740899734469","-0.00018722379281717485","-0.00205202598247886","-0.023740139298137893","0.38662591400907653","0.5096348262304681"
"-0.005633608841864107","-0.07941668045814536","-0.03388334493640812","-0.0022480018316493127","-0.00018722379281717485","-0.004308355433826621","-0.026464602746123826","0.38653573348809944","0.5096348262304681"
"-0.005633608841864107","-0.08037769958248488","-0.03388334493640812","0.0020422836777733446","-0.0009036261377310018","-0.0039054394603716637","-0.02101567585015196","0.38671609453005373","0.509681455732928"
"-0.005633608841864107","-0.08707920627621245","-0.03232809813889293","0.0005500104571045938","-0.0009036261377310018","-0.00205202598247886","-0.023740139298137893","0.38662591400907653","0.5174965603452188"
"-0.007212849768644122","-0.08996226364923099","-0.03308030900827935","-0.0029008713656918906","-0.00018722379281717485","-0.0004403620886590308","-0.02101567585015196","0.38671609453005373","0.517552515748171"
"-0.0064232293052541144","-0.08611818715187293","-0.034625390794046085","-0.005885417807029391","0.0007082791383251092","-0.0004403620886590308","-0.023740139298137893","0.38662591400907653","0.5133838382282496"
"-0.005633608841864107","-0.0813387187068244","-0.03311080404352476","-0.005046014120403219","0.0014246814832389364","0.00020430346886890117","-0.023740139298137893","0.38662591400907653","0.509681455732928"
"-0.004843988378474137","-0.08037769958248488","-0.03311080404352476","-0.005046014120403219","0.0014246814832389364","0.0018159673626887303","-0.02101567585015196","0.38671609453005373","0.509681455732928"
"-0.005633608841864107","-0.07941668045814536","-0.03311080404352476","-0.004579678738944235","0.0023201844143812206","0.0010101354157788156","-0.023740139298137893","0.38653573348809944","0.5096348262304681"
"-0.005633608841864107","-0.07845566133380584","-0.03389350994815659","-0.0026677036749623985","0.003036586759295048","-0.00011802930989506468","-0.023740139298137893","0.38662591400907653","0.5096348262304681"
"-0.005633608841864107","-0.07749464220946634","-0.033903674959905046","0.0007365446096881877","0.0031261370524092763","-0.0016491100090239026","-0.02101567585015196","0.38671609453005373","0.509681455732928"
"-0.005633608841864107","-0.0813387187068244","-0.035408096698677914","0.00246198552108643","0.003932089690437332","-0.0016491100090239026","-0.02101567585015196","0.38671609453005373","0.509681455732928"
"-0.005633608841864107","-0.08323512977885439","-0.03387317992465965","0.0012028799911471722","0.0034843382248661895","-0.00205202598247886","-0.023740139298137893","0.38662591400907653","0.509681455732928"
"-0.005633608841864107","-0.08228692424283938","-0.03539793168692945","-0.002481169522378805","0.0026783855868381342","-0.0016491100090239026","-0.023740139298137893","0.38662591400907653","0.5096348262304681"
"-0.005633608841864107","-0.08037769958248488","-0.035408096698677914","-0.0033672067471508756","0.0034843382248661895","-0.0016491100090239026","-0.02101567585015196","0.38671609453005373","0.517552515748171"
"-0.005633608841864107","-0.08037769958248488","-0.03388334493640812","-0.00112879691614775","0.0007082791383251092","-0.0012461940355689453","-0.02101567585015196","0.38671609453005373","0.509681455732928"
"-0.005633608841864107","-0.0813387187068244","-0.034645720817543024","-0.0009422627635641563","0.0010664803107820228","-0.0012461940355689453","-0.02101567585015196","0.38671609453005373","0.5133838382282496"
"-0.007212849768644122","-0.08227411065451486","-0.035418261710426384","-0.0005225609202510703","0.0014246814832389364","-0.0008432780621139879","-0.02101567585015196","0.38671609453005373","0.5136169857405494"
"-0.005633608841864107","-0.08228692424283938","-0.03539793168692945","-0.0013619646068772423","0.0010664803107820228","-0.0012461940355689453","-0.02101567585015196","0.38671609453005373","0.5138035037503892"
"-0.005633608841864107","-0.0813387187068244","-0.03388334493640812","-0.0013619646068772423","0.0014246814832389364","-0.0012461940355689453","-0.023740139298137893","0.38662591400907653","0.509681455732928"
"-0.004843988378474137","-0.0813387187068244","-0.03387317992465965","-0.0015951322976067346","0.0007082791383251092","-0.00205202598247886","-0.02101567585015196","0.38671609453005373","0.5098679737427679"
"-0.005633608841864107","-0.0813387187068244","-0.03388334493640812","-0.0015951322976067346","0.0023201844143812206","-0.0012461940355689453","-0.02101567585015196","0.38671609453005373","0.5098679737427679"
"-0.005633608841864107","-0.0813387187068244","-0.034645720817543024","-0.0007557286109805625","0.0018724329488100785","-0.00205202598247886","-0.023740139298137893","0.38662591400907653","0.5098213442403079"
"-0.005633608841864107","-0.0813387187068244","-0.03388334493640812","8.367507564560935e-05","0.0023201844143812206","-0.0026966915400067916","-0.02101567585015196","0.38671609453005373","0.5136169857405494"
"-0.005633608841864107","-0.0813387187068244","-0.03388334493640812","0.0007831781478340859","0.003036586759295048","-0.0035025234869167057","-0.02101567585015196","0.38671609453005373","0.5136169857405494"
"-0.005633608841864107","-0.0813387187068244","-0.03388334493640812","0.0007831781478340859","0.0023201844143812206","-0.0023743587612428257","-0.02101567585015196","0.38671609453005373","0.5174965603452188"
"-0.005633608841864107","-0.08323512977885439","-0.033863014912911195","-0.0007557286109805625","0.0014246814832389364","-0.0016491100090239026","-0.02101567585015196","0.3868062750510308","0.5175991452506309"
"-0.0064232293052541144","-0.08132590511849987","-0.035418261710426384","-0.0018282999883362265","0.0023201844143812206","-0.0016491100090239026","-0.02101567585015196","0.3868062750510308","0.517552515748171"
"-0.005633608841864107","-0.0813387187068244","-0.035408096698677914","-0.0022480018316493127","0.0023201844143812206","-0.0016491100090239026","-0.02101567585015196","0.38671609453005373","0.517552515748171"
"-0.005633608841864107","-0.08037769958248488","-0.03388334493640812","-0.0013619646068772423","0.0023201844143812206","-0.0016491100090239026","-0.02101567585015196","0.3868062750510308","0.5177297078575189"
"-0.0064232293052541144","-0.0813387187068244","-0.034645720817543024","-0.0009422627635641563","0.0014246814832389364","-0.0004403620886590308","-0.02101567585015196","0.38671609453005373","0.517552515748171"
"-0.007212849768644122","-0.08515716802753341","-0.036932848460947715","-0.0015951322976067346","0.0014246814832389364","-0.00011802930989506468","-0.02101567585015196","0.3916760231837947","0.517552515748171"
"-0.005633608841864107","-0.08228692424283938","-0.03692268344919926","-0.0029008713656918906","0.0014246814832389364","-0.0012461940355689453","-0.02101567585015196","0.38671609453005373","0.517552515748171"
"-0.005633608841864107","-0.07941668045814536","-0.035408096698677914","-0.0020614676790657186","0.0010664803107820228","-0.0008432780621139879","-0.02101567585015196","0.39158584266281743","0.5177297078575189"
"-0.005633608841864107","-0.07941668045814536","-0.03388334493640812","-0.0015951322976067346","0.0007082791383251092","-0.0004403620886590308","-0.02101567585015196","0.38671609453005373","0.517552515748171"
"-0.005633608841864107","-0.07941668045814536","-0.035408096698677914","-0.0018282999883362265","-0.00018722379281717485","-0.0012461940355689453","-0.02101567585015196","0.38671609453005373","0.517552515748171"
"-0.005633608841864107","-0.0813387187068244","-0.035408096698677914","-0.00112879691614775","0.0014246814832389364","-0.0012461940355689453","-0.02101567585015196","0.38671609453005373","0.517552515748171"
"-0.005633608841864107","-0.08323512977885439","-0.03538776667518099","-0.0009422627635641563","0.0010664803107820228","-0.0023743587612428257","-0.02101567585015196","0.38671609453005373","0.517552515748171"
"-0.005633608841864107","-0.0813387187068244","-0.03388334493640812","0.0007831781478340859","0.001514231776353165","-0.0026966915400067916","-0.02101567585015196","0.38671609453005373","0.5136169857405494"
"-0.005633608841864107","-0.08323512977885439","-0.033863014912911195","-0.0005225609202510703","0.0023201844143812206","-0.00205202598247886","-0.02101567585015196","0.38671609453005373","0.517552515748171"
"-0.005633608841864107","-0.08323512977885439","-0.034625390794046085","-0.0022480018316493127","0.0023201844143812206","-0.00205202598247886","-0.02101567585015196","0.3868062750510308","0.5177763373599786"
"-0.005633608841864107","-0.08323512977885439","-0.034635555805794555","-0.0022480018316493127","0.0023201844143812206","-0.0012461940355689453","-0.02101567585015196","0.38671609453005373","0.5177297078575189"
"-0.005633608841864107","-0.08323512977885439","-0.033863014912911195","-0.00112879691614775","0.0023201844143812206","-0.0012461940355689453","-0.02101567585015196","0.38671609453005373","0.517552515748171"
"-0.005633608841864107","-0.08228692424283938","-0.03387317992465965","-0.00112879691614775","0.0023201844143812206","-0.0012461940355689453","-0.02101567585015196","0.38671609453005373","0.517552515748171"
"-0.005633608841864107","-0.0813387187068244","-0.035408096698677914","-0.0013619646068772423","0.0023201844143812206","-0.0004403620886590308","-0.02101567585015196","0.3917662037047717","0.5177763373599786"
"-0.005633608841864107","-0.08323512977885439","-0.03691251843745079","-0.00112879691614775","0.0023201844143812206","-0.0012461940355689453","-0.01555259589730742","0.3917662037047717","0.5177763373599786"
"-0.005633608841864107","-0.0813387187068244","-0.035408096698677914","-0.0015951322976067346","0.0026783855868381342","-0.0008432780621139879","-0.02101567585015196","0.38671609453005373","0.517552515748171"
"-0.005633608841864107","-0.0813387187068244","-0.03388334493640812","-0.0013619646068772423","0.0023201844143812206","-0.0012461940355689453","-0.02101567585015196","0.38671609453005373","0.517552515748171"
"-0.005633608841864107","-0.08323512977885439","-0.036150142556315885","-0.0015951322976067346","0.0023201844143812206","-0.0008432780621139879","-0.02101567585015196","0.38671609453005373","0.517552515748171"
"-0.0064232293052541144","-0.08132590511849987","-0.036943013472696185","-0.0018282999883362265","0.0007082791383251092","-0.0004403620886590308","-0.02101567585015196","0.38671609453005373","0.517552515748171"
"-0.0064232293052541144","-0.08132590511849987","-0.035418261710426384","-0.0007557286109805625","0.0010664803107820228","-0.0012461940355689453","-0.02101567585015196","0.3917662037047717","0.5177763373599786"
"-0.005633608841864107","-0.08037769958248488","-0.035408096698677914","0.0010163458385635783","0.0016037820694673932","-0.0012461940355689453","-0.02101567585015196","0.38671609453005373","0.517552515748171"
"-0.005633608841864107","-0.0813387187068244","-0.03539793168692945","0.002928320902545414","0.0016037820694673932","-0.00205202598247886","-0.02101567585015196","0.3917662037047717","0.5216559119646482"
"-0.005633608841864107","-0.08228692424283938","-0.036160307568064355","0.003581190436587993","-8.123206588718188e-06","-0.0026966915400067916","-0.02101567585015196","0.38671609453005373","0.5214787198553003"
"-0.0064232293052541144","-0.08323512977885439","-0.036160307568064355","0.003767724589171586","-8.123206588718188e-06","-0.00205202598247886","-0.02101567585015196","0.38671609453005373","0.5252277318530818"
"-0.0064232293052541144","-0.08323512977885439","-0.036160307568064355","0.0007365446096881877","0.00035007796586819577","-0.0008432780621139879","-0.02101567585015196","0.38671609453005373","0.5254049239624298"
"-0.005633608841864107","-0.0813387187068244","-0.03388334493640812","-0.0043931445863606405","0.0010664803107820228","-0.0004403620886590308","-0.02101567585015196","0.3868062750510308","0.5214787198553003"
"-0.005633608841864107","-0.07941668045814536","-0.03388334493640812","-0.004579678738944235","0.00026052767275396726","0.0010101354157788156","-0.02101567585015196","0.38671609453005373","0.5254049239624298"
"-0.005633608841864107","-0.07941668045814536","-0.035418261710426384","-0.0029008713656918906","-0.0009036261377310018","0.00020430346886890117","-0.02101567585015196","0.38671609453005373","0.5254049239624298"
"-0.005633608841864107","-0.08037769958248488","-0.03617047257981282","-0.00112879691614775","-0.00018722379281717485","-0.00011802930989506468","-0.02101567585015196","0.38671609453005373","0.5215253493577603"
"-0.0064232293052541144","-0.08323512977885439","-0.036160307568064355","-0.0015951322976067346","-0.00018722379281717485","-0.0004403620886590308","-0.02101567585015196","0.3966359518375356","0.5179068999668666"
"-0.005633608841864107","-0.08323512977885439","-0.033863014912911195","-0.0015951322976067346","-0.0009036261377310018","-0.0004403620886590308","-0.02101567585015196","0.38671609453005373","0.5254049239624298"
"-0.005633608841864107","-0.0813387187068244","-0.036932848460947715","-0.0007557286109805625","0.00026052767275396726","-0.0004403620886590308","-0.02101567585015196","0.38671609453005373","0.5253582944599697"
"-0.005633608841864107","-0.0813387187068244","-0.035408096698677914","0.0010163458385635783","0.0007082791383251092","-0.0012461940355689453","-0.02101567585015196","0.38671609453005373","0.517552515748171"
"-0.005633608841864107","-0.08323512977885439","-0.033863014912911195","0.0010163458385635783","0.0007082791383251092","-0.0012461940355689453","-0.02101567585015196","0.38671609453005373","0.5254049239624298"
"-0.005633608841864107","-0.08611818715187293","-0.035367436651684056","0.00031684276637510174","-0.0009036261377310018","0.0006072194423238583","-0.02101567585015196","0.38671609453005373","0.5254049239624298"
"-0.0064232293052541144","-0.08515716802753341","-0.03539793168692945","-0.003786908590463961","-0.0009036261377310018","0.002460632920216662","-0.023740139298137893","0.38653573348809944","0.5213761349498884"
"-0.005633608841864107","-0.08037769958248488","-0.036160307568064355","-0.005698883654445797","-0.00018722379281717485","0.0018159673626887303","-0.026464602746123826","0.38653573348809944","0.5214320903528403"
"-0.004843988378474137","-0.07941668045814536","-0.03235859317413832","-0.0043931445863606405","-0.00018722379281717485","0.002138300141452696","-0.02101567585015196","0.38175616587631267","0.5210683802336524"
"-0.004843988378474137","-0.07941668045814536","-0.03235859317413832","-0.004579678738944235","0.0007082791383251092","0.0010101354157788156","-0.02101567585015196","0.38175616587631267","0.5173659977383309"
"-0.005633608841864107","-0.07749464220946634","-0.03314129907877015","-0.0022480018316493127","0.0010664803107820228","0.0010101354157788156","-0.023740139298137893","0.3816659853553356","0.517310042335379"
"-0.005633608841864107","-0.07941668045814536","-0.034645720817543024","-0.00010285907693798425","0.0018724329488100785","-0.00011802930989506468","-0.026464602746123826","0.3766158761806176","0.5170862207235711"
"-0.007212849768644122","-0.08227411065451486","-0.035418261710426384","-0.00010285907693798425","0.0014246814832389364","-0.0008432780621139879","-0.023740139298137893","0.38653573348809944","0.5174406049422668"
"-0.005633608841864107","-0.08323512977885439","-0.03691251843745079","-0.00201483414091982","0.003036586759295048","-0.0012461940355689453","-0.02101567585015196","0.38671609453005373","0.517552515748171"
"-0.005633608841864107","-0.07845566133380584","-0.033903674959905046","-0.0026677036749623985","0.003932089690437332","-0.0008432780621139879","-0.026464602746123826","0.38157580483435855","0.5174406049422668"
"-0.005633608841864107","-0.07845566133380584","-0.03389350994815659","-0.003134039056421383","0.003036586759295048","-0.0008432780621139879","-0.023740139298137893","0.38662591400907653","0.5174965603452188"
"-0.005633608841864107","-0.07941668045814536","-0.03388334493640812","-0.0022480018316493127","0.0023201844143812206","-0.00205202598247886","-0.023740139298137893","0.38662591400907653","0.5174965603452188"
"-0.007212849768644122","-0.08131309153017535","-0.035418261710426384","-0.0013619646068772423","0.003036586759295048","-0.00205202598247886","-0.023740139298137893","0.3816659853553356","0.517310042335379"
"-0.005633608841864107","-0.0813387187068244","-0.035408096698677914","-0.0011754304542936486","0.003036586759295048","-0.0023743587612428257","-0.026464602746123826","0.3816659853553356","0.517310042335379"
"-0.00405436791508413","-0.08037769958248488","-0.033863014912911195","0.0005500104571045938","0.001514231776353165","-0.0026966915400067916","-0.026464602746123826","0.38653573348809944","0.5174406049422668"
"-0.005633608841864107","-0.08515716802753341","-0.03538776667518099","-0.002714337213108297","0.0018724329488100785","0.0006072194423238583","-0.02101567585015196","0.38671609453005373","0.517552515748171"
"-0.007212849768644122","-0.08323512977885439","-0.036932848460947715","-0.007004622722530953","0.0010664803107820228","0.0006072194423238583","-0.02101567585015196","0.38671609453005373","0.517552515748171"
"-0.005633608841864107","-0.0813387187068244","-0.03617047257981282","-0.005698883654445797","0.0021410838281527636","-0.0004403620886590308","-0.02101567585015196","0.38671609453005373","0.517552515748171"
"-0.005633608841864107","-0.0813387187068244","-0.03388334493640812","-0.0026677036749623985","0.0018724329488100785","-0.0004403620886590308","-0.023740139298137893","0.38662591400907653","0.5172634128329191"
"-0.005633608841864107","-0.0813387187068244","-0.03235859317413832","-0.00112879691614775","0.0006187288452108809","-0.00011802930989506468","-0.02101567585015196","0.38662591400907653","0.5174965603452188"
"-0.005633608841864107","-0.0813387187068244","-0.03617047257981282","-0.0015951322976067346","0.0014246814832389364","0.00020430346886890117","-0.02101567585015196","0.38671609453005373","0.517552515748171"
"-0.007212849768644122","-0.08323512977885439","-0.036932848460947715","-0.0015951322976067346","0.0014246814832389364","-0.0012461940355689453","-0.02101567585015196","0.38671609453005373","0.517552515748171"
"-0.005633608841864107","-0.08037769958248488","-0.03539793168692945","-0.0015951322976067346","0.0010664803107820228","-0.0004403620886590308","-0.02101567585015196","0.38671609453005373","0.517552515748171"
"-0.005633608841864107","-0.07941668045814536","-0.03388334493640812","-0.0013619646068772423","0.0010664803107820228","-0.0016491100090239026","-0.026464602746123826","0.38653573348809944","0.5174406049422668"
"-0.005633608841864107","-0.07941668045814536","-0.03388334493640812","-0.0013619646068772423","-0.0005454249652740885","-0.00011802930989506468","-0.02101567585015196","0.3816659853553356","0.517310042335379"
"-0.007212849768644122","-0.07941668045814536","-0.03542842672217484","-0.0020614676790657186","-0.00018722379281717485","-0.00011802930989506468","-0.026464602746123826","0.38653573348809944","0.5174406049422668"
"-0.0064232293052541144","-0.07941668045814536","-0.033903674959905046","0.001436047681876664","0.0023201844143812206","-0.0023743587612428257","-0.026464602746123826","0.3816659853553356","0.517310042335379"
"-0.005633608841864107","-0.0813387187068244","-0.03312096905527322","0.0031614885932749067","0.0023201844143812206","-0.0030996075134617487","-0.02101567585015196","0.38671609453005373","0.517552515748171"
