"AccX","AccY","AccZ","GyroX","GyroY","GyroZ","MagX","MagY","MagZ"
"-0.005633608841864107","-0.07941668045814536","-0.034645720817543024","-0.0015951322976067346","-0.00018722379281717485","-0.0004403620886590308","-0.03192768269896837","0.37643551513866336","0.5170395912211112"
"-0.005633608841864107","-0.07941668045814536","-0.03388334493640812","-0.0013619646068772423","0.0007082791383251092","-0.0012461940355689453","-0.02919614272254612","0.3765256956596407","0.517216783330459"
"-0.005633608841864107","-0.0813387187068244","-0.03388334493640812","-0.0022480018316493127","0.0007082791383251092","0.00020430346886890117","-0.026464602746123826","0.3766158761806176","0.5210124248307004"
"-0.005633608841864107","-0.0813387187068244","-0.03388334493640812","-0.0024345359842329064","-0.00018722379281717485","0.00020430346886890117","-0.02919614272254612","0.37643551513866336","0.5169929617186513"
"-0.005633608841864107","-0.0813387187068244","-0.03388334493640812","-0.0026677036749623985","0.00026052767275396726","0.0010101354157788156","-0.03192768269896837","0.37643551513866336","0.5170395912211112"
"-0.005633608841864107","-0.07941668045814536","-0.03388334493640812","-0.0020614676790657186","0.00026052767275396726","0.0010101354157788156","-0.03192768269896837","0.37643551513866336","0.5169929617186513"
"-0.005633608841864107","-0.07941668045814536","-0.03387317992465965","-0.0009422627635641563","0.00026052767275396726","0.00020430346886890117","-0.03192768269896837","0.37643551513866336","0.5169929617186513"
"-0.005633608841864107","-0.07941668045814536","-0.03312096905527322","-0.0007557286109805625","-0.00018722379281717485","0.00020430346886890117","-0.02919614272254612","0.37643551513866336","0.5170395912211112"
"-0.005633608841864107","-0.07941668045814536","-0.03388334493640812","-0.0009422627635641563","-0.0005454249652740885","0.0010101354157788156","-0.02919614272254612","0.3765256956596407","0.5170395912211112"
"-0.0064232293052541144","-0.07941668045814536","-0.03389350994815659","-0.0018282999883362265","0.0007082791383251092","-0.0008432780621139879","-0.03192768269896837","0.3714868590500446","0.5168064437088112"
"-0.005633608841864107","-0.07845566133380584","-0.03389350994815659","-0.0013619646068772423","0.0007082791383251092","-0.0019714427877878687","-0.03192768269896837","0.3715770395710217","0.5168530732112714"
"-0.005633608841864107","-0.07749464220946634","-0.03236875818588679","-0.00010285907693798425","0.0007082791383251092","-0.0012461940355689453","-0.026464602746123826","0.3765256956596407","0.5209657953282407"
"-0.005633608841864107","-0.0813387187068244","-0.03388334493640812","-0.0005225609202510703","0.00026052767275396726","-0.0008432780621139879","-0.03192768269896837","0.37643551513866336","0.5209191658257806"
"-0.005633608841864107","-0.07941668045814536","-0.03312096905527322","-0.0015951322976067346","-0.00018722379281717485","-0.0008432780621139879","-0.02919614272254612","0.3666283834824028","0.5207886032188928"
"-0.005633608841864107","-0.0813387187068244","-0.03388334493640812","-0.003134039056421383","0.0007082791383251092","-0.0004403620886590308","-0.03192768269896837","0.3666283834824028","0.5166665552014315"
"-0.005633608841864107","-0.07941668045814536","-0.03388334493640812","-0.0037402750523180626","0.0010664803107820228","-0.0004403620886590308","-0.03192768269896837","0.3713966785290674","0.5246215483211021"
"-0.004843988378474137","-0.08037769958248488","-0.03158605228125496","-0.0043931445863606405","0.0010664803107820228","0.0006072194423238583","-0.03192768269896837","0.3714868590500446","0.5168530732112714"
"-0.005633608841864107","-0.07941668045814536","-0.03388334493640812","-0.006118585497758883","0.0014246814832389364","0.0010101354157788156","-0.03192768269896837","0.37643551513866336","0.5168064437088112"
"-0.005633608841864107","-0.07749464220946634","-0.03314129907877015","-0.0029008713656918906","0.00026052767275396726","0.00020430346886890117","-0.03192768269896837","0.37643551513866336","0.5169929617186513"
"-0.005633608841864107","-0.07941668045814536","-0.03236875818588679","-0.000709095072834664","0.0007082791383251092","-0.0004403620886590308","-0.03192768269896837","0.36653820296142586","0.5166199256989714"
"-0.005633608841864107","-0.07941668045814536","-0.03235859317413832","0.0010163458385635783","0.0007082791383251092","-0.0016491100090239026","-0.03192768269896837","0.37643551513866336","0.5169929617186513"
"-0.005633608841864107","-0.07941668045814536","-0.030833841411868516","0.0013894141437307654","0.001156030603896251","-0.00205202598247886","-0.03192768269896837","0.3714868590500446","0.5207419737164328"
"-0.005633608841864107","-0.07941668045814536","-0.03388334493640812","0.0010163458385635783","0.0016037820694673932","-0.00205202598247886","-0.03192768269896837","0.36653820296142586","0.5168064437088112"
"-0.005633608841864107","-0.0813387187068244","-0.03388334493640812","-0.0005225609202510703","0.0018724329488100785","-0.0012461940355689453","-0.03192768269896837","0.37643551513866336","0.5169929617186513"
"-0.005633608841864107","-0.07941668045814536","-0.035408096698677914","-0.0015951322976067346","0.0007082791383251092","-0.0016491100090239026","-0.03192768269896837","0.3714868590500446","0.5169929617186513"
"-0.005633608841864107","-0.07941668045814536","-0.03388334493640812","-0.0013619646068772423","0.003036586759295048","-0.00205202598247886","-0.02919614272254612","0.3715770395710217","0.5168530732112714"
"-0.005633608841864107","-0.07941668045814536","-0.03235859317413832","-0.000289393229521578","0.0023201844143812206","-0.00205202598247886","-0.03192768269896837","0.36653820296142586","0.5205554557065929"
"-0.005633608841864107","-0.0813387187068244","-0.03235859317413832","-0.0015951322976067346","0.0023201844143812206","-0.0012461940355689453","-0.03192768269896837","0.37643551513866336","0.5209191658257806"
"-0.005633608841864107","-0.0813387187068244","-0.03387317992465965","-0.0024345359842329064","0.0023201844143812206","-0.0004403620886590308","-0.03192768269896837","0.36653820296142586","0.5244909857142143"
"-0.005633608841864107","-0.07941668045814536","-0.03388334493640812","-0.004579678738944235","0.003036586759295048","-0.0004403620886590308","-0.02919614272254612","0.3765256956596407","0.5170395912211112"
"-0.005633608841864107","-0.07749464220946634","-0.031616547316500355","-0.003973442743047555","0.003036586759295048","-0.0004403620886590308","-0.02919614272254612","0.3715770395710217","0.5168530732112714"
"-0.004843988378474137","-0.07749464220946634","-0.03235859317413832","-0.000709095072834664","0.0023201844143812206","-0.00205202598247886","-0.03192768269896837","0.37643551513866336","0.5170395912211112"
"-0.005633608841864107","-0.07749464220946634","-0.033903674959905046","0.00246198552108643","0.001961983241924307","-0.00205202598247886","-0.03192768269896837","0.3666283834824028","0.5207419737164328"
"-0.005633608841864107","-0.07845566133380584","-0.03618063759156128","0.0031614885932749067","0.001961983241924307","-0.0039054394603716637","-0.026464602746123826","0.3766158761806176","0.5208352327213528"
"-0.005633608841864107","-0.07941668045814536","-0.035408096698677914","0.0033480227458585004","0.0023201844143812206","-0.0046306882125905875","-0.03192768269896837","0.3666283834824028","0.5206020852090529"
"-0.005633608841864107","-0.07941668045814536","-0.035408096698677914","0.0016225818344602582","0.001156030603896251","-0.004308355433826621","-0.02919614272254612","0.3667185640033798","0.5245842447191342"
"-0.005633608841864107","-0.08323512977885439","-0.033863014912911195","-0.00010285907693798425","0.0018724329488100785","-0.0026966915400067916","-0.026464602746123826","0.3715770395710217","0.5245842447191342"
"-0.005633608841864107","-0.08323512977885439","-0.03233826315064139","-0.003973442743047555","0.0014246814832389364","-0.00205202598247886","-0.026464602746123826","0.3716672200919987","0.5247614368284822"
"-0.005633608841864107","-0.0813387187068244","-0.03235859317413832","-0.005279181811132711","0.0025888352937239057","-0.0008432780621139879","-0.03192768269896837","0.37643551513866336","0.5209657953282407"
"-0.005633608841864107","-0.07845566133380584","-0.03236875818588679","-0.003786908590463961","0.0018724329488100785","-0.0012461940355689453","-0.02919614272254612","0.3765256956596407","0.52489199943537"
"-0.00405436791508413","-0.07941668045814536","-0.03233826315064139","-0.0013619646068772423","0.0026783855868381342","-0.0023743587612428257","-0.026464602746123826","0.3765256956596407","0.52489199943537"
"-0.005633608841864107","-0.0813387187068244","-0.03235859317413832","0.0005500104571045938","0.0031261370524092763","-0.0023743587612428257","-0.02919614272254612","0.3715770395710217","0.5207886032188928"
"-0.005633608841864107","-0.08515716802753341","-0.03234842816238986","-0.0009422627635641563","0.0026783855868381342","-0.0012461940355689453","-0.026464602746123826","0.3716672200919987","0.5245376152166743"
"-0.007212849768644122","-0.08323512977885439","-0.034645720817543024","-0.003553740899734469","0.004648492035351159","-0.0008432780621139879","-0.026464602746123826","0.3766158761806176","0.5170862207235711"
"-0.005633608841864107","-0.07845566133380584","-0.03465588582929148","-0.004206610433777047","0.005364894380264986","-0.0026966915400067916","-0.026464602746123826","0.3766158761806176","0.5170862207235711"
"-0.005633608841864107","-0.07845566133380584","-0.033131134067021686","-0.003553740899734469","0.004290290862894245","-0.0012461940355689453","-0.026464602746123826","0.3766158761806176","0.5247614368284822"
"-0.00405436791508413","-0.0813387187068244","-0.033863014912911195","-0.003973442743047555","0.002230634121266992","-0.0004403620886590308","-0.026464602746123826","0.3766158761806176","0.5170862207235711"
"-0.007212849768644122","-0.08131309153017535","-0.03542842672217484","-0.005046014120403219","0.0026783855868381342","0.0010101354157788156","-0.026464602746123826","0.3766158761806176","0.5170862207235711"
"-0.005633608841864107","-0.08037769958248488","-0.036932848460947715","-0.0005225609202510703","0.0026783855868381342","-0.00205202598247886","-0.026464602746123826","0.3766158761806176","0.52493862893783"
"-0.005633608841864107","-0.07749464220946634","-0.03542842672217484","0.0022754513685028363","0.001156030603896251","-0.0026966915400067916","-0.026464602746123826","0.3766158761806176","0.5170862207235711"
"-0.005633608841864107","-0.07941668045814536","-0.035408096698677914","0.0026951532118159216","0.0016037820694673932","-0.00205202598247886","-0.026464602746123826","0.3766158761806176","0.52493862893783"
"-0.005633608841864107","-0.08228692424283938","-0.03234842816238986","0.0010163458385635783","0.0007082791383251092","-0.00205202598247886","-0.02919614272254612","0.37643551513866336","0.5248453699329101"
"-0.005633608841864107","-0.0813387187068244","-0.03617047257981282","-0.0005225609202510703","0.00035007796586819577","-0.0016491100090239026","-0.026464602746123826","0.3766158761806176","0.5171328502260312"
"-0.007212849768644122","-0.08131309153017535","-0.03465588582929148","-0.0007557286109805625","0.0010664803107820228","-0.0012461940355689453","-0.026464602746123826","0.3766158761806176","0.52493862893783"
"-0.005633608841864107","-0.08228692424283938","-0.03387317992465965","-0.0007557286109805625","0.0014246814832389364","-0.00205202598247886","-0.026464602746123826","0.3766158761806176","0.52493862893783"
"-0.005633608841864107","-0.0813387187068244","-0.03235859317413832","-0.0015951322976067346","0.0014246814832389364","-0.0004403620886590308","-0.026464602746123826","0.3766158761806176","0.52493862893783"
"-0.005633608841864107","-0.08132590511849987","-0.034645720817543024","-0.0024345359842329064","0.0018724329488100785","-0.0004403620886590308","-0.026464602746123826","0.3766158761806176","0.52493862893783"
"-0.007212849768644122","-0.08131309153017535","-0.03542842672217484","-0.0020614676790657186","0.0023201844143812206","-0.0004403620886590308","-0.026464602746123826","0.3766158761806176","0.52493862893783"
"-0.005633608841864107","-0.0813387187068244","-0.034645720817543024","-0.0018282999883362265","0.0023201844143812206","-0.0012461940355689453","-0.026464602746123826","0.3765256956596407","0.52489199943537"
"-0.005633608841864107","-0.0813387187068244","-0.03388334493640812","-0.0024345359842329064","0.0023201844143812206","-0.0012461940355689453","-0.026464602746123826","0.3766158761806176","0.52493862893783"
"-0.005633608841864107","-0.0813387187068244","-0.03388334493640812","-0.0033205732090049764","0.0018724329488100785","0.00020430346886890117","-0.026464602746123826","0.3766158761806176","0.52493862893783"
"-0.005633608841864107","-0.07941668045814536","-0.035408096698677914","-0.0033672067471508756","0.0018724329488100785","-0.0004403620886590308","-0.026464602746123826","0.38157580483435855","0.5174406049422668"
"-0.005633608841864107","-0.07941668045814536","-0.03388334493640812","-0.0013619646068772423","0.0014246814832389364","-0.0004403620886590308","-0.026464602746123826","0.3766158761806176","0.5210124248307004"
"-0.005633608841864107","-0.0813387187068244","-0.03388334493640812","8.367507564560935e-05","0.0010664803107820228","-0.0012461940355689453","-0.026464602746123826","0.3767060567015947","0.5211896169400485"
"-0.005633608841864107","-0.08228692424283938","-0.03539793168692945","-0.0005225609202510703","0.0018724329488100785","-0.0012461940355689453","-0.026464602746123826","0.3766158761806176","0.5210124248307004"
"-0.005633608841864107","-0.0813387187068244","-0.035408096698677914","-0.0020614676790657186","0.0010664803107820228","-0.0012461940355689453","-0.026464602746123826","0.3766158761806176","0.52493862893783"
"-0.005633608841864107","-0.08228692424283938","-0.034635555805794555","-0.0015951322976067346","0.0014246814832389364","-0.00011802930989506468","-0.026464602746123826","0.3766158761806176","0.5210590543331607"
"-0.005633608841864107","-0.08037769958248488","-0.035408096698677914","-0.0024345359842329064","0.0014246814832389364","-0.0012461940355689453","-0.026464602746123826","0.38157580483435855","0.52512514694767"
"-0.005633608841864107","-0.07941668045814536","-0.03388334493640812","-0.0020614676790657186","0.0014246814832389364","-0.0012461940355689453","-0.026464602746123826","0.3766158761806176","0.52493862893783"
"-0.005633608841864107","-0.0813387187068244","-0.03388334493640812","-0.00112879691614775","0.0014246814832389364","-0.0008432780621139879","-0.026464602746123826","0.3766158761806176","0.52493862893783"
"-0.007212849768644122","-0.08131309153017535","-0.03542842672217484","-0.000289393229521578","0.0007082791383251092","-0.0012461940355689453","-0.026464602746123826","0.3766158761806176","0.52493862893783"
"-0.007212849768644122","-0.08132590511849987","-0.035418261710426384","-0.0009422627635641563","0.0014246814832389364","-0.0012461940355689453","-0.026464602746123826","0.3766158761806176","0.52493862893783"
"-0.005633608841864107","-0.07941668045814536","-0.03388334493640812","-0.0015951322976067346","0.0014246814832389364","-0.0023743587612428257","-0.026464602746123826","0.38157580483435855","0.52512514694767"
"-0.005633608841864107","-0.07941668045814536","-0.03388334493640812","-0.000289393229521578","0.0014246814832389364","-0.0016491100090239026","-0.026464602746123826","0.3766158761806176","0.5210124248307004"
"-0.005633608841864107","-0.08228692424283938","-0.03387317992465965","-0.0013619646068772423","0.0010664803107820228","-0.0012461940355689453","-0.023740139298137893","0.3767060567015947","0.524994584340782"
"-0.005633608841864107","-0.08037769958248488","-0.034645720817543024","-0.0011754304542936486","0.0014246814832389364","-0.0012461940355689453","-0.026464602746123826","0.38157580483435855","0.52512514694767"
"-0.005633608841864107","-0.08228692424283938","-0.03387317992465965","-0.0007557286109805625","0.0014246814832389364","-0.0008432780621139879","-0.023740139298137893","0.3767060567015947","0.52493862893783"
"-0.005633608841864107","-0.08228692424283938","-0.03539793168692945","-0.0015951322976067346","0.0010664803107820228","-0.0012461940355689453","-0.023740139298137893","0.3766158761806176","0.5248080663309421"
"-0.005633608841864107","-0.0813387187068244","-0.035408096698677914","-0.0009422627635641563","0.0023201844143812206","-0.00205202598247886","-0.023740139298137893","0.3767060567015947","0.524994584340782"
"-0.005633608841864107","-0.0813387187068244","-0.035408096698677914","-0.0013619646068772423","0.0014246814832389364","-0.0008432780621139879","-0.026464602746123826","0.3766158761806176","0.52493862893783"
"-0.0064232293052541144","-0.08323512977885439","-0.03539793168692945","-0.0026677036749623985","0.0018724329488100785","-0.0004403620886590308","-0.026464602746123826","0.3766158761806176","0.52493862893783"
"-0.005633608841864107","-0.0813387187068244","-0.035408096698677914","-0.003553740899734469","0.0018724329488100785","-0.0004403620886590308","-0.026464602746123826","0.3766158761806176","0.52493862893783"
"-0.005633608841864107","-0.07941668045814536","-0.03539793168692945","-0.0033205732090049764","0.0014246814832389364","-0.0004403620886590308","-0.026464602746123826","0.3766158761806176","0.5210124248307004"
"-0.005633608841864107","-0.0813387187068244","-0.03388334493640812","-0.0015951322976067346","0.0014246814832389364","-0.0008432780621139879","-0.023740139298137893","0.3767060567015947","0.524994584340782"
"-0.005633608841864107","-0.08037769958248488","-0.03388334493640812","-0.0013619646068772423","0.0023201844143812206","-0.0008432780621139879","-0.026464602746123826","0.3766158761806176","0.5211896169400485"
"-0.0064232293052541144","-0.08132590511849987","-0.03465588582929148","-0.00201483414091982","0.0014246814832389364","-0.00011802930989506468","-0.026464602746123826","0.3766158761806176","0.5210124248307004"
"-0.005633608841864107","-0.08036488599416036","-0.035408096698677914","-0.0018282999883362265","0.0014246814832389364","-0.0012461940355689453","-0.026464602746123826","0.3767060567015947","0.5248173922314341"
"-0.005633608841864107","-0.07941668045814536","-0.035408096698677914","-0.00112879691614775","0.0014246814832389364","-0.0012461940355689453","-0.026464602746123826","0.3766158761806176","0.52493862893783"
"-0.005633608841864107","-0.08323512977885439","-0.033863014912911195","-0.0015951322976067346","0.0010664803107820228","-0.0012461940355689453","-0.023740139298137893","0.3816659853553356","0.5251811023506219"
"-0.005633608841864107","-0.0813387187068244","-0.035408096698677914","-0.0026677036749623985","0.0023201844143812206","-0.00205202598247886","-0.023740139298137893","0.3767060567015947","0.524994584340782"
"-0.005633608841864107","-0.07941668045814536","-0.035408096698677914","-0.0005225609202510703","0.0007082791383251092","-0.0016491100090239026","-0.026464602746123826","0.38157580483435855","0.52512514694767"
"-0.005633608841864107","-0.08037769958248488","-0.03388334493640812","8.367507564560935e-05","0.0007082791383251092","-0.0012461940355689453","-0.023740139298137893","0.3767060567015947","0.524994584340782"
"-0.005633608841864107","-0.08323512977885439","-0.033863014912911195","-0.0005225609202510703","0.0010664803107820228","-0.00205202598247886","-0.023740139298137893","0.3767060567015947","0.52493862893783"
"-0.005633608841864107","-0.08323512977885439","-0.034625390794046085","-0.0022480018316493127","0.0010664803107820228","-0.0008432780621139879","-0.026464602746123826","0.38157580483435855","0.52512514694767"
"-0.005633608841864107","-0.0813387187068244","-0.035408096698677914","-0.0029008713656918906","0.0014246814832389364","-0.0004403620886590308","-0.026464602746123826","0.3766158761806176","0.52493862893783"
"-0.0064232293052541144","-0.08036488599416036","-0.035418261710426384","-0.0022480018316493127","0.0010664803107820228","-0.0004403620886590308","-0.023740139298137893","0.3767060567015947","0.5210590543331607"
"-0.005633608841864107","-0.0813387187068244","-0.034645720817543024","-0.0018282999883362265","0.0010664803107820228","-0.0004403620886590308","-0.026464602746123826","0.3766158761806176","0.5211429874375885"
"-0.005633608841864107","-0.0813387187068244","-0.034635555805794555","-0.0018282999883362265","0.0014246814832389364","-0.0004403620886590308","-0.023740139298137893","0.3767962372225719","0.5211896169400485"
"-0.005633608841864107","-0.0813387187068244","-0.035408096698677914","-0.0024345359842329064","0.0014246814832389364","-0.00011802930989506468","-0.026464602746123826","0.3766158761806176","0.52493862893783"
"-0.007212849768644122","-0.08131309153017535","-0.03542842672217484","-0.0020614676790657186","0.0018724329488100785","0.00020430346886890117","-0.026464602746123826","0.3766158761806176","0.52493862893783"
"-0.005633608841864107","-0.08037769958248488","-0.035408096698677914","-0.0026677036749623985","0.0014246814832389364","-0.0008432780621139879","-0.026464602746123826","0.3767060567015947","0.5171328502260312"
"-0.005633608841864107","-0.07941668045814536","-0.034645720817543024","-0.0026677036749623985","0.0018724329488100785","-0.0012461940355689453","-0.026464602746123826","0.3766158761806176","0.52493862893783"
"-0.005633608841864107","-0.08037769958248488","-0.03388334493640812","-0.0018282999883362265","0.0010664803107820228","-0.0012461940355689453","-0.026464602746123826","0.3766158761806176","0.5172634128329191"
"-0.005633608841864107","-0.0813387187068244","-0.03388334493640812","-0.0018282999883362265","0.0023201844143812206","-0.00205202598247886","-0.026464602746123826","0.3767060567015947","0.524994584340782"
"-0.005633608841864107","-0.0813387187068244","-0.03388334493640812","-0.0009422627635641563","0.0023201844143812206","-0.00205202598247886","-0.026464602746123826","0.3766158761806176","0.52493862893783"
"-0.005633608841864107","-0.07941668045814536","-0.03388334493640812","-0.00010285907693798425","0.0014246814832389364","-0.0012461940355689453","-0.023740139298137893","0.3767060567015947","0.524994584340782"
"-0.005633608841864107","-0.0813387187068244","-0.03388334493640812","-0.0009422627635641563","0.0026783855868381342","-0.0012461940355689453","-0.026464602746123826","0.38157580483435855","0.52493862893783"
"-0.005633608841864107","-0.0813387187068244","-0.035408096698677914","-0.0020614676790657186","0.0007082791383251092","-0.0012461940355689453","-0.026464602746123826","0.38157580483435855","0.52512514694767"
"-0.007212849768644122","-0.07941668045814536","-0.03542842672217484","-0.0020614676790657186","0.0010664803107820228","-0.0004403620886590308","-0.026464602746123826","0.3766158761806176","0.5210124248307004"
"-0.005633608841864107","-0.08037769958248488","-0.035408096698677914","-0.00010285907693798425","0.0023201844143812206","-0.00205202598247886","-0.026464602746123826","0.3766158761806176","0.52493862893783"
"-0.005633608841864107","-0.0813387187068244","-0.035408096698677914","-0.00010285907693798425","0.0014246814832389364","-0.0012461940355689453","-0.026464602746123826","0.3766158761806176","0.52493862893783"
"-0.005633608841864107","-0.0813387187068244","-0.035408096698677914","-0.0005225609202510703","0.0014246814832389364","-0.00205202598247886","-0.026464602746123826","0.3766158761806176","0.5210590543331607"
"-0.0064232293052541144","-0.08132590511849987","-0.035418261710426384","-0.00010285907693798425","0.001514231776353165","-0.0016491100090239026","-0.02101567585015196","0.38175616587631267","0.5252277318530818"
"-0.007212849768644122","-0.08323512977885439","-0.035408096698677914","-0.0005225609202510703","0.00026052767275396726","-0.0008432780621139879","-0.026464602746123826","0.3767060567015947","0.52512514694767"
"-0.005633608841864107","-0.0813387187068244","-0.035408096698677914","-0.0020614676790657186","0.0023201844143812206","-0.0012461940355689453","-0.02101567585015196","0.3767962372225719","0.5211150097361127"
"-0.005633608841864107","-0.0813387187068244","-0.03388334493640812","-0.0020614676790657186","0.0010664803107820228","-0.0004403620886590308","-0.026464602746123826","0.3766158761806176","0.52493862893783"
"-0.005633608841864107","-0.08037769958248488","-0.03388334493640812","-0.0020614676790657186","0.0014246814832389364","-0.0004403620886590308","-0.026464602746123826","0.3767060567015947","0.524994584340782"
"-0.0064232293052541144","-0.08036488599416036","-0.035418261710426384","-0.0013619646068772423","0.0010664803107820228","-0.0004403620886590308","-0.02101567585015196","0.3767962372225719","0.524994584340782"
"-0.007212849768644122","-0.08131309153017535","-0.035418261710426384","-0.0013619646068772423","0.0018724329488100785","-0.0012461940355689453","-0.02101567585015196","0.3767060567015947","0.524994584340782"
"-0.005633608841864107","-0.08228692424283938","-0.03539793168692945","-0.00112879691614775","0.0014246814832389364","-0.0016491100090239026","-0.026464602746123826","0.3766158761806176","0.52493862893783"
"-0.005633608841864107","-0.0813387187068244","-0.035408096698677914","-0.0018282999883362265","0.0010664803107820228","-0.0004403620886590308","-0.02101567585015196","0.371847581133953","0.524864021733894"
"-0.007212849768644122","-0.08227411065451486","-0.035418261710426384","-0.0024345359842329064","0.0010664803107820228","-0.00011802930989506468","-0.023740139298137893","0.3767060567015947","0.524994584340782"
"-0.0064232293052541144","-0.08132590511849987","-0.035418261710426384","-0.003786908590463961","0.0014246814832389364","0.00020430346886890117","-0.026464602746123826","0.3767060567015947","0.524994584340782"
"-0.005633608841864107","-0.0813387187068244","-0.035408096698677914","-0.004206610433777047","0.0018724329488100785","-0.00011802930989506468","-0.026464602746123826","0.3766158761806176","0.52493862893783"
"-0.005633608841864107","-0.07941668045814536","-0.034645720817543024","-0.0022480018316493127","0.0007082791383251092","0.00020430346886890117","-0.026464602746123826","0.3766158761806176","0.52493862893783"
