"AccX","AccY","AccZ","GyroX","GyroY","GyroZ","MagX","MagY","MagZ"
"0.003016948475908341","0.02866418982506066","0.02938104765035758","0.027375477928797184","-0.13799838990171573","0.3743494070298992","0.793250415798553","-0.2125048247099047","-0.9199791038877482"
"0.024522481100627543","0.00854828462104743","0.006953028694429167","0.00836579453813489","-0.2115372285127393","0.3585018570993533","0.7319221361722209","-0.2651369602611945","-0.8968040962750848"
"0.05484455035878844","-0.002830345229948018","-0.0033372967519283677","0.04807170606774069","-0.1813003135190311","0.32714652094274466","0.6762502130947963","-0.32193138150403255","-0.8715207840206491"
"0.0527812285278978","0.004358160918356794","-0.017698440744289064","0.1060677419373949","-0.11027683011288231","0.2972715837842422","0.6331448752565701","-0.39533536751916637","-0.8394059109889969"
"0.020030928911591233","0.04113087616141991","-0.010821151028805062","0.07910208840696423","-0.06596972173243908","0.28067169993662583","0.6072315176679791","-0.468106105631941","-0.7919935717193665"
"-0.0029688993181407005","0.06805858625838518","-0.007531823902723564","-0.05447171651713217","-0.14235419054193646","0.29224793472509514","0.5447886850270841","-0.5309691526057212","-0.789443994013037"
"-0.008543623256944619","0.06713101161262873","0.01469855042084094","-0.05102988669917044","-0.17030311355100122","0.2941894416078573","0.49560903325948913","-0.577592029416915","-0.7876625583079733"
"-0.010267069863241496","0.055244968307599666","0.03216087706688655","-0.055758912731569875","-0.16031349164315434","0.377747044074733","0.4214633939656818","-0.6346239186231378","-0.7899669843117713"
"0.008471319998071405","0.03241499838701644","0.03549625931628795","-0.022777036954302044","-0.1475931177954767","0.37129153368954887","0.34085334718740873","-0.706207316918989","-0.7980079601548108"
"0.02039680025817939","0.03133473228221611","0.0177278622991208","-0.03718265921057091","-0.11739449555464959","0.320715279393595","0.249766502072243","-0.7681468773684953","-0.8085004530231674"
"0.01951774620703467","0.0346794023374633","0.0179926276269061","-0.055197629715102274","-0.05502278100256563","0.23059052989577636","0.13441026506496673","-0.814875295496749","-0.8450607435940614"
"-0.004364987351174491","0.06466405776753181","0.010700077658241207","-0.11207206230142072","-0.09291345997837597","0.18550145942722907","0.0759240956257705","-0.8317750988909595","-0.880150123949765"
"0.04016925808327044","-0.028786231319556366","0.010187358155308456","-0.1471642852006388","-0.05172960425479434","0.0765173974469796","0.009636055084632812","-0.8166035345636043","-0.9350967922105361"
"-0.018123675621555823","0.03767921821310115","0.07137381995814623","0.09124043535657578","0.10239154620031293","-0.07334751883343026","0.027106673587908397","-0.8162869106124248","-0.9268760384523064"
"0.0041723316756604395","0.04023757919014271","0.0855001447791404","0.09139062429408684","0.09070746997747905","-0.15458987434261212","0.0714937473928824","-0.822962398916461","-0.878581153053562"
"0.040477360269871","0.029615654971211724","0.023865585213669417","0.08898086204671392","0.09143263898516417","-0.27911327203576913","0.09166715695647348","-0.7911680771521776","-0.8729590073421686"
"0.022988709902956622","0.05816688037760288","0.00693444142492786","0.058982547278079195","0.14183308166780625","-0.35463788977521654","0.17812860706120254","-0.7482787244319764","-0.8494244438991255"
"0.012081892497296735","0.05436829081485786","0.013290874543941872","0.03770385563148062","0.17214179557316645","-0.38548358037510005","0.25171696984772846","-0.7037270959680823","-0.8277530333953236"
"0.04028383358391252","0.050841845213129844","0.006301235110583297","0.0289178027870838","0.20364237141194966","-0.37398015209473434","0.35015986485901057","-0.6420118108173282","-0.8224250697269679"
"0.034733180128436784","0.07351912367466917","0.028791418156732754","-0.021396454028719637","0.1756862685117197","-0.32823339616965136","0.4375129573753901","-0.5820907280565917","-0.8227682821105124"
"0.03817814770236431","0.051813045990041676","0.05873860720159034","-0.08093096375826275","0.12552276223752915","-0.27557002197472824","0.5127731496837601","-0.4974465917745826","-0.8630548785598879"
"0.023003152192953524","0.03154247576390848","0.0351947324999334","-0.007350900122637541","0.16318129139899806","-0.23983901468109442","0.5937732900171303","-0.4261930100945434","-0.8661928203522937"
"-0.005096730044350813","0.03554361522130356","0.0014340553290574257","0.02967452397223566","0.09008999933727194","-0.21826887321360697","0.6445133160051135","-0.3867865208373175","-0.8599659671079887"
"0.0031218957832191523","0.028123018055252032","-0.009352343687768353","0.022422131239730598","0.039033793261541654","-0.20155007206942147","0.6954205249452808","-0.3342401376061389","-0.8673041747371041"
"0.012492053533208735","0.021640382709041565","-0.01947249235558058","0.014173292671815637","0.057478933664937955","-0.20253538681242328","0.7414794282720992","-0.2879338847461246","-0.8807875183763473"
"0.003926812745713125","0.03719102103112407","-0.02266330695330514","0.026842114650713046","0.026174608184670194","-0.16969722477410507","0.775529022867001","-0.25340868140291734","-0.8949899736763504"
"0.006777720791101439","0.017218562701219423","-0.0029729862697027267","0.028180336593920535","-0.020844105759163182","-0.1778248579620681","0.7931110966717326","-0.22650883821728507","-0.9008082407497694"
"-0.00528929391097616","0.01404341132703321","0.0005428990190780428","0.04928188231422402","-0.09956203919735028","-0.18994471467771076","0.7869810550916359","-0.21375285078413755","-0.9222835298915462"
"-0.011239517389699527","-0.010538043887698405","-0.029102763209425","-0.017704309314906158","0.03634372737164708","-0.22895686860321257","0.7916621777528011","-0.1846854527993884","-0.9297688285421805"
"-0.012183080336163754","0.002653251712803835","-0.043117564413411316","-0.0466484132721652","0.09058301853061561","-0.2336601690267039","0.8053154521811986","-0.15855078416244014","-0.9208779934636976"
"-0.10163862457697054","0.06296679352210513","0.10165454722794397","-0.03629115308149886","0.0625168239658526","-0.10835046104602823","0.8127272297280429","-0.14977238511598615","-0.9206982155485076"
"-0.051177263327797325","0.045393772405747386","0.002836155025106101","0.029360667602821532","-0.09926048376841193","-0.03257344741182179","0.8085197920980672","-0.13720373352061987","-0.9421244743497781"
"-0.03742820325074727","0.029312349487940863","0.00966173082633313","0.005323024429136846","-0.0369127021868786","0.10440229005065088","0.8062070945928487","-0.13501507045809097","-0.9576670922902877"
"-0.012914823029340076","0.005681943932396928","-0.04005686070219591","0.024455458393726443","-0.013274825163104858","0.12604038425903497","0.8036714864847181","-0.1487921701337927","-0.9619817622548456"
"-0.009102058470158134","0.07972130532059493","-0.04656033977548694","-0.07695962166061461","0.14759614097640603","0.19924490127358158","0.8241513981273142","-0.15313915313019574","-0.9240159352561034"
"-0.008351059390319271","0.03334049559795595","0.042673010595959696","-0.03873557431445125","-0.06899724250709802","0.3217588393430797","0.8117798596656639","-0.18918810923845472","-0.8754758981548274"
"0.01824201059064171","0.0037971080973502047","0.03086596395829542","-0.0157672571208533","-0.1797757832949538","0.3585018570993533","0.7729098232827774","-0.23934530090469078","-0.849113918409252"
"0.04502475598022866","-0.005250141304700767","0.01607917149435477","0.028697333128814364","-0.19881924796211672","0.3069063116899493","0.7328695062345999","-0.2924853540443311","-0.8298776814839316"
"0.05132833415420953","-0.003168032259438968","0.0019352920299427014","0.11443403595644032","-0.15536176003622204","0.2945777429844097","0.6885381600803541","-0.3613378707612584","-0.8128478098813964"
"0.022268521041777813","0.04097091368051678","-0.004371161986634461","0.11145913969420206","-0.09726686732154165","0.29608241081855036","0.6534297401216179","-0.43709015108097415","-0.7774805909294902"
"-0.0038546931046173206","0.10596450064538385","0.006604001078237937","0.017916463114398897","-0.1627402948569916","0.34903701104588786","0.5831850363787812","-0.5189506351255294","-0.7740321236472109"
"-0.033249567344977145","0.059688601380999504","0.021243128012251526","-0.07658896306483412","-0.18229831839099375","0.39002707510820356","0.5122437370018429","-0.5834099945198399","-0.7727900216877169"
"0.011629367410727155","0.02657532911664386","0.0032593251940858828","-0.049445200858508905","-0.24574462332080246","0.355541059103141","0.4366491787891036","-0.6393073145676692","-0.778575601867465"
"0.026124612470950458","0.02038768951443656","0.011490181179698479","-0.008111568581147066","-0.12112325236644295","0.35767671667417933","0.3519988773330393","-0.7106136669062382","-0.7895093678003786"
"0.017174243950204147","0.0418527847603009","0.010748094771119586","-0.007345508724880733","-0.0786900955801167","0.3161284693830695","0.28083466735318846","-0.7769991553368912","-0.7809780885522758"
"0.010755127456248063","0.058207390356532884","0.00020894774370453994","-0.08478773865357875","-0.089775847539184","0.26086832973245194","0.16670443866193124","-0.8222499950263069","-0.8269685479472221"
"0.013798599368261742","0.05369831808639995","0.0018993566422401732","-0.1678826565803692","-0.06470845418441912","0.23315817274822934","0.10102940227880323","-0.8348094117564304","-0.8803135584181194"
"0.0535081571244085","-0.03697547936786967","0.0047366000690065154","-0.1337050458006095","0.01125838428896921","0.0726295299142484","0.06252159562564981","-0.8218542150873325","-0.9295400202864842"
"-0.02176313270077496","0.041747874302046246","0.05555811886469984","0.1371741814949734","0.20002370626468932","-0.08955182065368379","0.12142572244530714","-0.8262473724099492","-0.8926692042257168"
"-0.01925017424131412","0.06399096888684853","0.07886035906283978","0.06936291345913184","0.17532727395345973","-0.159006802500896","0.1974939656892357","-0.8333318333175923","-0.8209214726181069"
"0.02713653559006668","0.013913675522716322","0.05431483706027901","0.02655810351888124","0.11286222081622818","-0.2841611899309507","0.24296772868340835","-0.7875928650367748","-0.8211012505332969"
"0.02237924526508739","0.025165789593361118","0.02836370443298598","0.03976028877586278","0.12041785961907266","-0.344663398165026","0.3243300987465115","-0.7355873810555279","-0.800312386158609"
"-0.007638573083805457","0.05508812197892192","0.0009724714697749411","0.04837786044035939","0.17509751743617338","-0.35077914484572675","0.39582867463073157","-0.6872626505067438","-0.768181169680121"
"0.02882243224237163","0.04329556324065443","0.014966000576443097","0.028786868841561345","0.16377482906865448","-0.3417268690048482","0.47025295217817964","-0.6186212164239363","-0.7620360336699933"
"0.04319539924728783","0.06234875666407033","0.022982070336707242","0.013402130242672327","0.14556183847959964","-0.3126528034354852","0.5343397505155554","-0.5518135627250438","-0.7722670313889827"
"0.03298951431614422","0.048416440064371395","0.033418615636475066","-0.014274995241737032","0.12263165939500902","-0.2588973316190083","0.5899002182915236","-0.4711799964913095","-0.810085767366206"
"0.024345322343332223","0.04761247279022192","0.024687142525627242","0.028193815088312556","0.11246972009919731","-0.24095295425507918","0.6516464552983171","-0.4072087656884008","-0.8289624484611465"
"0.017671058726097557","0.05062683070957823","-0.014966112127596768","0.011498774284599512","0.0713002241579461","-0.2284011122580219","0.6924390956313249","-0.3652692848217382","-0.8481496550459607"
"-0.0002970756687139567","0.048444485434399866","-0.013875658983520027","0.009353479352189973","0.10966238265360449","-0.2139902774207199","0.7505630353407883","-0.31689178361442416","-0.8533632145864681"
"0.021398132364631218","0.024148885250476954","-0.011804211060207577","-0.0022412028986235496","0.07047932326805832","-0.17628621375747908","0.7969841683973395","-0.2724061184736924","-0.8625155448143181"
"-0.0027570790648528123","0.02496012354648567","-0.00215493988642849","0.021953272184808262","0.020131533120627675","-0.18945691107341678","0.8231204365888434","-0.23988620015462256","-0.8868345937054625"
"0.00415403810833104","0.02219194165293481","-0.0052600465192303505","0.046362825528752705","-0.07903233705899118","-0.16918757921738","0.8327334563394496","-0.2203478638339157","-0.9111209557029362"
"-0.001775003345063519","0.016353311099970694","-0.05694855817455136","0.04579480326508909","-0.027831097181723864","-0.22776769563752075","0.8174362162145716","-0.21026207172238262","-0.9380059257472456"
"-0.008620648803594751","0.0028850622768502687","-0.0008102542006171884","-0.05258761555104794","0.1122710764436268","-0.20562238275601508","0.8461359563395703","-0.18641237259978036","-0.9239669049155969"
"-0.06844061397076005","0.08633897392990544","0.054694843458972416","0.0021491278246964563","0.13061809166776542","-0.13304885547836615","0.8700431185019476","-0.17686484120525264","-0.9022628075181242"
"-0.06770887127758371","0.08238146060366576","0.048691155410049904","0.009294559076704867","-0.06946872202694608","0.005565513793157753","0.8705168035331372","-0.17053763924751394","-0.8981932892560979"
"-0.04060550705006556","0.02181280979884623","-0.027642629927488904","0.022378807507756254","-0.08372559258397627","0.13488394811001653","0.8632443451131133","-0.1594623972885447","-0.9033578184560991"
"-0.00545297319760772","-0.03204884269953507","-0.09047379659841076","0.012057169052268824","-0.07473397554809204","0.05795901853137695","0.8479749688135997","-0.1651220504158798","-0.9095683282535687"
"-0.007802252370437018","0.04129083864232304","-0.07291295742400822","-0.08141233855797768","0.10358340813373598","-0.03851445847307395","0.8554146101858076","-0.15232648498883478","-0.8962974494231861"
"-0.024343488513554654","0.10979840660001657","0.10210270694814218","-0.12305703523091532","0.07422961975334728","0.15529889298226046","0.8932815488555874","-0.12914697322956267","-0.8289134181206402"
"-0.004249449031199276","-0.013699899679056307","0.04125211710519303","-0.06005662694342472","-0.18743912046527625","0.28559827365163476","0.8524053170464875","-0.15230933452481257","-0.8074054420851926"
"0.03896862237486138","-0.014686681217095075","-0.03188259262595397","0.12781625538851524","-0.1275133555034701","0.26239726640262717","0.8137581912665133","-0.21898901937676996","-0.7964553327054436"
"0.03125258823918356","0.03929961737030165","-0.00939757271022154","0.11272996916544947","-0.06623777100260651","0.28067169993662583","0.7952844750501309","-0.2920499961114592","-0.7584895057067012"
"0.024471451675971825","0.04270661047005654","-0.01341717300248776","0.058790960107792646","-0.11486717386449953","0.26877997027970774","0.7654144542598408","-0.36393682569385755","-0.7234328122446685"
"0.0037159553117583613","0.08203141283701412","-0.010367002077323096","-0.013560635038960081","-0.17290223415280329","0.3250836698798099","0.7299159407460076","-0.42765739586874907","-0.698852268204157"
"-0.00904428931017051","0.047812945250055056","0.009301550848441116","-0.11957188168097926","-0.21221453157932302","0.35420627312124203","0.6522594594563268","-0.5126313487665701","-0.7145092902725149"
"0.0033298647591745428","0.020645291431735102","0.024459551736844557","-0.07464902262198297","-0.2102041620530673","0.3311751477244761","0.5922965072728344","-0.5707582291372889","-0.740070441123153"
"0.0167014996576389","0.023182878060607426","0.030608840063527324","0.01009161947007284","-0.15963618857657055","0.3527744117952049","0.516980587313736","-0.6264576592156309","-0.7527202689737887"
"0.013659953384291487","0.04009735234000036","0.0202140128575291","0.03605562831725672","-0.11082010854438235","0.3304956203155094","0.4450919178744187","-0.7067746014981857","-0.7445812324497364"
"0.00745650842095581","0.056452996653640806","0.009684097507299705","-0.04178267679664673","-0.1581260181348237","0.29809672420941613","0.36247567566993233","-0.7698091531121882","-0.7548449170623966"
"0.013482794626996166","0.05959511681423794","0.009627096547495695","-0.12588751905323908","-0.16133542948566765","0.24409856403259397","0.2541411226544032","-0.8178172597097927","-0.8178815915067138"
"0.022630541111033468","0.01164729800919339","0.008265558404003207","-0.17665330543117513","-0.11541284559305466","0.1842224917682095","0.17419980768486804","-0.8210758478740159","-0.8948755695485022"
"0.05691461192501097","-0.058166353217900084","0.008964357127165718","0.002806589526147101","0.009848732323535132","-0.03193517702411374","0.13585918398389893","-0.8018277501752236","-0.938757724301676"
"-0.026355780919789584","0.037302163793829494","0.045456970516822286","0.17398972617717087","0.16067311608528856","-0.21252686660783793","0.21535467774760872","-0.8032261726262668","-0.8703603992953325"
"-0.03671571694423346","0.0976235998554351","0.05076879908986279","0.11134360974227049","0.11594000082904353","-0.21448293479222078","0.29585326922442534","-0.7998620431449839","-0.7912090862712652"
"0.035470699737611876","0.00529979979782381","0.015030849494480993","0.028616462162462254","0.125300185611408","-0.36485506974575227","0.357683097707311","-0.752619111096063","-0.7771700654396166"
"0.032964481013482934","0.02700120325411322","-0.011157787131995419","0.06910585931608408","0.16687414875496542","-0.4235613841132726","0.4566275415751461","-0.6865766319458546","-0.7462646074737873"
"-0.009313878723446023","0.07399174009551931","0.007838608823558158","0.015556763846196331","0.1758442261173541","-0.34315873033088534","0.5193768762950461","-0.6278428890020417","-0.7247076010978334"
"0.03694381331729581","0.028131327794519725","0.015664881909692282","-0.03189908940889988","0.17057657929915304","-0.34687186224416794","0.5857206444869123","-0.552446810627403","-0.7321275259611262"
"0.03858253182227755","0.05061021123104284","0.0359857240798224","0.03166067639585945","0.18850716083571012","-0.32155946626015647","0.6531511018679769","-0.48774998326970775","-0.7287444324661886"
"0.0224986348623951","0.04763532457320808","0.04707612821560291","-0.03850740265938638","0.114803184727887","-0.27091040545609907","0.7083214760888483","-0.41511117180325796","-0.7377496716725196"
"0.01849234361725468","0.03939725680669706","0.029411200331993036","-0.009654759914073174","0.0755866191835699","-0.23054647736347406","0.7513710862763465","-0.3480396648117158","-0.7518050359510037"
"0.017343700152834454","0.0334454060562106","0.004891493981517416","0.021891656210444747","0.062442631757145546","-0.20197963046723263","0.7735228274407873","-0.29871229175086295","-0.7751925083725277"
"0.005926588500617387","0.03805315648014741","-0.024123440235241232","0.019453974224688367","0.05479604766620859","-0.17460681030388986","0.8063185498943054","-0.25690473753052523","-0.7825797463421494"
"0.0018721562888206296","0.019749917025640978","0.002704598462080176","-0.006051669538206957","0.04504336216681323","-0.15462142382945704","0.8344331496866583","-0.21287026152022448","-0.7840833434510104"
"-0.008601392416932209","0.0019268766290664564","0.010349418492838193","0.027917505953276186","-0.0063608293007237","-0.18417358546870027","0.8437675311836238","-0.17663133104125772","-0.8045616823358249"
"-0.008456969516963207","0.00567997036932085","-0.0330391338393687","0.06008874656782409","-0.10253690743679773","-0.16579722282335663","0.8328449116409057","-0.1580956372326195","-0.8418901149079847"
"-0.006617984590691115","0.010854652754796147","-0.04505890145021461","-0.021344465550350425","0.1348781604257835","-0.20908554565814205","0.8328170478155414","-0.13999398209038996","-0.8561252571016585"
"-0.03460714260468585","0.03157779215579618","-0.027869807665838225","-0.04289465258398821","0.10117575129633925","-0.20298436027906203","0.8596220478157831","-0.11614296370132446","-0.847283452363682"
"-0.08188157186120953","0.04285203090724122","0.07187567623468155","-0.02324878425802267","0.014989773727523146","-0.1263482298492333","0.8738883264021906","-0.10084079199410777","-0.839634719244693"
"-0.037293408544109515","0.01865199272489679","-0.03647984394927751","0.04553582362284246","-0.07343680854424607","-0.07642480724260824","0.857699443865662","-0.09789486998167438","-0.8770448690510302"
"-0.015918819348695545","0.006539716768304732","-0.012444439231919303","0.017282973877974055","-0.037324349280350014","-0.012848950924760138","0.8496746621608077","-0.10105451316115398","-0.8998276339396425"
"-0.007263073543886008","0.012000046441107038","-0.0353274332401964","-0.026249674759445514","-0.006976145973581258","-0.031481349790268086","0.8432102546763423","-0.09552678668014374","-0.9292621816902817"
"-0.0016016958651006966","0.018012142801284284","-0.02998256063248691","-0.09137775966167606","0.04372226219241662","-0.039888074592628164","0.8507334875246431","-0.07373250470728229","-0.9269577556864838"
"-0.005404832230951375","0.040960526506432164","0.015516390278898496","-0.1514581484140959","0.027830769746776104","0.06420339004306069","0.864331034302312","-0.03819410472030037","-0.9032597577750863"
"-0.005414460424282672","0.06626991488101384","0.05745402035383328","-0.09500443740272832","-0.0411081519244099","0.22662014832052776","0.8524053170464875","-0.030907796043780165","-0.8724523604902698"
"-0.014850089888924858","0.04436751960618706","0.08033907961427718","0.09713342565468587","-0.16115114561242755","0.4081801644620296","0.8444919906430899","-0.08433940707179839","-0.8232912724092465"
"0.04755215672968639","-0.02502503558351597","0.01174327783274129","0.17437482601694282","-0.3180844201072378","0.42079995919998353","0.7993525935532861","-0.18768414547035173","-0.8005902247548113"
"0.031727258170415044","0.02964785521087404","-0.01260965940526426","0.1771571723592951","-0.09330835399246191","0.4631248092441983","0.7622101143429721","-0.30810546896919067","-0.754419987444675"
"0.011939395235993983","0.03544909193713353","0.004189308244801332","0.04908933239433805","-0.1558404194472353","0.4866898490337238","0.7135877390826588","-0.4216283481317044","-0.7038370194889683"
"0.00752198013560843","0.03518110284575037","-0.02559803028234501","-0.025394753115151807","-0.2027945143705819","0.4205815396756728","0.633395649684847","-0.5456789736709393","-0.6966622463282073"
"0.0028783024919380867","0.0462756434855315","-0.013425434011155007","-0.0762433359586388","-0.213547598038995","0.3758055371919709","0.5625100779586365","-0.6167214727168587","-0.7085112452839059"
"0.00017470580451816548","0.04504891822613804","0.008930053288674971","-0.09014832842320414","-0.17303386549083194","0.34097975748242493","0.4831260394963831","-0.6530408784500836","-0.7430449484472044"
"0.006852820699085339","0.036855515308190895","0.029225121111763275","-0.042584647212971796","-0.12353569579794982","0.3470955041631257","0.4139958887681093","-0.712658529924273","-0.7624119329472084"
"0.010051306523732404","0.05660880426491009","0.015064100054366664","-0.04659546204419655","-0.11768887109242275","0.3030961044325286","0.33764900727054","-0.7714054655327185","-0.7806839065092376"
"0.012111739896623664","0.04587677600068214","0.010217469531900576","-0.1374116317584144","-0.1094583225200496","0.24953478330432796","0.23987484406799603","-0.8170520851611086","-0.8455673904459601"
"0.04669621034253671","-0.02936479691606962","-0.0006807628897580753","-0.1594008326093922","-0.06567534619466592","0.12610833699993165","0.19320293658316795","-0.8147301761857917","-0.911774693576354"
"0.020496933468824582","-0.01986572621568591","0.022497768703589827","0.06654398263200123","0.0884146913987255","-0.13479378478924864","0.2041812837766142","-0.7942947386700759","-0.9214173272092674"
"-0.0473259859952903","0.09534880873090362","0.07371581591531107","0.13990839035735417","0.13242981753845062","-0.19422088358699438","0.2894445893906879","-0.7896904987133395","-0.8561089136548232"
"-0.009390904270096156","0.04015655923228269","0.05641106800959321","0.04171755871150367","0.09011393230782261","-0.2064062661599303","0.3395716112206615","-0.7798091929036102","-0.806392148381395"
"0.042254724758823","-0.02447659279184811","0.037082372980399576","0.12325282228721773","0.15145413582917297","-0.37507224971628805","0.4154169438616772","-0.7363921335981094","-0.7696030495548049"
"0.009791345303788187","0.07890383472013546","0.007411721200678116","0.1370201415590646","0.14252235121966536","-0.43843818060243755","0.5093458991639788","-0.6761676195508258","-0.7143131689104893"
"-0.018855418314732163","0.05262324556864193","-0.00135899170133914","-0.013347867377486083","0.10480877622592993","-0.38444002042561537","0.5533428794138556","-0.6124998200344642","-0.7055530814066902"
"0.052503936559957304","0.028131327794519725","-0.02736175563280247","0.0025728339234055335","0.11589692148205231","-0.3622825731260924","0.6002376975015963","-0.5340694287943545","-0.7251161872687194"
"0.04613392385199069","0.05865403884217149","0.004528216125375183","0.0070230476718100765","0.16953310178314412","-0.3017803648920172","0.6516743191236811","-0.46967603272320646","-0.7305585550649232"
