"AccX","AccY","AccZ","GyroX","GyroY","GyroZ","MagX","MagY","MagZ"
"0.01180074925202373","-0.0322358118330582","-0.05264250740674832","0.05047569181751703","0.029230848523989914","-0.2638724430060863","0.47911364864395584","0.3216199919331066","1.0343375818012732"
"0.029403012300247063","-0.03750107037655137","-0.02132915405354458","-0.07668042427677996","0.02008606047658142","-0.24751524751881526","0.48992481288521744","0.38015584490743237","1.0358084920164634"
"0.023982339454743436","-0.12054756590048557","-0.08507729268653097","0.016546470434410217","0.174867760918887","-0.34109587926795054","0.4648752338829129","0.4331771640653804","1.0549793551544422"
"-0.004721230504431398","-0.023979047153194877","0.06529784808338529","0.12507241903014016","-0.05705947679642709","-0.5803623337323502","0.39446334718789183","0.5978216186787646","1.0094301688240528"
"0.07364648629608771","0.03947204446010632","-0.05927609736654851","-0.03570772682424437","0.04331061509894521","-0.4835054091185538","0.35353138772806364","0.7413182318862791","0.9162234915215015"
"0.04074502404448024","-0.06591830123725094","-0.043751596828622605","-0.08957452966194396","0.18043935646308146","-0.35951592581815645","0.2568996413654466","0.7948276796356291","0.9153409453923872"
"-0.01199051646953839","-0.03495205785618597","-0.028216770029862642","0.032069844975617136","0.12340469434379543","-0.4643330286512776","0.154945904358291","0.8666617385594974","0.8761166729873155"
"0.010679064728931056","-0.01799603488045456","-0.028229161542863517","0.09357702863439203","0.1158634153232814","-0.34784261568554903","0.10462383575076913","0.9423480555560506","0.7934351754467919"
"-0.012134939369507408","-0.03871325359222637","-0.006795354980038403","0.013588903664961715","0.07286304713490441","-0.3554630302003904","0.048506091467519434","1.0048549005847538","0.7239918698429795"
"-0.017892598981605393","-0.0371053190439274","0.0220114018183056","0.08754829064276229","-0.007308335604824466","-0.33510147676742247","-0.023716943876166737","1.0685754707596453","0.6685712416239806"
"0.007578786476262913","0.023265975453284373","-0.008680104107471043","0.12455253424644805","-0.08778223109231373","-0.19706519117024093","-0.06782537942749971","1.1484042844507982","0.5417787810745865"
"-0.0036717574313232188","0.03232047510284641","-0.0510068276906332","-0.011781473779213717","-0.06113765497826014","0.04399473027711024","-0.08287184512410085","1.1655547484730258","0.4909016310758416"
"-0.04592026976892523","-0.10763630851330463","0.010588760566450039","-0.14003993816485788","-0.0013485472782982586","0.012669972853905127","-0.09284709460444028","1.1358976383792045","0.5733379769138338"
"0.0168882866082655","-0.02968991546491818","0.029637551969475637","-0.09767895578994444","-0.11379497678382983","0.0771532409510842","-0.13185645011414726","1.120580954740892","0.6494657522733435"
"0.05195127826274254","-0.007814526842711408","-0.023284947855515558","-0.08323000980170124","-0.15983722552919613","0.22295555407931422","-0.10978830042579897","1.0802773642886572","0.7336181600290576"
"0.031423007261147","-0.020643725554623845","-0.08241931314784393","0.026408877330969614","-0.12662065570193035","0.40713660451254496","-0.014661200632841978","1.0010158351767013","0.8113639366252766"
"0.0166832060903095","-0.13262784936089697","-0.07599431365689174","-0.04183562802461537","0.011856229893324782","0.39735626359063064","0.0894380509273473","0.921859847381805","0.8542654845683236"
"0.04448653997301081","-0.037929021948837655","0.002512736535783341","-0.028705648987591068","-0.07284566417164468","0.21322617771307245","0.14655889292370414","0.8812924036369206","0.8686640612303521"
"0.055807369691915194","0.012019158841422737","-0.017021038033574718","-0.016824356181027275","-0.09533547659810311","0.33003451243085336","0.21212247400537573","0.8161074476878235","0.9033611988620048"
"0.04289788807335167","-0.07783550606453386","-0.023989198844398454","0.08299063403906139","0.02406850677621181","0.4786325954702609","0.3066087058149591","0.7329540825092851","0.9103235072139051"
"0.016274970693063766","-0.05078211116114471","0.023639233576186826","0.09337388846891233","0.009902581507274124","0.2739492323550619","0.3567635914702966","0.6767797165041737","0.9130038324949183"
"0.025541143955075646","-0.017389423913912835","-0.018429540011340513","-0.049376845636949385","-0.05134428342892866","0.21808479868718475","0.3841815956285477","0.6275974627542781","0.9194268071012488"
"0.006035387085260713","-0.035350925341035316","-0.029571575451291323","-0.023744600301729042","-0.02876496169261075","0.19131627254110167","0.39881010394468774","0.5661724162254386","0.9276475608594785"
"-0.008370315776981779","-0.022934097440282245","-0.03357609940273982","0.05590752505750024","-0.00888384305617464","0.1996696059041858","0.4017358056079158","0.5280720007668286","0.9248855183442881"
"-0.014233885515723734","0.006324182906048895","-0.019435317816577962","0.005589802343138858","-0.03405510550312939","0.20687502332283683","0.4022094906391051","0.48768925432679894","0.9256046300050477"
"-0.02147428690083694","-0.011804240408613411","-0.014858719014922542","-0.03296870421386645","-0.0719625375583252","0.19290830818496663","0.3890299012418969","0.420868407963274","0.96558070096455"
"-0.029147956985857183","-0.02524316623929296","-0.02878677962790276","-0.040307744410320194","-0.044851268518533674","0.14406727566548147","0.39504848752053723","0.37589461423114046","0.9797831562645527"
"-0.05023370038133312","-0.04016745796407297","-0.04166569214014247","0.010165269814429225","9.556816472877223e-05","0.1083095726522097","0.3998132016577946","0.35065704678920107","0.9826269160139204"
"-0.04632465388883847","0.003652331664958791","0.003455937200366386","0.006199993039257497","-0.07316157938291344","0.10732183102560446","0.4229401767099779","0.33998418110152256","0.981139662351895"
"-0.029889327872364767","0.0006621343125232955","-0.020034240944953447","0.0667009108167083","-0.011233582104838775","0.12430030871535938","0.45648822244832576","0.33629023500442734","0.9844573820594905"
"-0.009727891036690521","-0.016954201319767315","-0.03266738844934253","0.014801968160243328","0.00138555527740953","0.08893090707864006","0.4754077598705338","0.3374643821567183","1.0052135595405076"
"-0.015071538335544008","-0.06378269824545336","-0.03928239113964141","-0.02464669667639481","0.0189636041577553","-0.0023555916001514457","0.49992792619092113","0.3299841413101006","1.0215079760354477"
"0.008832377247993935","-0.08935280468955899","-0.039788377920510355","-0.00399311834470605","0.021242022954178458","-0.25295146679054925","0.5225812162119151","0.3587969208674429","1.0249564433177267"
"0.02570097196437469","-0.0454254454857069","-0.04912538296666746","-0.04977927496951106","0.0063485353805006065","-0.43343880037932503","0.5099310394966245","0.44142257946068214","1.025430403275955"
"0.04999001528116334","-0.05180836396070504","-0.06324551203116119","-0.07842781479974513","0.14102414726319384","-0.4982608614275461","0.4548721205772092","0.5176234103779022","1.0441436499025412"
"0.04307600964998011","-0.05595388513787632","-0.024790516685121514","0.0299691253496612","0.19633563550283212","-0.4863934006066625","0.36698961537891256","0.6311330968757835","1.0316082261797537"
"0.025308141676458975","0.009638522412969","0.012255811462979029","0.009620546091071814","0.08660535882509536","-0.45613016207160756","0.2661504313863202","0.7523472995190347","0.976498123450628"
"0.013078410507082932","-0.05090052494570937","-0.03263847491900716","0.017012441240534266","0.11402775648204551","-0.4246292128987918","0.1687663617388731","0.8320178012345977","0.940003206667076"
"-0.012722259162714728","-0.03726528152483053","-0.03442698329546636","-0.010432661590412493","0.06922523561120357","-0.4732154226399144","0.04945346152989775","0.9152635150655637","0.9010567728582071"
"0.00404235106568834","-0.014754197848645095","-0.04311136865691088","-0.004010062737656015","0.07822403253825301","-0.4176640569568826","-0.07905450104922243","0.9884564184465777","0.8752014399645307"
"-0.006001780217489975","-0.07829150300684863","-0.02206025332059603","0.06406105141507167","0.029714294529113314","-0.35808406449211927","-0.2030485239193625","1.0533643284383924","0.8422530511442705"
"0.0049281448521649425","-0.005081349725825714","-0.030837575029547086","0.18204794032439875","-0.06755887097700312","-0.32893719241465263","-0.3067855457498189","1.1572037917606641","0.7248744159720938"
"0.021547369361265868","0.021261250854952982","-0.055707341622297346","0.075502367654696","-0.050071049395633366","-0.11984175490837667","-0.37739247922238844","1.2255154092276597","0.635900691399923"
"-0.0057418189975457406","-0.045990507755910154","-0.03483796847666196","-0.023482732410684125","-0.026153156616416852","-0.003229512385754756","-0.4084327806779696","1.2257528771910442","0.631177435264479"
"0.013911249230237566","-0.030763949265267748","-0.01305988437762928","-0.09098784607390697","-0.017627035857743004","0.07559760856127103","-0.42640494803779894","1.1933648855182992","0.699623790611329"
"0.05250586219862355","-0.026703602915590333","-0.006085527810305113","-0.1115136675337514","-0.06392105945330229","0.24970466515656967","-0.3764729729853739","1.1281667369045696","0.7755227577151425"
"0.04123798754304114","-0.022280744190359737","-0.06201462173974123","-0.06649838451320986","-0.045997657807910444","0.4103400908691025","-0.2649062162276121","1.035554231184541","0.8571419312113624"
"0.00045584904979117263","-0.09926736235332743","-0.025949123150703052","0.0017548818637299324","0.025554744247408015","0.4895293028497634","-0.14169238046766633","0.939076274727195","0.9271082271139086"
"0.05998600559768531","-0.0495408438580328","0.03047604434920131","0.03496098202270497","-0.07412607809610518","0.4251440808501638","-0.00019987526888624955","0.8668200505350871","0.9264544892404909"
"0.06458250509403243","-0.06775890848504536","0.052454044857981386","0.06044977766761029","-0.05743761773112758","0.37107311416523814","0.10718730768426424","0.8026245444334262","0.9190835947177045"
"0.029183489492294164","-0.04896539441374492","0.012390631124428515","0.0262375079022711","-0.029841466707979592","0.2629797184674558","0.20462710498243925","0.7437061041847585","0.8957614960835223"
"0.008397182909420646","-0.04528106376593071","-0.037407142172176104","-0.07232494508895931","-0.09830555824344044","0.2115419204922763","0.2502401871034323","0.6782968729369092","0.9222542234037812"
"0.015256307838615655","-0.0356646179983908","-0.054387645487704465","-0.04098552012831882","-0.08751657511920137","0.22362294707026373","0.27576345113692646","0.616911404401967","0.9582751802291052"
"0.0020839765421085178","-0.028676127274259406","-0.019495210129415512","0.046054745656935146","-0.0231608173084674","0.2662560113321169","0.30730530144906093","0.5641935165305662","0.9494333754911286"
"-0.014888602662249924","-0.0009090296395161137","-0.007926906642234704","0.039860414734203486","-0.030023596613870142","0.26378059005659515","0.333636616418113","0.5237975774259042","0.9432555525873298"
"-0.015264102202169356","-0.0072588130291843115","-0.014146207017372398","-0.01143007017542182","-0.061826924530119225","0.2625671482548689","0.3605530717198108","0.45638306115391747","0.9446610890151783"
"-0.010931415203098965","-0.002216670985028751","-0.025841730038028827","-0.01479776827422744","-0.049731201213813934","0.2481271908143254","0.37690913720852376","0.40260976011191796","0.9536009544341675"
"-0.04173200566982384","-0.051707608372084234","-0.03432165543495895","0.027500635376723065","0.03217221060466644","0.2374052190542715","0.3770484563353441","0.35774150769684426","0.9744225057025263"
"-0.05770517840639672","-0.03757793546477755","0.007605441853925083","0.045541600120439035","-0.07425770943413382","0.158604308450163","0.39217851350803745","0.3399314104429926","0.9668554898177145"
"-0.042685196809619345","-0.012062881043320416","-0.02797100502201201","0.015741611769286862","-0.038195509408394175","0.028664106554099664","0.42491850831082734","0.3370290242238464","0.954941117074674"
"-0.015572204388769936","-0.015373273424088365","-0.03194455019095832","-0.014296175732924486","0.017759775739056932","-0.023977425688392395","0.43578540020281714","0.3383746760163596","0.9707615736113863"
"-0.012317875042801477","-0.05947617586997049","-0.024966063119300535","-0.053196073297887614","0.002622889854878831","-0.03239628490876975","0.4547049376250249","0.3364353543153847","0.9878895058949343"
"-0.0038932058779423693","-0.09338095079957406","-0.09581660395395343","0.049130730627113525","0.06266999497737685","-0.2715171263569623","0.4654882380409226","0.37068351170130975","1.0016506881303802"
"0.02767475159728454","-0.02953306913624044","-0.04649838221048258","-0.021030609180936292","-0.02040062781485939","-0.389487938320797","0.4556244438620396","0.47664699402941096","0.9759914765987293"
"0.029409752035578954","-0.038935539117637204","0.00010940258926420113","-0.042872509343201325","0.08549008239743443","-0.43343880037932503","0.4059711070632553","0.5504863379774166","0.9872521114683519"
"0.024812289719898697","-0.03320805132737851","0.021574187934591493","0.03718204534858965","0.14808437357563958","-0.4619789515559285","0.3295963617403221","0.6520434703182686","0.9747820615329061"
"0.04160482170896243","0.008707208384542095","0.009755617189836405","-0.004681773133178222","0.012302101134683642","-0.3634474772557498","0.26046621101204853","0.7517668222752053","0.9281378642645418"
"0.04135352586301635","-0.047151793818570514","-0.039001516844954974","0.01690365053579869","0.05501383769821963","-0.2993534812885645","0.20641038980574009","0.8152763098159772","0.8930648273556736"
"-0.018123675621555823","-0.08476582861379141","-0.011733992486535966","0.0542515957464809","0.12930895817864413","-0.502726327257899","0.10144735965926434","0.8988386475981226","0.8413378181214854"
"0.014183727101512453","0.0080480383171322","-0.022254387024276363","-0.04642794361389577","0.08858461548963521","-0.4650853625683479","-0.027255649697404422","0.981002562929225","0.8013617471619835"
"0.01796279298403495","-0.07333682096848555","0.004447464765652833","-0.05736477906341887","0.10367674671888358","-0.3689565030355873","-0.14219392932421943","1.012757306699611","0.8123772303290742"
"-0.02132986400086792","-0.06701622553799512","0.008611632709595895","0.17431706104097702","-0.01834191368809132","-0.3922788544647675","-0.24910742724618076","1.0966494610975683","0.7362657984163998"
"0.035782653201544945","0.032162590056760205","-0.030137454544997812","0.1887486775364305","-0.08418271232149396","-0.28382142622646733","-0.3453769438790648","1.2069665227543889","0.5941104978416863"
"-0.003565847304679283","-0.005105344097961183","0.007272936255068348","-0.040349142643095685","-0.05573359022792032","-0.034772203956549924","-0.3946123232973877","1.2362410455738682","0.5455541172935747"
"-0.02469973166681156","-0.06543322020749925","0.04491174394478392","-0.18670441124922277","-0.12584522745608884","0.05925497437562068","-0.40550707901474164","1.200660429060062","0.6637662682543592"
"0.02377822175612055","-0.03872467948371944","-0.015368836300125113","-0.14586457324140847","-0.24970792324399235","0.1462587515593992","-0.385305805625786","1.1703041077407195","0.741136145573363"
"0.03780938789777676","-0.03506423933629985","-0.10741506012276969","-0.0634647605254064","-0.19838845449220477","0.27234748917678314","-0.3056988565606199","1.122467505783337","0.8204672365126202"
"0.008584932679380371","-0.03532287997100685","-0.14134095746699063","-0.03273956980920214","-0.03322702472207644","0.4182760002523928","-0.2166182068716677","1.0496308043474","0.9224993751063129"
"0.04009800945261905","-0.0592061093437704","-0.06441444475757678","-0.09097918132751211","-0.03179822638020183","0.5085318014647979","-0.06554054574764533","0.9328493370206631","1.0030235376645575"
"0.06414345947812664","-0.06741820917506987","0.03639464400885118","0.06624167925778027","-0.016351169197687136","0.4057775496946115","0.059623757787785746","0.834537600179402","1.0350403500151975"
"0.0518848437287568","-0.05611696377100483","-0.0013284259692703236","0.12749854802070337","0.0020106844681928595","0.3678938966447151","0.18303264032528027","0.7947353309832015","0.956771583120244"
"0.023939975404085854","-0.028955542257135647","-0.011298224279338635","0.025338299776403617","-0.015271313566441205","0.29207805287285343","0.2438593710950591","0.7465821050746396","0.9366528000658095"
"0.018299779750629314","-0.0340224057756126","-0.026188692402053248","-0.051319674328598824","-0.05697810469655483","0.2238607816634021","0.2725312473946934","0.6684155671271795","0.9852908978480981"
"0.00352242862579989","-0.03171125954178496","-0.018070186134315224","0.015451824139858477","-0.026532494199644867","0.21987098501932592","0.29248174635537233","0.6042332536901511","0.9910601345810108"
"-0.005693678030889412","-0.02292059411397224","-0.004471326716724842","0.04722544916984185","-0.02550672708184343","0.253587678922094","0.3175591891830411","0.5516077144711777","0.992743509605062"
"-0.0005647394433231865","-0.011252681464720164","-0.03569917863022257","0.044638540996173835","-0.01191447511700515","0.2274962533013742","0.32394000519141464","0.5040217731418126","0.9798321866050592"
"-0.007908162497080953","-0.0043852013186745755","-0.03685365459147048","-0.007546627116201629","-0.029842902686212633","0.231944730946503","0.3301815020729675","0.4549582533736094","0.9804205506911351"
"-0.019173148694663987","-0.02209273633942814","0.0046106196868309825","-0.025628701267813258","-0.0542569259449444","0.21821342351816772","0.3420793555034284","0.39747781356988215","0.994361510841771"
"-0.0544219644804345","-0.05191015826673429","-0.014724477624079762","0.06248021657280785","0.0034945286423339913","0.19938808740618527","0.341633534297603","0.3631768855254271","0.9951459962898725"
"-0.0706550984369516","-0.015494803360878403","0.01820947910442136","0.008265957404674014","-0.09056563556735589","0.15007138570042342","0.36155616943291763","0.34729291730791795","0.9906678918569602"
"-0.046430564015482435","-0.020634377097947687","0.003321902334740286","0.023005557496985088","-0.03983252459405955","0.09297894892919911","0.4089525363772118","0.3236648549511414","0.9903737098139221"
"-0.005924754670839843","-0.027366304622189","-0.035362542527032206","-0.01000327526906678","-0.028330099617705197","0.04231532682352098","0.43255319646058443","0.32531393803020175","0.995342117651898"
"-0.008148867330362628","-0.0608348182402386","-0.058611086168835036","-0.028715276483585364","-0.010268365402530519","-0.023246933723753145","0.4714510966688347","0.31952235825654185","1.005344307115191"
"0.014295414144155152","-0.09906688989349428","-0.04735752711187638","0.03838837059667525","0.07195598755103426","-0.20200147241966368","0.4804511122614316","0.36129033448298215","1.0123719892544332"
"0.02130281325065167","-0.05392215388692492","-0.014460125346727826","0.0525321249618992","0.044815998946581934","-0.4236584594574107","0.46233962577478177","0.46009019991564515","1.011048170060762"
"0.04294025212400924","-0.03614866031073403","-0.07930904338462502","-0.06865012986793557","0.11951558662931264","-0.4448451533155526","0.4128534719281824","0.5544969080256913","1.019252580372156"
"0.04727679040041214","-0.0448780414114475","-0.02519530610981667","0.0015342196555406104","0.22702967023405798","-0.5238159457719027","0.3140204833618031","0.6463046612031387","1.0150523145354462"
"0.0269574511941051","-0.04102959341309632","0.006798134781918267","-0.020050530088716708","0.1472060335564302","-0.4151158291732573","0.20702339396374975","0.7430860489470318","0.9914523773050615"
"0.011502275258754429","-0.05218749581479361","-0.0021537007351284014","0.08209527691159162","0.06351482883781527","-0.45960060562454486","0.1280294490565932","0.841727602404105","0.9164032694366913"
"0.009916511817094666","0.007809652671890203","-0.0509551963864629","0.03086351972753153","0.1415530659123635","-0.4394817405519222","0.03705405924288387","0.9414377616964094","0.8287043337176854"
"-0.005202640170994766","-0.03691834991040427","0.011209121012317032","-0.07510921693051044","0.09800223940132127","-0.43737035181691836","-0.11070780666281302","0.9850131329774997","0.820565297193633"
"-0.007705970437124344","-0.06737562176132295","-0.002622719502211412","0.034451687484606586","0.05252480876095063","-0.39373498462683915","-0.22402998441851216","1.0409632236838589","0.8053985785303387"
"-0.020694403241004255","-0.07064446544575241","-0.004036591135610913","0.1766180325836144","-0.08284725256476694","-0.380459931315953","-0.3065626351469064","1.1335229587453575","0.7273749633379172"
"0.018721494618538843","0.056641004504572406","-0.04574456516959619","0.24159400304913503","-0.1624267729427779","-0.23797274119003928","-0.39667424637432924","1.2544469227666941","0.52726580028471"
"-0.00013339638208239644","-0.005155929635753276","-0.062188102921753446","-0.047118235076686964","-0.041349874926971605","0.06365734123228385","-0.4127238097840374","1.275950966117641","0.47517923522014216"
"-0.0003548448287015642","-0.06293925970978233","-0.03133943130608241","-0.1672087318607683","-0.01127881541917953","0.16454289262781172","-0.39781666321425657","1.2403307716099377","0.5623551806404139"
"0.03267370957487865","-0.02731021388213206","-0.0009444955914599682","-0.14169586747587723","-0.07433429493989596","0.25091810695829597","-0.3627918347316125","1.1771379080203455","0.6970578694581637"
"0.042241245288159215","-0.028037316068055363","-0.056454962906683295","-0.10733533427222586","-0.10009095784651993","0.3634526996503967","-0.2679991008430244","1.0924937717383363","0.827298797289837"
"0.006319418788533111","-0.07595646627262637","-0.0614074376026985","-0.03686784009155734","-0.011795767583073859","0.46394994966937214","-0.1524199532328358","0.9985883848843244","0.8964152339569401"
"0.03242241372893257","-0.05137418008396798","0.005089138613881326","-0.012172350116582235","-0.08861509846747682","0.39842409237614984","-0.02477576924000177","0.9143268358766573","0.9364076483632778"
"0.055965272062547984","-0.02757197066906445","-0.007507660452371866","-0.003988304596708901","-0.09596491372358555","0.4636829924729924","0.12170436069894787","0.8237328078453986","0.9477826873607486"
"0.029201783059623572","-0.08685365060479974","0.025148726384909722","0.10629880184125808","-0.05743283113701743","0.4434185143841625","0.24497392410962202","0.746727224385597","0.9427489057354309"
"0.04917354448667185","-0.028499545314820893","-0.03383425592359132","0.037940692032940364","-0.046090996393058026","0.2761576964342039","0.306190748434498","0.7049328628298918","0.9361788401075816"
"0.019297260579748645","-0.039909856046774425","-0.03420600131361748","-0.039303596578114865","-0.02631255020028427","0.26086832973245194","0.33959947504602545","0.6318455007659375","0.9554477639265729"
"0.0005550194411032367","-0.037512496268044454","-0.020061089223122","-0.004878655426261626","-0.022390893645852557","0.22072039428053436","0.35693077442248095","0.5656710949694043","0.9725103224227791"
"-0.0022949257849519695","-0.015012838483352099","-0.010168737869309143","0.01697970775415365","-0.052272882686294396","0.18527575925210793","0.36724038980718904","0.5249585319135627","0.9510350332810025"
"-0.018999841214701163","0.006829207310043053","-0.02824568356019801","0.0004546885296999186","-0.054259319241999455","0.20506699503826456","0.37284101870536857","0.48441747349794323","0.9512148111961923"
"-0.008466597710294453","0.007090652481752903","-0.030641376073699947","-0.021660247418963417","-0.0643470663291041","0.22916109545334276","0.3828719958364359","0.4207892519754791","0.9726410699974626"
"-0.04157795457652358","-0.045206276112521454","-0.025023890179971274","-0.03908890341744201","0.008222008315206539","0.1867246087633692","0.38117230248922723","0.3586781868857505","0.992743509605062"
"-0.06134463548561585","-0.04866624380010791","-0.03084996654254796","0.03192543253570266","-0.013848498467204262","0.09460738782711586","0.37264597192782","0.3350765098582389","1.0022553956632918"
"-0.0552788736869173","-0.0035705352552179385","-0.011256919236002394","-0.020283515491778727","-0.07435344131633648","0.024609269429450926","0.4005097972918964","0.3298785999930408","0.9924656710088593"
"-0.0237946814936724","-0.01876676319753326","-0.020379138056811054","0.02879168258955849","-0.0027117692808640475","0.0022751450035966114","0.4224107640280604","0.3344696472851448","0.9995096965949367"
"0.0017421756788485127","-0.009228221235627998","-0.04640544586297604","0.004239642304898435","0.0002707575091596285","0.020582826842962587","0.45242010394517085","0.34741165128961027","1.0106395838898758"
"-0.0003981716986922527","-0.09056291047041704","-0.03118040688923788","0.01395378576314563","0.05566481449719767","-0.04551116390182803","0.4758535810763589","0.3544169562094587","1.0213608850139286"
"0.008659069768031128","-0.06063538449781393","-0.04365246472461563","0.09368485658952816","-0.004399761693802339","-0.2612271398783229","0.48020033783315513","0.4337444486445771","1.005703862945571"
