"AccX","AccY","AccZ","GyroX","GyroY","GyroZ","MagX","MagY","MagZ"
"-0.01986637861451524","0.008676670092733317","-0.029100697957258188","0.039573515353573396","-0.0364364360729204","0.2179221974857534","0.34670475051386473","0.45432500547125015","0.9868925556379721"
"-0.022196401400682","0.010781007690536198","-0.0719113101231044","0.0025469359591808708","0.004654081065513637","0.2709156278507461","0.3487666735908066","0.4017522369108066","0.9829210980569585"
"-0.08690748878013121","-0.13613871420149806","-0.08769603243404861","0.021284161213204512","0.1189555551184271","0.20570769230957608","0.34299886174044275","0.3603932332879733","0.9898670629620232"
"-0.058581343999542075","-0.043543289541574014","0.03679736818137952","0.08437025421504435","-0.06345197323050927","-0.0908890335191862","0.3797791112210236","0.37601334821283283","0.9460339385493558"
"-0.05320881212069478","-0.0024998253505754534","-0.020185004353130722","-0.0625713288971355","-0.0030891922264480102","-0.2424430607875991","0.39217851350803745","0.4202087747316499","0.9363259311291007"
"-0.002352694944939577","-0.04094857345523628","-0.05175238372285234","-0.06025399061130784","0.013290772148131548","-0.20120302771412776","0.39658099791556156","0.4391138631499976","0.9609881924037893"
"0.022419683677078712","-0.06334539821649092","-0.05051116717059832","0.053583447524476586","0.0750744536137857","-0.2015330838841973","0.41394016111738136","0.49919325788632385","0.9470962625936599"
"0.024746818005246075","0.035616325439895895","-0.02906765392258919","0.10784882869634013","-0.02951310635202449","-0.2419819529029431","0.4504696361696854","0.5985604078981837","0.8782903514164301"
"0.04861799773145772","-0.010511037235078397","-0.03292347971802722","-0.07297095007017675","0.03600627248688272","-0.1563566456059257","0.46468018710536435","0.644484073483856","0.8448843460847774"
"0.035824054432869394","-0.07883371349406572","-0.01801648957797811","-0.03169594924342018","0.10846812742312639","-0.2237390688557893","0.4474882068557292","0.6589564265856895","0.8561776678480709"
"0.005451918569385908","-0.12739271362224922","-0.028633950967558667","0.11275885165343237","0.11619129701982549","-0.40793225370703734","0.41112591475560945","0.7466216830685372","0.7930265892759056"
"0.013299858953702082","-0.0006613994093388065","-0.016870274625397447","0.12262703504758835","0.012653676472072887","-0.4806659553025141","0.37077909562842704","0.8771894849362184","0.66616875493917"
"0.03163386469510176","0.008631797500687764","-0.014920676579926904","-0.0555403685724993","0.09336881630271283","-0.4845004313959694","0.29955915799784766","0.9541950683960202","0.63652174237967"
"-0.003440680791372823","-0.05881555159818875","0.007052367323652826","-0.0973805034141212","0.06990253867778734","-0.40688869375755266","0.18662707379724586","1.001635890414428","0.6763507223176529"
"-0.017545984021679784","-0.07381255354156108","-0.028563732393887063","0.20232344688839143","-0.02374837173548619","-0.3767225305666359","0.10835758834955539","1.0865438799890865","0.6041944045391568"
"0.008956580941967288","0.09145154101435472","-0.05294609947526968","0.2794300623067282","-0.1431559450553837","-0.3255638242058534","-0.005076044707599701","1.2233781975571973","0.3701399024087276"
"0.0011288597636467793","0.05236875980356877","-0.0006720888306574653","-0.12227720805537715","-0.02851821276623341","0.09818704114220857","-0.05709780666233024","1.2347898524642948","0.34583719696441856"
"-0.06404052961837077","-0.12467127401207914","0.036749867381542844","-0.1444493313302466","-0.07187637886434281","0.06294383745286876","-0.06846624741087363","1.1973754555665739","0.46565100571507684"
"0.021083290442698768","0.001175052968821762","-0.028427425750877467","-0.1373249842944657","-0.11244515724477239","0.13880093824598916","-0.0954662941886633","1.1788529544225683","0.5548698819897793"
"0.06247778203181736","-0.00042675314676727285","-0.030484416909022233","-0.1307397770343655","-0.11847387252648453","0.37289327686782764","-0.05077271830468491","1.1057787850232466","0.6813845039429706"
"0.0246611270845978","-0.0504393344163523","-0.07501744938198966","-0.03008815741237233","-0.013191299095883045","0.5449107866805535","0.08099531184203253","0.9606726667305692","0.8555566168683238"
"0.011887402992005124","-0.07533427454495771","-0.0018610545030911412","-0.011984613944693412","-0.08659276245594576","0.4893836898335563","0.19618436589712418","0.8540495511708439","0.9150140764556783"
"0.06764041929604302","-0.027115973726749693","-0.0032850458721080233","0.021726063279342817","-0.09820503976712765","0.4280320723382725","0.28952818086678006","0.7944318996966546","0.8820330007417472"
"0.059783813537728686","-0.07607591877459947","0.017923028628884535","0.042560927360604225","-0.049707268243263276","0.43892877971777505","0.37621254157442197","0.7057640007017382","0.8931138576961799"
"0.02635857756890026","-0.044202875095947294","-0.00780443718874275","0.002724466985315735","-0.022581639421141345","0.2579318005722742","0.41728382016107046","0.634945776954571","0.9085747584025125"
"0.000706182076404127","-0.017929556966313","-0.04886309594148234","-0.11571125578726556","-0.09565857170053707","0.23034298776822423","0.4352838513462639","0.5335205712600438","0.9821692995025281"
"0.006574565911811705","-0.051820828569606577","-0.03185987485211903","-0.04657235605381024","-0.0717351743380939","0.23882494596229134","0.4472374324274524","0.4386389272232282","1.0091523302278502"
"-0.013569540175866266","-0.027562622212388293","-0.0016018653561562324","0.06892871338978898","-0.03452897832003253","0.2170606538065277","0.450330317042865","0.39977333721593417","0.9866310604886048"
"-0.02738599760623519","0.0034564814975933072","-0.039583917955995966","0.04035623077790986","-0.047012415759258575","0.2005918216734978","0.44863062369565637","0.3789421197612439","0.9744551925961973"
"-0.056289833986700386","-0.029824948728018223","-0.048679288498636064","0.0015164087879511584","-0.0022510595977637765","0.19403195529336523","0.4468752026977195","0.33956201583328305","0.9753377387253114"
"-0.05916866379274939","-0.036011549612817065","-0.008391381854550723","0.050287955645628206","-0.03731716938918482","0.15600026234365827","0.4736802026979609","0.318625257061533","0.9741446671063237"
"-0.044408643415916244","-0.006138764047639888","-0.005844719407654831","0.07698018828982083","-0.050820151373869124","0.11757298736658857","0.518206595629755","0.3294432420601688","0.9497275575341667"
"-0.017892598981605393","-0.01851019999764318","-0.018681500775691577","0.02860202091847081","-0.043223826521088554","0.05704893718008219","0.5627608523869133","0.3386253366443768","0.9366528000658095"
"0.010077302645726835","-0.06303066684172698","-0.0652756549111374","-0.029088823328164145","-0.019316703578619844","-0.020860579076478123","0.6147268866909159","0.3507757807708934","0.927337035369605"
"-0.014907859048912465","-0.12286390572135551","-0.07637638530775195","0.010778637584225982","0.12809555657172544","-0.2265469731849841","0.6404173336765944","0.38559122273601526","0.9235453557037814"
"0.0024450337920310476","-0.02281568365571759","-0.011488227478685342","0.0724928124068783","0.0026257618113449104","-0.5019982621768632","0.6586402754647","0.5124255005127041","0.8541837673341464"
"0.028934119285014333","-0.020223045004196787","0.026824678518277672","-0.07673145000554973","-0.014154840490252753","-0.521243449152243","0.6377702702670072","0.6287848025712015","0.7878130297353981"
"0.027463894163329776","0.010996229937569497","0.016446992905263993","0.006938807081859964","0.11831654480472441","-0.5533753880619564","0.5878382952145821","0.7239171072360345","0.7483436056277948"
"0.03656638813871012","0.014868983923278695","0.03839793861065883","-0.03085546884311792","0.0224051653229407","-0.3848768594742369","0.5381292307650696","0.8068593897804532","0.7080733526252546"
"0.02828614187382003","-0.008741062771059386","-0.01417925105204139","0.020383027588138175","-0.013089583971042724","-0.31199754486255293","0.5137483835715029","0.8638253156635136","0.662589540082207"
"-0.008697674350244882","-0.03384063022913177","-0.06379280385536637","0.04147109481404962","0.11960892521446022","-0.3182589045594608","0.4568783160034232","0.9181790939493424","0.6211098720138439"
"-0.03401982281147855","-0.09259464172136843","-0.026915661164771076","-0.01834357504892758","0.06848331352413299","-0.4305022712191473","0.3650670114287914","0.9760025430335141","0.6097675199100441"
"-0.021936440180737767","-0.03703260882533507","0.02458222771555319","0.1299535594992495","-0.00743254772198241","-0.4066460053972074","0.3024569958357114","1.0640767721199687","0.5478258564037018"
"0.02282503061632507","0.09829876617093533","-0.018894221748873216","0.18129699563684346","-0.1127299595943253","-0.22305711456321914","0.22627729729032678","1.166966363588701","0.3958971746213911"
"-0.0013321064518252176","0.05653609404631776","-0.02878884488006957","-0.12747605589229835","-0.033653031597878254","0.1627445718776533","0.22298936589736557","1.159446544748186","0.3975315193049358"
"-0.06640906517786262","-0.14873835636614044","0.00431962565652717","-0.18693547115308592","-0.01403278234044437","0.09789338822619079","0.19989025467054647","1.0930874416467982","0.5656729003480092"
"0.0251040239778361","-0.017513031285519797","-0.002923626742915922","-0.07066516477954225","-0.14831350020905168","0.17170705302520403","0.18871686069955165","1.0773485927402462","0.621077185120173"
"0.058017040061441094","0.011265465489842811","-0.047863513892745325","-0.14361173917874265","-0.13761785566996018","0.3098913785221961","0.22725253117806934","1.004314001334822","0.7342065241151335"
"0.023918793378757065","-0.07182340970435662","-0.04692175890467904","0.005007916485243456","-0.04272602073363476","0.4365261649503569","0.3005901195363184","0.9122292022000925","0.8038296076341357"
"0.03572488404155734","-0.054209878609068854","0.007910686124179897","0.06744704175626644","-0.07510972318573744","0.42480431714568045","0.39385034302988214","0.8371629404412659","0.8171168299113537"
"0.06795044712130982","-0.011352398335932504","-0.010441144630111646","-0.03663004094049817","-0.07258718808969752","0.36357404383056935","0.46746656964177197","0.7695109562058946","0.8263672208202166"
"0.02963505175953061","-0.07154087856925499","-0.003666291422101521","0.003006937717788453","-0.03782215506780382","0.3969922310501128","0.5222468503075463","0.662716336005947","0.8692360818695927"
"0.023611654011489635","-0.04174215355530115","-0.03149845572292693","0.04499764659676117","-0.01920876588143635","0.2550923467562346","0.5474914760873993","0.5909086624113437","0.8915939171404834"
"0.00386037821172738","-0.03848369704495629","-0.01892726578354221","-0.018232858844993146","-0.03215243434435165","0.2420114441336247","0.5501942671477148","0.528111578760726","0.9081007984442844"
"0.0043754865549501904","-0.03415847775612111","-0.009010131403727605","0.026247135398265398","-0.036845689869336756","0.1914279091868605","0.553537926191404","0.46813772534145964","0.918478887184793"
"-0.013848757782473024","-0.014717842739348931","-0.02437746625175911","0.0070424952137185595","-0.02202352254789988","0.13059079101550874","0.5247267307649491","0.44385002975305893","0.9084930411683353"
"-0.016448369981915276","-0.008841818359680186","-0.04943723604385607","0.00747659900810148","-0.03620667955563404","0.14851089954340332","0.5121601455257507","0.4089158538062447","0.9131836104101083"
"-0.05991003467925701","-0.03655479881744262","-0.0505421459531005","0.0402349243283817","0.0040902202793400054","0.202222687455018","0.5138041112222308","0.36826925407356553","0.9230713957455534"
"-0.06344358163183218","-0.047623371522012195","-0.01184964660787744","0.048954547450417864","-0.040311184005072824","0.11280416108580404","0.5374326351309677","0.3582428289528787","0.902004692774663"
"-0.051774211314335926","-0.01814664890468153","0.004469769489054403","0.0115661667565596","-0.041194310618392294","-0.015759512430380936","0.5823491216178589","0.37195000750602814","0.8901393503721288"
"-0.028878367572581668","-0.03006073757973907","-0.03765703768436035","-0.03688131858594936","-0.011316629512649577","-0.10112077479134271","0.6107980873145811","0.3989553920087202","0.8828665165303551"
"0.01349723691699307","-0.05091402827201937","-0.037929650970379536","-0.04863456569578897","0.020892601584138772","-0.1645109745135267","0.646909604986424","0.43534076106510755","0.8857593066202291"
"0.02276629863700434","-0.07650906393392808","-0.026469566696739676","0.04562632208518886","0.08581317749986839","-0.2608873761738395","0.6659405977100882","0.4907103745276375","0.877881765245544"
"0.023959231790748388","-0.0077065002322313746","-0.016182545653849044","0.08703995885426334","-0.004225051008782497","-0.4260125365527598","0.6687269802464959","0.6140354035120859","0.8002503927771729"
"0.04279390358537397","-0.0015999844596249438","-0.012843032900114019","-0.06813602158184003","0.02638282502846097","-0.46831311776094","0.6342315644457694","0.7087587355733117","0.7565316724923536"
"0.03348825473070388","-0.00919602099596568","0.009150952660437183","-0.06078927938859085","0.12177485904929526","-0.44455392728313825","0.5433397661081519","0.7884688152827724","0.754276276829062"
"0.03449825221115385","-0.005221057217263836","-0.003751792861807537","-0.04580119362466693","0.08391768623225584","-0.3610448624883316","0.45300524427781624","0.8432447588368405","0.7569729455569106"
"0.0075816749342622865","-0.05603178894351096","-0.022588957875299905","-0.03242378794058915","0.09551560376110735","-0.35543876136435587","0.36944163201095126","0.8804084951065444","0.7654061641240012"
"-0.018778392768082013","-0.10881005918486653","-0.07443504827094868","0.06701380443652301","0.07796794975336092","-0.42125584468999255","0.2722526091410527","0.945830919019026","0.7335691296885513"
"-0.021734248120781157","-0.07004928037070376","-0.042549620067538006","0.07633899705660055","0.03434771762772175","-0.4613236929829963","0.1685434511359606","1.0478366019573824","0.6698787173708162"
"-0.00274745087152155","-0.025601523745212303","-0.0005820438361844609","0.15506206905238","-0.03221705336483845","-0.386357258472343","0.06873522868183872","1.1534306896757738","0.5670294064353513"
"0.046235982701302115","0.12798634842218376","-0.026990010242776308","0.13945589804562214","-0.08281135310894093","-0.105234342499195","0.00804781703888026","1.247059030572504","0.41212621732898946"
"-0.008736187123569966","0.027634820873274957","-0.031062687515729596","-0.18210246816394807","0.039201324055396294","0.28836492095957084","0.04025839915975262","1.22530432659354","0.45086018632899777"
"-0.042598543069637916","-0.1375409827029216","-0.03425556736562097","-0.11910976187325294","0.012061574780649472","0.21940745025106645","0.08751544697722612","1.1301060586055445","0.6048971727530809"
"0.03145863157647268","-0.015238240160988322","0.009045025876801395","-0.07477995656750543","-0.13203190034343534","0.2606741790441758","0.12359910082370511","1.0880742290864547","0.66397873306322"
"0.061525553711355","0.029018392461346153","-0.004440141409005983","-0.1387979911815934","-0.17896445559328633","0.430264805253449","0.23112560290367595","0.9545776556703621","0.8043689413797056"
"0.037677481649138395","-0.08174523838998432","-0.048483089542788925","0.07663552393322494","-0.025689335647144994","0.5835467736475202","0.3541722557114373","0.8343397102099148","0.8464533169809801"
"0.019807554826305824","-0.08586271419712711","0.005929696245773816","0.1635824030073342","0.008605893162839181","0.38898351515871893","0.41288133575354635","0.8036931502686574","0.8073761355974278"
"0.06066864450487218","-0.011639084340667977","-0.003300535263359114","-0.06552985841618343","-0.06838455846100101","0.27431326489557983","0.45916314968327726","0.7436005628676986","0.813537615054391"
"0.02964275431419562","-0.06321555854043318","-0.01627341674918877","-0.08057667190567257","-0.06694140033679602","0.24540908117845842","0.48516009874796073","0.6402096501429317","0.8734036608126317"
"0.0014032632735878979","-0.04329191992872624","-0.013024775090793474","0.02628468263264316","-0.05719828802562094","0.18057488571222013","0.5034944958375228","0.5699191329810638","0.8738612773240239"
"-0.00317109137809731","-0.009876380898508199","-0.02828492335136744","-0.0046499061214370935","-0.07624893258394903","0.22675362691871767","0.5121601455257507","0.5222276503346387","0.8731585091100998"
"-0.013579168369197545","-0.02417640346080263","-0.02997429962381967","0.022251724560631514","-0.05834467731499771","0.23693683051880512","0.5112127754633721","0.46882374390234866","0.8891587435620019"
"-0.01631357527527752","-0.024258462136071118","-0.01973684463293252","0.07290679473463313","-0.030663324916689376","0.19250301862319003","0.5088164864820612","0.4406705975766305","0.8758551778379485"
"-0.03618616631101374","0.001653486207159295","-0.04809069163109464","0.006579797756232573","0.008136806940046178","0.16088557903740852","0.5035223596628867","0.4099184963183134","0.8860371452164316"
"-0.07203193008332283","-0.04716737457969744","-0.025734336925354605","-0.02327959224520442","-0.04969530175798795","0.16640431235165992","0.5279867983325461","0.3639816380680086","0.8962517994885857"
"-0.04321474744283906","-0.03349473733211398","0.014881118712387122","0.02052744002805265","-0.11734902291060334","0.14251164327566831","0.5802593347155531","0.34305807196089094","0.8846642956822542"
"-0.024950064693424513","-0.012409812657746676","-0.025695097134185177","0.058958478538093446","-0.033188731969195376","0.07017109682395084","0.6269869698511095","0.3497731382588247","0.8766886936265563"
"0.0005386515124400687","-0.035952342720534734","-0.036622346348787534","-0.01779577052685199","-0.0025171942302871534","-0.024681221933393675","0.668364750516763","0.36849352937231766","0.8672585248025036"
"0.002300610892062029","-0.07249442115022298","-0.0006504036829059393","-0.10210760394732177","0.03861017968279491","-0.1786135951331902","0.7007982432405478","0.38020861556596236","0.8856449024923809"
"0.012725055811825415","-0.08396913236150116","-0.03613081633308628","-0.003700249916559489","0.051366452986298515","-0.41916872479102324","0.7137549220348431","0.45892924542798663","0.8701513148923777"
"0.02650974020420116","-0.0361112664840294","-0.020560880247490507","-0.028792296451539755","-0.0053874753884282185","-0.5366056223620984","0.6862254625751357","0.5874653769422657","0.827298797289837"
"0.03277384278552384","0.0021818817528438434","-0.016736033234554665","-0.06207840110222741","0.08850563668681802","-0.5637381810486993","0.6084017983332703","0.6892335919172372","0.818702144254392"
"0.052945870633862475","-0.01782360779064989","0.005644071871103713","-0.030170953877923297","0.08437719926682859","-0.4559602802193659","0.518958918914585","0.7833368687407366","0.8015742119708442"
"0.04054475762318987","-0.00887194116452558","-0.01867323976702433","0.004615692298435735","0.0867298102719588","-0.36009837788298504","0.4453705561280594","0.8556590562560068","0.770015016131597"
"0.014231868068168781","-0.04386840809042258","-0.031386932105919085","0.03279864642238553","0.1049834869109498","-0.3284275468579276","0.3661258367926261","0.9277173904786272","0.7229295457986756"
"-0.0016690932184195834","-0.05918637371300963","-0.05595930238664841","0.055828579590347","0.14169427043861244","-0.33318423872069486","0.29677277546144004","0.9848812063311749","0.6683097464746134"
"-0.02220602959401326","-0.10086387101013333","-0.036870176608804976","0.08498448845948062","0.08610755303764155","-0.3764798422062906","0.2253577910533121","1.0400265444949528","0.6265358963632123"
"-0.016737215781853297","-0.024509831748918885","-0.007872177459814186","0.22629591191419468","0.008882079642993838","-0.3428917731345056","0.15313475570962623","1.1429820992868478","0.4942520376771081"
"0.056052888621862515","0.1316530208740541","-0.021060671271859017","0.0619949907746952","-0.003402714140661701","-0.031233807662715912","0.11880652286108412","1.2108055881624413","0.35435213276568617"
"-0.029379033625807578","0.0010391887317949507","0.01711055842646069","-0.22831444893658093","0.06467797120657752","0.31236679979771786","0.16405737525234398","1.1508317347431751","0.44708485011000954"
"-0.05211119808093029","-0.12614625273209498","-0.046419902628143724","-0.09858394041340851","-0.012715990300746868","0.21130651278274137","0.20498933471217246","1.0622693770653184","0.5934567599682683"
"0.02020519921088717","-0.017278281151207418","0.010169142631197175","-0.026292035741820426","-0.11989788427424898","0.293946753247512","0.2617200831534318","1.016042280193099","0.6445300313290386"
"0.052885213015875496","0.03899631188703079","-0.005934144826477792","-0.14148406256400267","-0.15989705795557277","0.4487091206396893","0.33737036901689926","0.9339970988436891","0.7259367400163979"
"0.02131244144398294","-0.08176912889037893","-0.03210357460780285","0.044550930782625724","-0.051131279991027755","0.5438186890589999","0.44422813928813226","0.8138910800295664","0.7901011122923608"
"0.026753333495482236","-0.06872803182714028","-0.006224312755914879","0.1526263125658225","-0.052744362206142474","0.3955603697240757","0.4968350415755085","0.7787326287840002","0.7427541468100721"
"0.06563486662514","-0.02068111938132847","0.005625691126819087","-0.0386306346081134","-0.05813646047120694","0.31501210292548126","0.5437577234886131","0.7192732892854005","0.760241634924"
"0.032897083660164056","-0.055850013397030135","-0.022287431058945355","-0.061225404957132565","-0.055884367942389504","0.25409732447881905","0.5719280509316945","0.6218058829806182","0.8208758226835066"
"0.00024788007383579936","-0.04093818628115167","-0.02493301908463154","-0.04024324018715839","-0.07867094920367616","0.15582795360781315","0.5598072868983214","0.5586525973849235","0.852336957841741"
"0.0017970563808367465","-0.019223798857256478","-0.02198383899042399","-0.07846921303252063","-0.12734343141256035","0.17479404896879583","0.5650178222414034","0.489523034710714","0.8786172203531389"
"-0.004942678951050549","-0.03834970249926471","-0.025878904577031445","0.008737319608554868","-0.09164261924213575","0.22222263523107155","0.5660766476052385","0.42130376589614593","0.8956470919556742"
"-0.013309578955922049","-0.0329275976270938","-0.040502955170227305","0.10394969281864924","-0.048577632033271964","0.17284283455161986","0.568445072761185","0.3975569695576771","0.8797122312911138"
"-0.025672179193269574","-0.006635582584107197","-0.041581016801303175","0.043642095160763936","0.02351804845354655","0.12333440904118523","0.5718723232809663","0.37709514671269634","0.866980686206301"
"-0.06553289958471722","-0.048550946167768644","-0.007609270858979013","-0.023545311134647067","-0.012020019517133575","0.059252547492017235","0.5574945893931027","0.3508417440940558","0.8768848149885815"
"-0.05648239785332575","-0.0357653735870116","0.020251187396531718","-0.05297752913881703","-0.07087837399238016","-0.01285404738032739","0.5845503638216212","0.3384010613456246","0.8794180492480758"
"-0.030755865272178846","-0.031773582586292676","-0.028784714375735945","0.009030958236380974","-0.014478892911508735","-0.045207803451396446","0.6052531860671297","0.36361224345829907","0.8753158440923787"
"-0.01389689874912937","-0.03498218066103136","-0.06151896121970634","0.08181896777655526","0.036157050201351904","-0.05165603318577021","0.6432594438637299","0.41234594661069024","0.8575014870417422"
"0.012933024787780788","-0.042061039799698934","-0.04021795037120725","0.005562941629314764","0.056835136757125114","-0.11938550079092755","0.6827146205792622","0.4471481959111796","0.8391804831392066"
"0.024897980640546973","-0.057713472427810705","0.0011734205056057503","0.02660816649805159","0.04933454378654719","-0.2937473801645888","0.6982347713070527","0.510947922073866","0.8171168299113537"
"0.02753706843264741","-0.025336650806054527","-0.01738039191060001","0.052714084636191434","0.04774300124492807","-0.3631319823873009","0.6922997765045046","0.6095235122077768","0.7620884444164053"
"0.023798440962116217","-0.02372456138812172","0.003475970146384463","-0.03239875645100398","0.06564964981093445","-0.4366422867358825","0.6468538773356959","0.7108035985913466","0.7184350979189278"
"0.02973133369284328","-0.01367912533088707","0.010225090312396112","-0.033173769878545006","0.03269155606561584","-0.43033238936690554","0.583881632012883","0.7949596062819538","0.6970415260113284"
"0.037570608703161326","-0.0254218256335484","0.0021145559180219846","-0.029711722318995264","0.058771314074673786","-0.3699029876409339","0.5327515124698029","0.8557777902376992","0.6820545852632239"
"0.020595141040803504","-0.03561060469315079","-0.023551365385034304","-0.0030392260415909537","0.09048967994546803","-0.35822967750832646","0.4577142307643454","0.9142212945595976","0.6684078071556262"
"0.010041678330401142","-0.04530183811409994","-0.04250005401553453","0.025186185339693704","0.06790174233975188","-0.357792838459705","0.38276054053497977","0.9755539924360096","0.63817243051005"
