"AccX","AccY","AccZ","GyroX","GyroY","GyroZ","MagX","MagY","MagZ"
"-0.005241152944319832","0.06337708689844757","0.07240025028505181","0.09767256543036659","-0.1505320865790982","0.41541227760031857","0.8509842619529198","-0.03755953755147795","-0.7722343444953117"
"-0.004047256971242667","0.05772334804418966","0.021947998576784467","0.08275187213840278","-0.2880006761250538","0.576071972148886","0.8006343295200333","-0.1851656657920108","-0.7443360807472047"
"0.01812454663200026","0.0062688192681778785","0.009998222361871813","0.03222869865952306","-0.2310593525909154","0.5412704612753746","0.7466620997898177","-0.33335622907576257","-0.7021046141244108"
"0.05235084828599015","-0.023175079879045397","0.0033241741121237795","0.015056134054492808","-0.2706732054463735","0.43439050737931856","0.6639065384585107","-0.4631456637301275","-0.6990483895661823"
"0.04298839309066557","0.00517993180888731","-0.014495234633563631","0.006693498483925238","-0.20441477647686182","0.39238115220355263","0.5775565436552377","-0.5626447403883121","-0.7114857526079572"
"0.01421357450083938","0.04085146117854367","0.005725855856909469","-0.02816650921191035","-0.1660526179812034","0.32559331543653497","0.4765501767104607","-0.6573548797849055","-0.7439274945763185"
"-0.013742847655829088","0.08294444543905209","0.0118679777585734","-0.06276002781862375","-0.19235495261638252","0.3020768133190785","0.40981631496349796","-0.7118273920524266","-0.7744733967117678"
"-0.0233806691804279","0.06377387694848","-0.0052414592497290425","-0.11507584105164186","-0.17205022040119966","0.3449598465920873","0.32251895009784637","-0.7533710929801147","-0.8120796678801304"
"0.07199236268177595","-0.08619406505042645","-0.07177706873226161","-0.14482480367402426","-0.05345756472855224","0.1260962025819144","0.25453121620950003","-0.7664977942894349","-0.8860664517041966"
"0.017997454480027517","-0.030934298920255492","-0.007592129265994476","0.15324247230945762","0.23996065422258142","-0.25860610558659397","0.31457775986908454","-0.7515373125961996","-0.8588219258295073"
"-0.08285401938766758","0.11687207215164185","0.0370183501632284","0.05238001052518928","0.24960564135449878","-0.21276470120097632","0.4194850623648324","-0.737421161439443","-0.7859791832839222"
"0.002768541087961636","-0.01961227916802122","0.06083896865523816","-0.0528379304468997","0.1857788021929345","-0.36856820165903487","0.5150301195382505","-0.6758641882642786","-0.7699462619383493"
"0.050329890505757084","-0.05833358672066244","-0.027213057476792004","0.09671751782773219","0.30235390844816096","-0.5157344233724053","0.6260674636140948","-0.5988190268105797","-0.7076613860484627"
"-0.010344095409891627","0.07766256741702353","-0.06328475182233062","-0.01950946481383713","0.3325333843125476","-0.5461432749236674","0.7431791216193082","-0.4789900539537393","-0.6539568197471856"
"-0.01032483902322912","0.051524282550489284","0.10474829497382837","-0.15787006074629872","0.17427661654628562","-0.4254543533239657","0.8024176143433345","-0.35594207092657293","-0.6653808890851626"
"0.056769226205708824","-0.00824559456722308","0.10033072058901747","0.026805530165934708","0.10105847974064099","-0.3614088950288495","0.8110554002061982","-0.23508407022839886","-0.7174020803623888"
"0.005894815462624209","0.07516029718003892","0.048992682226404446","0.11267220418948369","0.04856150883776076","-0.3043771303477115","0.8216993814952751","-0.16023152963661844","-0.7513637628864467"
"0.030200226708076015","0.06261362960322811","-0.011608012104360434","0.024527664613683685","-0.0468975375006154","-0.2709346742921336","0.81763126299212","-0.10743844357681238","-0.7957689079383546"
"0.02009351216824447","0.036743333828077006","-0.029342332460775188","-0.008282841734885636","0.06306249569440772","-0.27712322748093793","0.8272442827427262","-0.04136034423209622","-0.8155117917155742"
"-0.005761075384208282","0.027151817278340193","-0.04066404483923864","-0.11648145546680944","0.19478717230820417","-0.19958672323422827","0.8562505249467298","0.02857397098469462","-0.7873520328180997"
"-0.0449863350157923","0.034456078094643995","0.03681389019871402","-0.046024551531734646","0.022390805540610303","-0.10217404227524116","0.8543279209966086","0.07307019025713232","-0.7724631527510081"
"-0.08466411973394586","0.02296786355705582","0.01018105913619968","0.007243035955279798","0.05305612070717535","-0.03602690277953495","0.8624362941775551","0.09230509529129213","-0.7466731936446734"
"-0.06818065275081582","-0.006585724148501026","0.019632850897788198","0.03428898280230294","-0.07699564126512973","-0.020817865925057355","0.8748356964645689","0.10379590618618456","-0.7297740696168218"
"-0.057425960799789955","0.01504972075235106","0.015400736157557023","0.03690381071435442","-0.07878343416526427","0.02765937674227025","0.8613496049883561","0.10639486111878366","-0.7503994995231552"
"-0.003768039364635892","0.04862729969828915","-0.02388800148822466","0.007765520162890377","-0.10539689741760201","0.146193225702106","0.8449099480235509","0.0908143241878216","-0.7831190800877192"
"-0.009111686663489398","0.07996540391158348","-0.044177038774985876","-0.041665221345516285","0.13047449384446141","0.35614778000400416","0.8515136746348371","0.031845751813550344","-0.7543382702104978"
"0.010566414866955233","0.007653845060620923","0.0772308751032251","0.14390380119498802","-0.18209728143836817","0.3665348418267816","0.868649927233744","-0.08495154671074559","-0.6957960436459285"
"0.018272820809301777","0.06995009065919422","0.032336423501065574","0.02107428180052881","-0.22431982808384862","0.4238578325403339","0.849646798335444","-0.18362872036232653","-0.6712645299459233"
"0.012262902531924571","0.011717203690782874","0.0004363320072705418","-0.038970485216712134","-0.21186511020928334","0.4424962986148505","0.812197817046125","-0.2939629324831692","-0.662504442442124"
"0.048926099918058276","-0.0183190759944862","-0.016203198175517165","0.004401191687682764","-0.2853680493644809","0.429803697368793","0.7416744750496478","-0.4068393710786913","-0.6860880362256734"
"0.045102744346211934","0.014071145081839143","-0.014889697797424724","0.010626523147516066","-0.22953242906978308","0.36825792918523303","0.6482192047785356","-0.5273807478256858","-0.7326668597066957"
"0.006930809065068595","0.03431065765745933","0.026190646103066383","0.024032811319576738","-0.17158352747546174","0.35447323031762185","0.5788940072727135","-0.6055340931085134","-0.7563321707244223"
"-0.02398724536029776","0.09376476468299928","0.03216707282338699","-0.0266588433392032","-0.21251848030531648","0.3654184753691934","0.510153950099537","-0.6611279818697955","-0.7668900373801207"
"-0.02512337217338732","0.08524208834656972","0.007188673966662418","-0.1239523923583851","-0.22124444136808835","0.40851992816651295","0.3995066995787896","-0.7244000014471828","-0.8231768682813986"
"0.040767168889142155","-0.05561734069753468","-0.07907773514194208","-0.20142485262450519","-0.17223929086854992","0.30059641432097234","0.27091514552357693","-0.7549542127360126","-0.9218259133801535"
"0.07136653011524356","-0.09764592447871845","-0.03613907734175352","0.07206920258312915","0.14226866173182834","-0.13933691089491204","0.25391821205149034","-0.7504687067609684","-0.9645149965143398"
"-0.08920862698630416","0.09948290401658182","0.07025445328373413","0.17740748725514685","0.2973279846325217","-0.1878357528263104","0.3717543295161696","-0.7453895308774626","-0.8656698300535595"
"-0.02925386711250112","0.0772875904325688","0.07722467934672467","-0.02281939793667696","0.13544297853077913","-0.201804894847784","0.4333612473961424","-0.7223947164230452","-0.8179469652940556"
"0.04812695987156307","-0.029700302639002803","0.06002525930151423","0.01822069198781873","0.16795352572680036","-0.33963974910587896","0.5009310239040277","-0.6713259116307047","-0.7985636373472161"
"0.03657601633204139","0.006564126627403585","-0.018960309818211202","0.060275519990113484","0.24453185159775812","-0.483286989594243","0.5808723388735632","-0.5961673012194506","-0.7569532217041693"
"-0.00855325145027588","0.05779294211055661","-0.020705447899167354","-0.0017555920006711333","0.28028770960044924","-0.427080365338279","0.6776434043630003","-0.5000851247010791","-0.7020065534433982"
"0.04248965267610592","0.02707287475529709","0.020920742149012173","-0.07151238442704053","0.22095069571418946","-0.3801444364475042","0.7430955301432157","-0.39303984387311436","-0.6979370351813721"
"0.05194838980474316","0.02735021230335641","0.05665889826961065","-0.008837770603997002","0.23771095499081904","-0.3874978937659658","0.7948665176696698","-0.2908494636299032","-0.7047685959585887"
"0.01635777315571266","0.05601258047245298","0.06187985574731141","-0.01750598289742361","0.162602113511672","-0.3109782537491028","0.8424579313915119","-0.1930482829099192","-0.7067461530256778"
"-0.007291958123879829","0.039847021444561044","0.06942009140834207","0.02842968874017287","0.05491810581601697","-0.24474860021087919","0.8638294854457588","-0.11790022663037117","-0.7305095247244169"
"-0.0029303865448156345","0.024013851987376916","-0.02441877129509535","0.094949909563179","-0.13666532344204377","-0.21432276047439291","0.8444362629923616","-0.06303853075619181","-0.783740131067466"
"-0.003296257891403804","0.04730708987213413","-0.062450389946938564","-0.0017683002953836073","0.08357065815927123","-0.21440527451691033","0.846108092514206","-0.014448627648294741","-0.8144167807775994"
"-0.01692977964847864","0.025847188213312097","0.001316749005982503","-0.016304471397335155","0.07668753582890042","-0.14127356401046728","0.8636901663189384","0.02679823832516247","-0.8086802309383574"
"-0.07986927945497461","0.040009061360281095","-0.007314765899991624","-0.037815185697396315","0.04467958101444316","-0.09384740463179503","0.8692350675663897","0.05020730244903979","-0.7958833120662028"
"-0.06376131201176402","0.01834453237199208","0.02844714062052519","-0.005679374268107434","-0.060520184338053014","-0.09767945384164681","0.8606808731796178","0.07109129056225993","-0.7983348290915199"
"-0.0607091747257522","0.005797657051699578","-0.0005264885528972184","0.001918549295633007","-0.07005268650838227","-0.048144332611574185","0.8495353430339874","0.08607815758476028","-0.8017015791396218"
"-0.007397868250523765","-0.021936928728158857","-0.04062687030023603","-0.00853739272897489","-0.11557558979279917","-0.06579991082669241","0.824207125778042","0.09557687612014781","-0.8340942907674768"
"0.006543755693151635","0.014851325727334844","-0.019807063206604126","0.010541801182766238","-0.01676233763174753","-0.060210797887940905","0.7979594022850824","0.09858480365635389","-0.8824218630598919"
"0.010877405511555168","0.08809440635020599","0.058166532351383415","-0.05354651415208008","0.055609768664931135","0.11970621805402346","0.8039779885637225","0.08954782838310323","-0.8779110717333088"
"-0.00015554122674431148","0.08240638982146885","0.07319950287360806","-0.022959959378193714","-0.045346681008932396","0.32498659453567175","0.8141482848216105","0.049508091223518194","-0.828423114715577"
"-0.00015457840741118698","0.08016795380623354","0.0632862924729104","0.1404956676130064","-0.23511838439630794","0.5613650575119626","0.8142876039484308","-0.07457023891144494","-0.7789515011446804"
"-0.014782692535605988","0.014545942809247057","0.008252051654832256","0.07143186234830659","-0.27622565461412746","0.6639494274299075","0.7743030145509809","-0.2366539973196643","-0.747277901177585"
"0.0360580195308192","-0.018540322802488577","-0.011178439653663537","0.058797699354988665","-0.25494924379458767","0.5653694154576596","0.7139499688123918","-0.3889105398431472","-0.7267505319522641"
"0.036357456343421614","0.010581262332888983","-0.0031716635281500436","0.0047162996315761535","-0.22010523196987677","0.4184216132685999","0.6413089760882448","-0.5067078423465854","-0.7281887552737834"
"-0.006348395177415602","0.03813106028578206","-0.002282572470337474","-0.07026466094617943","-0.22039960750764992","0.4110924247861728","0.5504450415759913","-0.593660694939279","-0.7603853455396131"
"-0.01067145398315473","0.0470764946074556","0.03268751636942361","-0.07075084949389152","-0.25384832714925715","0.34687708463881495","0.44665229209480667","-0.6717084989050467","-0.8194505624029166"
"-0.005924754670839843","0.04879972678809382","0.03800141019463092","-0.04425020401998543","-0.2150122958366956","0.36257902155315375","0.3396830665221176","-0.7383050699698194","-0.8685135898029271"
"0.033586462302682814","-0.024982448169769033","-0.06488738750377675","-0.14400646651450888","-0.1687690101387037","0.2414629684392444","0.24196463097030185","-0.7680149507221705","-0.9230189849991411"
"0.07198851140444344","-0.07429971200612968","-0.022217212485273745","0.014488111790829197","0.09782992201335651","-0.08472232228281296","0.23731137213450093","-0.7538856069007815","-0.9608867513168707"
"-0.05980412455261304","0.06986803198392573","0.06073777129906437","0.14470288336251483","0.2591548966042135","-0.1598028203228285","0.32809171517066166","-0.7503103947853788","-0.8853800269371078"
"-0.013588796562528807","0.07937956729321098","0.07758609847591677","-0.02142629926630196","0.14094756175743173","-0.18485068599406357","0.37189364864298996","-0.7350464818055962","-0.8478064426624162"
"0.05056096714570751","-0.03028510053996683","0.04649579235672873","0.018050285308719646","0.2033479958741765","-0.27450219318920904","0.4511940956291512","-0.6879750543968979","-0.8227192517700059"
"0.028776216914381543","-0.005431709107699899","-0.03569504812588894","0.09852941257385918","0.3178385403944402","-0.42006667172430073","0.5598072868983214","-0.6316951470747265","-0.7544036439978397"
"-0.014185744549067389","0.04933466625345168","-0.011011154228151764","-0.034109562489190816","0.30826535217417483","-0.4633137375378275","0.6730180093525636","-0.5329480523005936","-0.700535643228208"
"0.02169660635790052","0.0501375948101927","0.05096706329787674","-0.08782039989178277","0.23854860896009228","-0.3747324860118047","0.7412843814945507","-0.4140425659680268","-0.7007154211433978"
"0.043271461974604845","0.026800730794280084","0.07829034946479967","-0.007640302652226154","0.18290923902390993","-0.27629808705576403","0.7840553534284078","-0.31041418527987513","-0.6974794186699794"
"0.024372281284659767","0.0425580738806465","0.029713759774430998","0.06042955992602227","0.15531213068193994","-0.26870194137695713","0.8320089968799835","-0.23508407022839886","-0.6937857996851686"
"0.0069683590190605365","0.054507478947591746","0.017470944929569385","0.009868935487724715","0.06405092737815013","-0.25086434689157994","0.8595941839904192","-0.16503629809576864","-0.7078738508573235"
"0.008482873830068932","0.033218965661165924","-0.00721109024121766","-0.011484946902589319","0.02026316445865632","-0.24960236741778455","0.8772319854458798","-0.08756501357444041","-0.7289242103813786"
"-0.01596696031535189","0.024465694060057823","-0.04388583821946539","0.025397027501968837","0.07732415284554807","-0.2055374418298942","0.8896313877328936","-0.02809380067767161","-0.7446956365775843"
"-0.02037667286107243","0.026586755008136943","0.012943705654700773","-0.02259122628161208","0.06076253722448898","-0.11053708317273911","0.8970431652797376","0.010750681066210504","-0.7418028464877104"
"-0.06338581247184456","0.06156037015104778","-0.034699596581485546","-0.0186699471631343","0.11476967856911607","-0.10612258189805868","0.9078543295209995","0.038538390581608836","-0.7398743197611278"
"-0.07696156506893181","0.04382530911896997","0.03603529013182589","0.008062432139354543","-0.052165184318816414","-0.08120576794141002","0.9152661070678442","0.05574822159468253","-0.7306729591927714"
"-0.06583137357798655","0.005027032606361725","-0.015001221414432574","0.0017091512577570142","-0.055017994408455485","-0.009927468442923804","0.9023651559242765","0.07201477708653371","-0.7422768064459384"
"-0.013646565722516414","-0.01065749638967152","-0.045259230910395375","0.027866480224506406","-0.09070444679654975","0.020097207433911704","0.8913032172547383","0.06445538025212112","-0.7714171721535396"
"0.016053522246444598","0.04091690037527677","-0.021777313773742788","-0.009015494180051752","-0.005792899909556458","0.03827213874016882","0.8722164968803459","0.050563504394116825","-0.802698529396584"
"0.023358432526877297","0.08404340845720473","0.009125839194088749","-0.03650103249417457","0.08239315600817859","0.19928858517844375","0.8881824688139615","0.027910379953680755","-0.7722506879421474"
"-0.01925017424131412","0.10206723292883496","0.05776793868318869","0.007037970290601239","-0.11092780691186034","0.34090695097432133","0.8904394386684519","-0.028783777037950455","-0.7334840320484681"
"-0.029234610725838578","0.05796329176554436","0.07897188267984763","0.05169934655839237","-0.3562814411060966","0.5090171781854884","0.8478356496867793","-0.15011143659704096","-0.7037226153611201"
"0.019643875539674272","-0.009009051862442547","0.01691497904626359","0.07504121059656911","-0.30157067042728","0.5360041238558823","0.7697612110166367","-0.3036199629941465","-0.7054223338320064"
"0.05923885779517895","-0.002152893736149191","-0.05112454706414148","0.05547910148575396","-0.21866207384567174","0.43890451088174054","0.6866434199555969","-0.45840949712706625","-0.6805639511952923"
"0.029593650528206162","0.012566874530904675","0.002111044989338404","-0.004396799251746986","-0.2501387167139043","0.37925171190887363","0.6153120270235614","-0.5593333815655589","-0.6887029877193447"
"-0.0065024462707159005","0.040454671128511234","0.003904303445781274","-0.027283667829233176","-0.23215308934508072","0.34678000929467684","0.5234171309728374","-0.6290434214835976","-0.7278618863370745"
"-0.005866985510852218","0.06355470757529455","0.02340627313177043","-0.047542807650035525","-0.22112477651533505","0.3450569219362254","0.42625597192830306","-0.6952574052740284","-0.7691127461497416"
"-0.0007043482466265656","0.03267987132617421","0.008509795125250394","-0.1077011791200092","-0.23429987680347528","0.32423426061860144","0.3053826974989394","-0.7553631853396197","-0.8267724265851967"
"0.05370457226836636","-0.05431167291509812","-0.08069276233638907","-0.15763900084243557","-0.13744314498494034","0.14836285964359272","0.21000482327770628","-0.7623025269363054","-0.9140137457928101"
"0.018074480026677667","-0.019536452797203497","-0.018460518793842695","0.0818045265325638","0.13260692152052553","-0.12313018219105504","0.2254135187040403","-0.7489647429928654","-0.9192273053333174"
"-0.05426791338713421","0.09673134160156634","0.04170234207755805","0.09634589648235227","0.23862040787174427","-0.1360727524482682","0.2852371517607123","-0.7493473302672075","-0.8635124950712806"
"0.015141732337973564","0.023456060739032895","0.05570062126420987","-0.00839095851490161","0.19252789988822158","-0.24324393237673855","0.3545344854411705","-0.7210094866366346","-0.8304660455700077"
"0.048495719676150614","0.003965328381650603","0.018750162121692747","0.06166476766209075","0.2737540086401182","-0.3490317886512408","0.43907333159577805","-0.669201892624875","-0.7886431651181"
"0.007161885705019025","0.0445326756741325","0.019205343699258113","-0.037004550534676384","0.27097778405624123","-0.4122278376851486","0.5881169334682228","-0.5815762141359249","-0.7126461373332739"
"0.00020359038451196921","0.03491207503695875","0.06045483175221113","-0.0634743880214007","0.23347481920335159","-0.3671120714969633","0.6774483575854516","-0.47951776053903855","-0.7007807949307396"
"0.044003204667781175","0.01242405088724117","0.025356490752891016","0.020493743792072607","0.2194046258166166","-0.32709276087602857","0.7118880457354502","-0.3955464501532861","-0.7151466846990971"
"0.04518265835086145","0.03241084351738259","0.007388796901626501","0.015797451246053796","0.1979080316680107","-0.3430131173146782","0.7723804106008598","-0.30577036732924123","-0.707710416388969"
"0.024835397383893735","0.05081899343014368","0.02940603720157601","-0.029821475773330264","0.15873215217362974","-0.30549349680529975","0.8202783264017072","-0.20792565081596995","-0.722174366838339"
"0.004584418350238706","0.046812660385706285","0.040938198775837605","0.01690365053579869","0.09735126260234324","-0.2515196054645122","0.8704332120570448","-0.11544902954165588","-0.723007882626947"
"-0.008158495523693908","0.038774026361619945","0.05900089422677547","0.09210113349846606","-0.034773094619649295","-0.18049928369307294","0.8922784511424808","-0.058976509315850384","-0.7484055990092306"
"-0.01956790462124596","0.05514732887120425","-0.04503824892854649","0.11002464279105159","-0.06778623419723442","-0.1353034303459737","0.879879048855467","-0.023473729523376164","-0.799037597305444"
"-0.014994512788893877","0.03979820172636334","-0.07208066080078297","-0.007348204423759137","-0.056075831706794824","-0.07194720699423804","0.888823336797335","0.0029564548013397045","-0.8079120889370914"
"-0.02880134202593154","0.038197538199923615","-0.07964567948781538","-0.021580339202210735","0.07346615799278114","-0.0956602866835742","0.8817459251548597","0.023864189710898306","-0.7999855172218999"
"-0.07893534470184169","0.03555400239538818","0.03860239857517322","-0.012697048648271505","-0.02006891684302719","-0.10072033899677302","0.8833620270259764","0.02030876659244421","-0.7676254924877159"
"-0.07616242502243663","-0.000920767146231733","0.05119837154055969","-0.0607459556566165","-0.06141288413959276","-0.02238636079796882","0.864331034302312","0.039109632960195324","-0.7606795275826512"
"-0.031073595652110687","-0.0031900530684983593","-0.03796889076154896","0.03199282500766275","-0.11112645056743085","0.05255920251369474","0.8565012993750065","0.04257270742622204","-0.7721035969206282"
"0.014406138367464728","0.015288625756297287","-0.06363171418635503","0.00043177508923348813","-0.004545992143866893","0.07860937111315582","0.8485043814955169","0.02393674936637696","-0.7955237562358229"
"0.011363629274784175","0.06483544613992802","0.00508645378606447","-0.034520656568147366","0.15937834237849766","0.14128849393952816","0.8610709667347154","-0.010807452209729515","-0.7752578821598693"
"-0.006001780217489975","0.06484894946623802","0.11234429244336294","0.010480185208402729","-0.12169285706554875","0.2201161002632746","0.8528790020776764","-0.07028262290588806","-0.7546324522535359"
"-0.019327199787964267","0.09073274856769913","0.07607433388981037","-0.023636772346592904","-0.26713112580487536","0.3710245764931691","0.8140646933455183","-0.15283704111011187","-0.7522299655687253"
"0.001522652870895611","0.0010192453575524833","0.06476914352868142","0.026811306663531285","-0.3821290493008131","0.46356164829281976","0.759925280663118","-0.24489941271496599","-0.747424992199104"
"0.04969154128789405","-0.014407266234218835","-0.02222340824177418","0.12858645506805913","-0.28407566895474506","0.4397053824708799","0.6777269958390925","-0.37493950799734804","-0.7473759618585976"
"0.05387210283233042","0.030003096564568","-0.015631123325310237","0.10489318742609047","-0.21452645653451713","0.411286575474449","0.5894822609110625","-0.5012856571826351","-0.73868124814214"
"0.009665215971148586","0.059373870006235556","0.005644691446753758","0.028421023993777998","-0.22932899882010246","0.39250249638372525","0.48320963097247527","-0.6200328315396119","-0.7526875820801178"
"-0.0048849097910629415","0.08618939862308694","-0.03176487325244568","-0.11066644788625314","-0.24559384560633332","0.3612199667352203","0.38733020789468825","-0.6936874781827629","-0.7898035498434168"
"-0.0046249485711187255","0.04144872368840924","0.016689866560081083","-0.1593238126414378","-0.2293960111376443","0.41167487685100146","0.2921752442763673","-0.7327641508241766","-0.8504540810497587"
"0.051094369056259734","-0.04447813520918969","-0.05696301493971905","-0.16406054067063267","-0.13877621144461227","0.27154661758764376","0.18841035862054697","-0.7598223059853988","-0.9350804487637006"
"0.04041381419388464","-0.05275879038944764","0.00643774827880957","0.055525313466526595","0.11706006385081458","-0.08871454581049261","0.18556824843341113","-0.7540439188763713","-0.9562778993092748"
"-0.07363983836964452","0.07496086343761424","0.0561012801845714","0.15212568277411898","0.2491987808551375","-0.15898010678125804","0.2572061434444516","-0.7549278274067476","-0.9086367517839482"
"-0.012741515549377254","0.06600296450703916","0.06804256821307846","-0.009519974970152995","0.14889330798025197","-0.18978696724348637","0.32463660082551643","-0.7415504654694103","-0.8592305120003935"
"0.049395955752624135","-0.028640810882371703","0.04039916796029967","0.014141521935034452","0.2113463946322082","-0.3262676204508547","0.41856555612781804","-0.7026057194743212","-0.8106577880054465"
"0.03359512767668095","0.0157975972864436","-0.007330874866892756","0.04248198189345097","0.2916319376414638","-0.44477234680744904","0.5255347817005072","-0.6284761369044009","-0.763343509416829"
"-0.004451641091155902","0.06877737870504079","0.02500560440974965","-0.0302258306050908","0.2654253348884873","-0.3827897395752676","0.6228073960464982","-0.5357976678612099","-0.7303460902560623"
