"AccX","AccY","AccZ","GyroX","GyroY","GyroZ","MagX","MagY","MagZ"
"0.0264211608255535","-0.04450721929662662","0.014810693613498831","0.0726834368275654","0.12348367314661261","-0.07744895212326527","0.1146269490564725","-0.7922234903227763","-0.9727847806130757"
"-0.0665823726578254","0.07587805090928605","0.07562410891744537","0.15302103990158872","0.2347911325836381","-0.13891706003151474","0.21003268710307021","-0.8009042636509499","-0.8869816847269816"
"-0.02138763316085551","0.07077171612928755","0.07680956366119546","-0.002579320557943314","0.12305287967670069","-0.17663083122916937","0.27336716215561596","-0.7873817824026552","-0.8357286354510215"
"0.04688973702849519","-0.023231170619102338","0.015646707690624335","0.027044292066593315","0.1733815234476908","-0.32541821118964626","0.3400731600772147","-0.7422892546888291","-0.8152666400130425"
"0.032536026410241524","0.019190048342480035","-0.032791303579351255","0.06125463633273365","0.265233871124082","-0.43807414806191963","0.4390454677704141","-0.6677902775091993","-0.7722506879421474"
"-0.004268705417861818","0.08315322763815293","0.002984440130683203","0.0029019980114505994","0.28658208085527376","-0.38276547073923306","0.5627329885615493","-0.5706263024909641","-0.7236779639472002"
"0.03762067530848391","0.023206768561002046","0.03157228019934513","-0.07006633452869689","0.25470336408179006","-0.36745183520144664","0.6485814345082688","-0.47439900666163526","-0.7149015329965654"
"0.054471939276868386","0.03510527647493266","0.03847228768866406","-0.003782950107150513","0.2584847734287949","-0.3960647928861537","0.7222812525962508","-0.3778287015518618","-0.7142314516763121"
"0.022439902883074368","0.0600126812124396","0.05842055836790129","-0.03802410236047259","0.21018085896639094","-0.31061422120858495","0.8020553846136013","-0.27807896426566003","-0.7077921336231463"
"0.009954061771086606","0.039930118837237995","0.061956270077483465","-0.008386337316824345","0.1323173325768625","-0.2555482322462436","0.8547458783770701","-0.19239656527707455","-0.7145583206130212"
"-0.008360687583650517","0.05088027775724292","0.0038078561695911537","0.049023865421576815","0.060939641206563894","-0.21361411046218476","0.891331081080102","-0.11035006466120131","-0.7215369724117568"
"-0.006675753750678705","0.06223657518395644","-0.05843760498682283","0.04324062857780169","0.025116770886330866","-0.18429978341607983","0.9070184147600774","-0.05970474440356343","-0.7328793245155566"
"0.006348303368526914","0.012380528627826619","-0.07109553551721365","-0.02457641595563644","0.09677926460618237","-0.17763798792460223","0.9305354833673575","-0.023419639598382978","-0.7161763218497302"
"-0.017825201628286526","0.020859267217878244","-0.03961283148633133","-0.03795959813731079","0.011401503452862177","-0.1593198704857414","0.9398977286896876","0.015932759733849697","-0.6966622463282073"
"-0.09283845587219201","0.01978523341752868","0.022083479118927333","-0.006282151792310464","0.07080959826165749","-0.1453094714430091","0.949705795217842","0.04434052448697472","-0.6811686587282039"
"-0.05449899002708464","0.0012720691747720998","0.012463947576350344","0.0340588856480392","-0.11915356889012337","-0.09901666670714925","0.920393050934834","0.055761414259315016","-0.7087237100927667"
"-0.04746078070192804","0.03337685070725212","-0.051145199585809605","0.046799913846893845","-0.05456566126504795","-0.001225149217663188","0.9071020062361692","0.06111763610010297","-0.7530634813573329"
"-0.018133303814887085","0.032636245195018815","-0.009745567700329364","0.009341252432277215","-0.07075152924846163","0.06717632245729024","0.8965137525978204","0.04797774212615021","-0.7890680947358216"
"-0.00986268574332826","0.05919624932938858","0.047732878404649126","-0.03339135128801615","-0.0643111668732781","0.14317418249941088","0.8860090904355638","0.02760299086774389","-0.7996259613915202"
"0.003908519178383708","0.06944319656386483","0.05605377938473473","0.06048539940278919","-0.19233819953699705","0.29799964886527797","0.8573372141359288","-0.017151804631490443","-0.7944777756383544"
"0.026452933863546687","0.06999994909480038","0.022312309059010108","0.164092660295032","-0.31085666300093745","0.40701526033237234","0.7847519490625097","-0.15062595051770777","-0.7909312476750625"
"-0.0022564130116269035","0.05300653229236436","0.005306196616613269","0.059624701260898895","-0.2523884159456667","0.5649568452450727","0.7184917723467362","-0.2992927689946922","-0.7595845166446762"
"0.03988137510266554","0.005327637424370588","-0.020048697710121133","0.019076576381711865","-0.31056946735432944","0.4957178560385678","0.6356804833647013","-0.4305993600817926","-0.7412308258484699"
"0.052410543084644","0.011356145519601533","-0.04586434979527129","-0.019285144157169976","-0.18823848168166843","0.4316966665794861","0.5490518503077876","-0.5434362206834173","-0.7415740382320141"
"0.02884939118369918","0.014364167262766231","-0.0050467059703986706","-0.06589859151276506","-0.12441403581715918","0.36646203531867805","0.46690929313449053","-0.632249238989291","-0.7545670784661941"
"0.0032229918131974657","0.038902827320269215","0.017814396364910223","-0.0617164072528418","-0.12372955285941019","0.2775410200881719","0.3986150571671392","-0.6999671865478246","-0.7806021892750604"
"-0.030544045018890974","0.0881982780910522","0.06955846330351848","-0.07700005714379067","-0.13709611691195572","0.3389654440915592","0.323744958413866","-0.7468407239870357","-0.8191563803598787"
"-0.0033636552447226568","0.017687024252435724","0.01649160235206713","-0.1652158401899485","-0.16166091788515669","0.29343710769078696","0.2338005301386272","-0.7766561460564466","-0.8833697829763478"
"0.055005341187420606","-0.07422180820049505","-0.02325190382084656","-0.08131895184683299","-0.0166132352252169","0.07788373291572345","0.17757133055392108","-0.7721574474167702","-0.9517180776421852"
"-0.00948718620340883","0.013991267713128424","0.05745402035383328","0.13004020696319818","0.1747193765014729","-0.14783828415780678","0.22062094074141902","-0.7694925291610084","-0.9141281499206583"
"-0.0505610589545962","0.09502784505168892","0.07875296595016557","0.06063462559070081","0.14218489633490103","-0.15835397081156724","0.26620615903704814","-0.7711416122400689","-0.8588055823826718"
"0.0266801592261646","0.0010564314407754177","0.0581128357950463","0.01020772707176408","0.12402695157811267","-0.26695458518247117","0.32104216735355057","-0.7380939873356995","-0.8371341718788698"
"0.05838868832402802","-0.00828610454615309","0.008362129595323335","0.09418933737962942","0.21449597355667552","-0.3897306266811422","0.4062776091422603","-0.6880805957139577","-0.7868944163067073"
"0.02124504409066407","0.06679342845487862","-0.019745105641599765","0.04971030588597029","0.24627895844795655","-0.40691296259358717","0.5184295062326678","-0.6068137815778643","-0.7396455115054315"
"-0.01097955616975531","0.05910691963226086","0.01359467313767992","-0.06936930381870968","0.2173894696962507","-0.32983513934793013","0.5938568814932225","-0.5168793867782295","-0.7339579920066961"
"0.06479817662465283","0.0064513219168446274","0.01511469873245356","-0.02116924512325419","0.20472414168083966","-0.31779779667480484","0.6532346933440694","-0.4113248770537354","-0.7571820299598654"
"0.047165103357769446","0.06993554861547575","0.02088067625697602","0.005047485493780023","0.23711263072705246","-0.3172638822820452","0.7238973544673669","-0.3245039511073667","-0.7546161088067004"
"0.01107093219751364","0.057814755176134304","0.04305921275115354","-0.06030501634007762","0.13669467289057882","-0.23104641538578533","0.7936962370043784","-0.24805245956212937","-0.7468856584535342"
"0.004004801111696398","0.038461372421672926","0.006846874733055031","-0.00985790007955287","0.07296835220532732","-0.23951866604543864","0.8334579157989157","-0.17529359484752396","-0.7515925711421427"
"-0.017690406921648784","0.02866938341210297","-0.011731927234369154","0.010002757682045465","0.0773504791131538","-0.2637268299898792","0.8626313409551033","-0.11683425932806657","-0.7595681731978409"
"-0.029119072405863363","0.03686382504745859","-0.04183917332215468","-0.07300560905575622","0.07273141579687577","-0.18321982021254338","0.8778171257785249","-0.051518695999107904","-0.7606468406889803"
"-0.01748821486169216","0.017678714513168027","-0.008600591899048781","-0.03233617772704103","0.039634510822363314","-0.13813074974399606","0.8954827910593496","-0.004758615475736184","-0.7456435564940402"
"-0.033538413144915166","0.05031209933481429","-0.07413558670676094","-0.005204353615748745","0.13749642740402607","-0.09832743176376867","0.8942846465686942","0.020102961024177496","-0.7455291523661923"
"-0.0680939990108344","0.029611500101577877","0.06806735123908021","0.05127958773304095","-0.005468129499183955","-0.11815992457118396","0.9140400987518242","0.023814057585294878","-0.7262602285472007"
"-0.05575065516014941","-0.007452014467158219","0.009174434577573836","-0.00492814075567232","-0.1327259564894046","-0.12186334895005277","0.8903558471923594","0.04667298759399766","-0.7672659366573361"
"-0.03548330819783123","0.007602947907606292","-0.07009801872064346","0.019789973834889386","-0.004523016492138256","-0.03014413692476566","0.8719378586267051","0.056130808869024516","-0.8054932588054453"
"0.008576267305382216","0.034220289242923155","-0.04160373457513811","0.049742076622751485","-0.045956971757974314","0.03391830955557471","0.8589533160070456","0.03684709097572455","-0.85123856649786"
"0.010441248353648755","0.10688064939964721","0.011935015843908117","-0.07463843237638924","0.0815818283065111","0.1677293907991451","0.8617954261941811","0.01779556397995627","-0.8523989512231769"
"0.001052797036329755","0.10007705037422202","0.07957287106038992","-0.01935542487792835","-0.0626550053111722","0.33547073170258734","0.8715756288969719","-0.034675621062817234","-0.7867146383915175"
"-0.0011202861985373292","0.05622344010637074","0.07136142844514537","0.027168486764919765","-0.3332100574952571","0.45863507457781083","0.8293062058196683","-0.15097423686400532","-0.7498438223307502"
"0.011813265903354382","0.005258251101485335","0.030189180823231118","0.03819293242799099","-0.336345276637394","0.5313687761732876","0.7557178430331425","-0.2996093929458718","-0.7348568815826457"
"0.023754151272792387","0.002219794938252701","0.0173839978133466","0.07372609464374792","-0.30544781165648754","0.5154969574067071","0.6787858212029274","-0.4348605907580846","-0.7279599470180873"
"0.012046268181971043","0.014010068498221584","0.018093618457863208","0.04000290167491911","-0.28646896600981137","0.4839960082338913","0.5839094958382472","-0.549768699707009","-0.7423094933396092"
"0.014654545755411433","0.03139497789190689","-0.019641843033259165","-0.02500195127858443","-0.2854877142172342","0.4407974800924336","0.4647637785814565","-0.6516160706697754","-0.772021879686451"
"0.002278466047400114","0.050017103590811116","-0.008903357866703421","-0.07233938633295076","-0.234039007424473","0.34959519427468194","0.34361186589845244","-0.7225398357340026","-0.816312620610511"
"0.0030179112952414657","0.04158375695150928","0.03949458751123601","-0.06913054191805107","-0.2092013705869945","0.311638734716682","0.2179460135064681","-0.7745189343859845","-0.8775678593497644"
"0.019132618473783967","-0.03925754151426038","-0.05183705906169163","-0.10862541873546186","-0.15968405451767187","0.2198806925537397","0.11604800415004042","-0.8082921558451401","-0.932416466929523"
"0.049611627283244523","-0.05735823107411676","-0.013914898774689455","0.10229376350762988","0.12116456830025335","-0.12852514444153038","0.09442567566751717","-0.8009306489802148","-0.9513421783649698"
"-0.06138314825894094","0.12596084947568312","0.05668161604344558","0.12572708875775246","0.2242486590560709","-0.19145180939545486","0.2000574376227308","-0.7981865747366584","-0.8629241309852044"
"0.007963914209513607","0.040956371636798314","0.08867650261169728","-0.03099891853343297","0.12210274074583935","-0.2590429446352155","0.25277579521156346","-0.7688988592525468","-0.8404355481396301"
"0.06486075988130607","-0.024602277598271993","0.0006184872483833624","0.06895085663057586","0.20038030752589425","-0.37623715384594536","0.34818153325816087","-0.703067462736458","-0.8082716447674713"
"0.04573531664807621","0.03303615139727663","-0.07006290943380765","0.04852131013067442","0.3107543811114439","-0.5036970806992801","0.4737916579994173","-0.6211805933626379","-0.7615293868180943"
"-0.007754111403780672","0.09229913441965962","0.01831067646059515","-0.08289882393949737","0.3037180877695488","-0.4211587693458544","0.572178825359971","-0.5252831141491211","-0.7495986706282183"
"0.04464347952431046","0.021216586006389124","0.06597112028976601","-0.12346139006267585","0.2564983368730898","-0.334252067506214","0.665439048853535","-0.4182246406565239","-0.7568224741294857"
"0.04363251922452738","0.01967720680704865","0.05508311086633308","0.001013083297369232","0.2451541088320754","-0.3362663808970797","0.7336775571701578","-0.3244643731134692","-0.7526222082927759"
"-0.008803584476888818","0.050917671583947555","0.05926318125196059","-0.0015540885095104654","0.1455857714501503","-0.2554026192300365","0.8115290852373871","-0.22218164421783074","-0.7391388646535326"
"0.0008448280603743817","0.03011943291431573","0.04066558548981842","0.0038004359376385367","0.0015806089873974395","-0.2051345791517211","0.8458851819112938","-0.14687923376208267","-0.7590942132396129"
"0.00037015812914288594","0.03512501210569343","-0.044129537975149194","0.04866475982098948","0.029850712461252097","-0.19210221420118018","0.8467768243229439","-0.1007787864703351","-0.7912908035054426"
"-0.021801645474100025","0.04418470534229778","-0.025889230837865502","0.01471339519709578","0.15161209343480733","-0.14020816210855155","0.8802970062359281","-0.06085382549305267","-0.7898362367370877"
"-0.013020733155984029","0.03717440155258868","-0.045486408648744696","-0.02306393633493214","-0.01352133475977669","-0.09603645364210936","0.8958171569637182","-0.0349698174841216","-0.798743415262406"
"-0.0725807371032051","0.04103219800761603","-0.03767769020602847","-0.04637017863792998","0.09764803143717145","-0.1253750495242488","0.9011112837828928","-0.0040765547142368325","-0.8023553170130397"
"-0.06700601316440118","0.007686045300283241","0.0491021405912455","0.03452196820536496","-0.059376188345731315","-0.11566266134323115","0.8984642203733055","0.007666236075136037","-0.8072093207231672"
"-0.056222436633381515","-0.0025941408912637898","-0.004957693602009073","0.04538852293412969","-0.09198964731512037","-0.07657770090962576","0.8799069126808307","0.015845688147275314","-0.8536247097358354"
"-0.005953639250833629","0.030155788023611893","-0.06515587028546231","0.029625423742664744","-0.07566018150840269","0.006915831830118825","0.8612102858615357","0.013345678199419848","-0.9237054097662298"
"0.004333122504292609","0.0946497519150088","-0.0378883459270433","-0.07821504713827114","0.09152119097620161","0.1383786604989884","0.8506777598739145","-0.00014118285436724013","-0.9480734889978806"
"0.002671296335315838","0.08851300946581614","0.06153702388762062","-0.03508386508381383","0.020768150137275326","0.3071004623782255","0.849646798335444","-0.043655867878148215","-0.9057603051409097"
"0.014568854834763147","0.07848730903934226","0.11165862872398136","0.012304595699322298","-0.2080358349211772","0.3739853744893814","0.8129222765055911","-0.11975643454416149","-0.8483948067484923"
"0.015636621475200726","0.051978202057987116","0.04946769022477122","0.015373841422304661","-0.36458618188717684","0.4588049564300525","0.7660553222432148","-0.21958268928523164","-0.7927453702737972"
"0.021292222237987275","0.0030132400050544624","0.005499091168993511","0.06663448109434765","-0.2885272014771684","0.5372418344936432","0.6899034875231937","-0.3484486374153228","-0.7608756489446764"
"0.02177844600121629","0.014455574394710876","-0.02580662075119302","0.06679814852625073","-0.27380842458851046","0.5213214780549935","0.6002655613269602","-0.49235422322644423","-0.741165452061128"
"0.01713958245421158","0.0251554024192765","-0.01084386880263999","0.01239798241046699","-0.22538723857040818","0.4366960468025986","0.4808969334672569","-0.6330539915318723","-0.7533249765067002"
"0.009578562231167174","0.04272322994859194","-0.007798241432242312","-0.07038885564450588","-0.199623395772619","0.2870544038137064","0.3997853378324303","-0.7050199771020654","-0.7773171564611357"
"-0.01126840196969333","0.0538904808069654","0.048614741079877864","-0.06099819605166711","-0.1943126696074268","0.2878552754028458","0.3369802754618024","-0.7452971822250353","-0.8056566932737997"
"0.0012723198442826566","0.005909319173109229","-0.004667319147355304","-0.13048946213851376","-0.19304182887118657","0.2597276944388292","0.239122520783166","-0.7883844249147238","-0.8571385508054564"
"0.06633098500299063","-0.08882721368087726","-0.05682464304454265","-0.1025215862750766","-0.03570887376818024","0.0031230981346429773","0.18111003637515877","-0.777566439916088","-0.9313541428852189"
"-0.018942072054713575","0.06738030379065958","0.06452544377299761","0.15614997609973574","0.18315574862058176","-0.22374149573939275","0.24932068086641795","-0.756141552552936","-0.9114314811928095"
"-0.04841397184172353","0.09698790480145646","0.07682608567852994","0.0028845722437009194","0.12383070121959724","-0.11287659896646748","0.3138254365842548","-0.7585821955099454","-0.8450280567003905"
"0.03945099486075788","-0.027587551430191377","0.03455037382388805","0.04387796881262425","0.1717540814502457","-0.3044499368558151","0.3795562006181111","-0.7263129378188926","-0.8058201277421544"
"0.0518598104260955","0.012155023078449548","-0.019237053608564012","0.07013600138747401","0.2245095284350731","-0.44955330750625083","0.48281953741737815","-0.6673021489177974","-0.7527366124206241"
"0.003720769408424001","0.05787188463359971","-0.03659549807061897","-0.010669497991872237","0.2980459737490415","-0.44193289299140937","0.590680405401718","-0.5678426502535103","-0.7203275573459337"
"0.002199514862083733","0.029376749967265497","0.0260037407819699","-0.0842091261443214","0.2530519891137943","-0.39589491103391206","0.6750520686041412","-0.448646925299029","-0.7217821241142884"
"0.06618463646435536","0.009814065654999054","0.0491042058434123","0.011859805384385705","0.24357453277573157","-0.36973310578869223","0.740337011432172","-0.34788135283612603","-0.7176962624054267"
"0.029243184290948018","0.06604139705115224","0.05808185701254412","-0.00840780663289163","0.21377319784604548","-0.3520896619915912","0.8091885239068052","-0.25521607645756744","-0.7055040510661836"
"-0.0029207583514843554","0.05359756249777915","0.056413133261760014","-0.016686682988308808","0.07984908123864307","-0.2335825087513934","0.8590090436577735","-0.163226264508192","-0.7117145608636534"
"-0.0006234714226439185","0.04613230048316377","0.017323072874425645","0.07708223974736039","-0.04582055382583554","-0.19254390701700858","0.8713248544686952","-0.10639622307084624","-0.740838583124419"
"0.000999841973007787","0.026225281349992212","-0.033854908445259436","0.0856131639479083","-0.013669001188074285","-0.1922259852649563","0.8615446517659043","-0.06196596712157097","-0.7830373628535419"
"-0.004143538904555341","0.017031593567696287","-0.0442844318876601","-0.025822213937298666","0.056691538933821124","-0.1714494347357979","0.8750028794167536","-0.01991171007260583","-0.7914052076332905"
"-0.030332224765603086","0.022871262838068868","-0.021872315373416138","-0.036131336647993506","0.0069109601884411965","-0.176880800240325","0.895287744281801","0.01746706663060745","-0.7874991238396188"
"-0.07411161984287663","0.03135550663038534","-0.033074243126204494","-0.0091685713663611","0.11101459548971698","-0.1486585708157738","0.8936995062360485","0.042672971677428895","-0.7874010631586063"
"-0.07101134159020848","0.0046925448264888365","0.05668368129561239","0.050209010178474955","-0.09456483494637176","-0.13197617292564007","0.8850338565478212","0.042636032216457946","-0.8121940720079783"
"-0.058436921099573054","0.0007406613486030123","-0.039462068078154056","0.009538038450400677","-0.054362231015367316","-0.0696829245922167","0.8590647713085017","0.05442895513143426","-0.8581845314029249"
"-0.0065987282040285734","0.01787607082077578","-0.04315267370024712","0.017535214273024676","-0.06466298154037285","-0.009543292768497245","0.8402845530131143","0.04523630641552031","-0.915550029795342"
"-0.00216013107831423","0.07956965257895951","0.00680205876103521","-0.06653978274598535","0.0431191513345399","0.12686309780060542","0.8330399584184546","0.02761354499944989","-0.9445596479282595"
"0.006310753414534973","0.10755477699773894","0.05359406405406162","-0.05119355413107352","0.026279913255093112","0.34554229865691594","0.8476684667345946","-0.002500031290655146","-0.8871941495358423"
"0.008464580262739515","0.07842810214705993","0.05313144756869573","0.010654442885899531","-0.15589546527950185","0.47067241725093606","0.8379161278571677","-0.08932623430287687","-0.8187151072953216"
"0.004573827337574302","0.015445472084975029","0.09865786633389974","0.037341861782095","-0.4011318279180399","0.5108616097241124","0.7928881860688201","-0.22856689389995238","-0.7549266342965739"
"0.02890812316301991","0.006301019507840197","0.013568237909944726","0.038649275738120735","-0.2965447466116407","0.5440371085833107","0.7251233627833866","-0.361298292767361","-0.7376679544383424"
"0.02468230910992658","0.01765690144759033","0.013981494868523809","0.028494192963334667","-0.3183716157538457","0.5253258360006904","0.6476062006205259","-0.48673414809300664","-0.7288915234877077"
"0.01484229552537114","0.011800716570423206","-6.635037013150153e-05","-0.015001871189306569","-0.2566245517331341","0.4871752257544143","0.5576896361706513","-0.5984496322008702","-0.7426853926168245"
"0.006408960986513896","0.039013970082974636","-0.028691778028229406","-0.030830437353532747","-0.22370235744364145","0.34704696649105665","0.4579650051926219","-0.6798219876540235","-0.7667429463586016"
"-0.008938379183526574","0.045972338002260645","0.03974448302342026","-0.03556331438432989","-0.2279025937752829","0.3265398000418815","0.3566799999942042","-0.7402180063415293","-0.8251544253484876"
"-0.0030266684781283084","0.01911422197166232","0.005346055983432741","-0.08155771374749159","-0.21017783578546156","0.2956698406059634","0.24806680872503434","-0.7926720409202807","-0.8745279782383715"
"0.05393372326965053","-0.06468534367340673","-0.0405194771875618","-0.07511403067850758","-0.06635982915241488","0.048659200562946286","0.18066421516933373","-0.8002050524254283","-0.926124239897876"
"-0.018547316128131583","0.023352188998186706","0.033181111637291684","0.14501096323433238","0.17896269218010552","-0.18545740689492676","0.24831758315331112","-0.7948092525907429","-0.8829121664649554"
"-0.0391131370837191","0.10189999942607258","0.05691705479046215","0.035979571098901764","0.1138865519557966","-0.15854812149984346","0.3080297609085267","-0.7838725336104146","-0.8184045818054481"
"0.03328317421274788","-0.008908296273821746","0.06802604619574397","0.0019527269064127666","0.09383311593139572","-0.2937716490006233","0.36244781184456804","-0.7303367005317999","-0.8209378160649424"
"0.042106450581521467","0.0025673497831240396","-0.03668223866162508","0.12086520328063172","0.19665155071410084","-0.4433647543174465","0.4599433367934716","-0.6704551957649608","-0.7727409913472106"
"-0.0025452588115649237","0.07529325300832203","-0.03504449369334316","0.030532333865327662","0.24809786420980698","-0.395943448705981","0.5534543347153118","-0.6022886976089227","-0.7221089930509974"
"0.020849325344748974","0.035109431344566504","0.005100704026015474","-0.04091620215715987","0.23141658373599455","-0.364563843713338","0.6428136226579045","-0.5081062647976285","-0.7080699722193489"
"0.04214303771618028","0.0354989503727397","0.011596190573420938","0.01633177727373736","0.2417077610727798","-0.40346678787668444","0.7099654417853287","-0.41520352045568537","-0.7032486554028922"
"0.01961980505634611","0.057638173216695794","0.033201764158959805","-0.04218991987720556","0.1985853347345945","-0.37965905972681363","0.7902411226592332","-0.30611337660968574","-0.6907949489142817"
"0.020031891730924355","0.038567321597336036","0.06378814874944572","-0.06609499243104874","0.1045359403616524","-0.3148855363506617","0.8364114812875076","-0.20999030283095346","-0.7033794029775756"
"0.008464580262739515","0.01705444535068245","0.04520500975247122","0.027189667256107223","0.0015810876468084515","-0.27457499969731264","0.8547180145517057","-0.1388422624679742","-0.7287117455725176"
"8.51636065373636e-05","0.03172321259298084","-0.05715095288689895","0.04695780478120035","0.008317261537998182","-0.2710802873083408","0.8570307120569244","-0.07827341987378285","-0.7611371440940436"
"-0.006300254210759257","0.03412992082838697","-0.02922874359160053","-0.06502345212688333","0.1406651527049339","-0.23073092051733649","0.878959542618452","-0.016269215367577354","-0.7555476852763208"
