"AccX","AccY","AccZ","GyroX","GyroY","GyroZ","MagX","MagY","MagZ"
"0.04500549959356613","-0.005004069150636151","-0.0015758431788544002","0.04285552873802975","-0.20520217120797865","0.36066178350642614","0.9434921621616532","-0.28773599477663736","-0.6398524251281952"
"0.03662223166003148","0.030435203006488134","-0.013790983644680734","0.17349872388146168","-0.0015206253365575289","0.4657215746998926","0.8889347920987918","-0.3846229238375904","-0.6089306237155303"
"0.0057243964406607775","0.0509000133880037","-0.026944574695106444","0.14713863984907233","0.07359778933080978","0.6076942655018743","0.8286653378362941","-0.4987922435670958","-0.5233073057446262"
"0.008175734462801496","0.04842786595586448","-0.03241336243282466","0.025501967208306688","-0.038966151060125534","0.6115772792673987","0.7211388357563235","-0.6349669279035823","-0.4563482040598018"
"0.017682612558095067","0.045226538902985024","-0.04347072253393616","-0.14232165471550665","-0.23198795184828117","0.4970526420204668","0.6112717723457701","-0.7027244534560135","-0.45607036546359925"
"0.013954576100228272","0.04256119003287189","-0.043315828621425266","-0.22904613863214757","-0.30966001447340424","0.4138105344220398","0.5115192775423768","-0.7318538569645353","-0.5048392108205717"
"0.0026356720199901453","0.012663579121632474","-0.0018967833655769892","-0.18029249891701996","-0.2359464651773609","0.40568047435047333","0.4020144438615565","-0.7692286758683589","-0.5855921816345128"
"0.060479931915579335","-0.047110245122232046","0.012038278452248719","-0.05243165011594031","-0.0790945627824229","0.355953629315728","0.29225883575245976","-0.8210362698801186","-0.6213189564167988"
"0.029902715534139847","0.009198833333967094","-0.07757836206883656","0.04443636358029357","0.1608789396320242","-0.020279340453451207","0.259630296251126","-0.832038952183609","-0.6589252275851611"
"-0.030120404512315197","0.02984001793143949","-0.014497299885730442","0.11586853285959078","0.3521344871935409","-0.22513695381137805","0.3571536850253935","-0.8227513162823413","-0.5681210369674206"
"0.002198552042750591","-0.005536204078991164","0.0534536269067184","0.1040844777625694","0.3007264664507159","-0.39354083393856293","0.47599290020317925","-0.7921971049935113","-0.46903071880410846"
"0.02643464029621728","-0.015769024756712335","0.0038456502842438125","0.16231157353608677","0.2563308060792352","-0.5091575688070485","0.6011293399132467","-0.721893395167011","-0.4001104034990305"
"-0.02564329461327579","0.04393437444685847","-0.001627681008241382","0.16910858570806153","0.1908406254643998","-0.445694562576761","0.7136991943841153","-0.6523152818952971","-0.3328244328774973"
"0.014840369886704891","0.03339139275097059","-0.05611419629915931","0.054236191752890024","0.04573023842161729","-0.47447740211370976","0.8276065124724596","-0.5545444443039678","-0.36601797340028913"
"0.034992178529047874","0.02913057394146004","-0.06360486590818648","0.0669618159581538","0.003544309221079373","-0.4328563483144963","0.9025044750510968","-0.48546765228828825","-0.41934664042435105"
"0.03696692098129085","0.03757326903743804","-0.06989768926046269","0.053540123792502246","-0.013027358247610999","-0.3871338612254479","0.9483683316003666","-0.4423408316047023","-0.4698152042522098"
"0.01749197433013597","0.024659934215440195","-0.04482759320753166","0.03280249742078325","-0.034605563825794654","-0.34662917388382264","1.0050990800416262","-0.39627204670807264","-0.520741384591461"
"0.018693572857878163","0.01422342105391965","-0.044288562391993726","0.0804268318557797","-0.0018616701669044826","-0.2657168745447104","1.0489567411646825","-0.3695700934919276","-0.5541473899231136"
"0.014980941509341395","0.030023870912737234","-0.0816758223677916","0.051251667994657496","0.0012364528708788988","-0.22516364953101606","1.0917277130985397","-0.36728776251050804","-0.5753448404686878"
"0.007916736062190403","0.006205561378002551","-0.06968703353944786","0.021296676957997102","0.010288380992550819","-0.17980762186608892","1.1150218711029076","-0.34809243547024576","-0.5560595732028609"
"0.013879476192244389","-0.03284346151700839","-0.050283989432249","0.03267637722325794","0.032504878895320666","-0.17939990542070888","1.1062447661132235","-0.3406517726175255","-0.5282920570294374"
"-0.039498264816969796","0.02492272971978104","-0.0635573651083498","0.03228068713789227","0.08498270342176037","-0.19284969435104363","1.1051023492732963","-0.3409815892333376","-0.46747809135474094"
"-0.15456480331894829","0.1148985090755643","-0.17904833152864436","-0.06694606307694474","-0.015523088416634183","0.14308924157329003","1.1076658212067916","-0.31416090203550023","-0.4240208662192887"
"-0.0342701558380915","-0.10407350780228045","-0.0670827505570979","0.08269699541123528","-0.03853775088726866","0.15129453503656354","1.0694087889819144","-0.3402955706724485","-0.4545667683547383"
"-0.004692345924437595","-0.040770952778389304","-0.09755761153057595","0.05602786875742898","-0.029653592889156883","-0.053968853259860616","1.080498591476817","-0.3641742936572422","-0.46288558279398045"
"-0.01712234351510399","0.03355966497114141","-0.08725200321818401","-0.12149738087983897","-0.038248161943605634","-0.1748956094527007","1.0925357640340976","-0.3533958866525039","-0.49691263910538014"
"-0.0198471222278527","0.06438048791502173","-0.07705172276629949","-0.1933762659732716","-0.07663664670686977","-0.011846405308173838","1.096185925156792","-0.2980922365131363","-0.5352216784876668"
"-0.001543926705113106","0.04008696516591574","-0.012667486465935","-0.16014214980095318","-0.1763007159709975","0.15184786449815077","1.067374729730337","-0.24737963366587273","-0.5641332359395715"
"0.022107730213145643","0.025867962561481335","-0.02029652797013858","-0.07294110483259442","-0.22102186474196717","0.3035086746451156","1.0278916891894403","-0.21978057925471892","-0.5759658914484347"
"0.03310794109411882","-0.018951654896239473","-0.025304764474657702","0.044218782170822424","-0.10980056399892407","0.45739736394004993","0.980578913721239","-0.2608889222495351","-0.5486886786800745"
"0.03538212035896421","-0.008237284827955384","-0.002913507007298543","0.1298765395312951","0.05471467556633633","0.5567297098293681","0.9304797557166293","-0.35499219907303425","-0.49741928595727886"
"0.023445086266858702","0.015370684431565775","-0.027500127527978875","0.035877519641362196","0.05133055353047252","0.5066873699261739","0.8832227078991561","-0.452037440109577","-0.41802282123067985"
"-0.02131060761420538","0.0694058027371602","-0.06472216733043179","-0.036458671511799656","-0.059555685624861285","0.499091224247367","0.8201947349256151","-0.5319454097885249","-0.3669495498699095"
"-0.014734551568949643","0.024830283870427933","-0.04358431140311083","-0.23381174914932534","-0.27811635928762984","0.4589505694462596","0.7317828170454006","-0.6278692743313066","-0.37816115439902587"
"0.02248034129506569","0.00704931152889612","-0.03357196889840619","-0.219351250165889","-0.26050169296234155","0.4336867111343173","0.6285194802461338","-0.6817085386964685","-0.4665138279914496"
"-0.001775003345063519","0.017093916612204","-0.0056609119648085605","-0.06770374701169603","-0.12774311202075647","0.4300463857291382","0.5183459147565753","-0.7294527920014234","-0.5283410873699437"
"0.0902449139075931","-0.05683783365247736","-0.04415019049681732","-0.04886370010045328","-0.06336102794241677","0.21333053370802094","0.42711975051458956","-0.7780941465013873","-0.559426323250963"
"-0.009477558010077549","0.033161836203700515","-0.06723970972177563","0.11170945459005384","0.28454777835846734","-0.127595648021408","0.466686382531578","-0.779479376287798","-0.5118178626193072"
"-0.03247931187847574","0.02087380926159671","0.023846378368518068","0.08947090159282371","0.3126450857849462","-0.2873646762875082","0.5449280041539045","-0.7637009493873487","-0.41557130420536276"
"0.018263192615970498","-0.02709104450894661","0.039308714816222924","0.11977729623327597","0.19345889244264236","-0.40730126397013966","0.6449591372109389","-0.7023418661816715","-0.35884320023952804"
"0.003637966945775105","0.0026416180778290627","-0.05080236772611881","0.18952850471196866","0.1786084842159557","-0.45120358835659863","0.7382193607045023","-0.6213784833321252","-0.32257709171167226"
"-0.015052281948881467","0.029140961115544654","-0.05600473793431827","0.12855757258007622","0.06905770481734892","-0.4649154807161063","0.831173082119061","-0.5441882025674688","-0.320223635367368"
"0.0389407006142007","0.041518317754776185","-0.0896559567403532","0.0965731053878177","0.00869923174798677","-0.41094158937531866","0.9092475207892036","-0.4723013729850705","-0.38778744458510384"
"0.050360700724417146","0.032506405518961085","-0.07891664547293074","0.09526761693099085","-0.03440213357611401","-0.40145247448581867","0.97361295738022","-0.42773655185654397","-0.474799955537021"
"0.02779125273659288","0.029425569685463206","-0.07026943465048885","0.06005505033184405","-0.05196414736619084","-0.4298227438101805","1.0404582744286393","-0.40563883859713534","-0.5387682064509587"
"0.019533151316364697","0.019036318166027678","-0.03712833312965648","0.07866018634082592","-0.04531796144427161","-0.32614627627068205","1.0871859095641954","-0.40273645237798916","-0.5755082749370423"
"0.01229948966658339","0.02526031287753115","-0.047836665614576765","0.06260729951993259","-0.011852010063867918","-0.24792781773140218","1.1217649168410138","-0.41563887838855723","-0.576668659662359"
"0.012597000840519547","0.019375978758594706","-0.06501336788595227","0.053328318880627675","0.008802622180765636","-0.25724705076866045","1.1428021049908916","-0.4154277957544375","-0.554343511285139"
"0.009804824774451965","-0.0003285943516676269","-0.0739228657335793","0.05275740836816577","-0.009681768294333757","-0.20543551271854923","1.1523036694400417","-0.4075913529627428","-0.5041200991598119"
"-0.009400532463427418","-0.01404787001089103","-0.07270849745949383","0.06988664924122169","-0.041974525458343924","-0.2457436224882948","1.1489878742217166","-0.387973860654241","-0.44296292110157126"
"-0.14563946810086328","0.05738264873421417","-0.15807776102683518","-0.08927222628772297","0.06338319749978662","-0.2467629136017449","1.1481240956354302","-0.3411530938735598","-0.40573254921042406"
"-0.08859242261310303","-0.00692746217588498","-0.10031059266893637","-0.1433999342668681","-0.15936095941523792","0.1442759876553784","1.132297442828635","-0.2960473734951015","-0.4439271844648625"
"-0.022302311527325935","-0.05985530772405907","-0.10136800177834412","-0.0400401000216787","-0.05264384372982968","0.153092855786722","1.111845395011403","-0.2754932019976934","-0.503678826095255"
"0.02500196512852466","-0.07764334334396843","-0.06752264926862887","0.013354955512300263","-0.023550206739326698","-0.002695840681355511","1.1027896517680782","-0.26811850246813557","-0.5291746031585515"
"0.00657071463447919","0.01661818403912847","-0.062477238225107125","-0.06690081384577154","-0.07748387386436327","-0.1675154564146011","1.1070806808741458","-0.24814480821455673","-0.5364964673408315"
"0.002335272388054597","0.03378195049655225","-0.044720200094857436","-0.15648370132311976","-0.12492141479283325","-0.1125222739603634","1.0967432016640735","-0.20613672549180526","-0.5586581812496969"
"-0.001187683551856199","0.07940865138064791","-0.03784291037937343","-0.16356953837492347","-0.08028163812173582","0.06404564260883627","1.0714428482334921","-0.14903227663010385","-0.5656204896015972"
"-0.02960048207242673","0.09379281005302775","-0.04483172371186529","-0.09665844121454881","-0.10735461440864628","0.36869476823385455","1.0425480613309446","-0.12219048116885455","-0.5160671587965233"
"0.0032316571871956034","-0.038910609899834116","-0.0054727674924119896","-0.09124201196815646","-0.3023125925143506","0.5891528747714959","1.0016439656964808","-0.15646502388404462","-0.4666772624598041"
"0.0628754264163987","-0.07138403224057725","-0.0025217286712543034","0.03793299003614493","-0.11936896562507932","0.5418771821762377","0.9725541320163846","-0.25139020371414744","-0.44307732522941934"
"0.0459365458886997","-0.020644764272032302","-0.008940532405706038","0.11690830242697502","0.14160571844757497","0.5247191150998273","0.9590123128894439","-0.3675780011324227","-0.3798608728699123"
"0.0014995452069005715","0.031255789759173","-0.030959424907388993","0.0723609157117564","0.04348771908102011","0.5191615516479207","0.9296717047810711","-0.47135150113153174","-0.303422572020529"
"-0.05265037690748126","0.08389591058520315","-0.05370817752482332","-0.13492773779188538","-0.16124927079168527","0.47897235917474423","0.8815787422026754","-0.5561803347183956","-0.29668907192432503"
"-0.009063545696833052","-0.001960938759065441","-0.039864792250682395","-0.3129305112304705","-0.4452402926429126","0.43494869060811264","0.7957302962559563","-0.6280935496300589","-0.4214712885129591"
"0.012025086156642254","0.002571089165794502","-0.0030138782626056063","-0.13639111718301877","-0.2909683644733361","0.4440252352850257","0.6817672505168837","-0.6838457503669307","-0.5516468425572905"
"0.05240380334931211","-0.058859177729344146","-0.052126194365045314","-0.09445663288065273","-0.20960344449224563","0.24829707266656711","0.573989974008636","-0.7370781521589984","-0.6314518934547756"
"0.018216014468647294","0.017220640136036348","-0.06600675417818885","0.0674297122634767","0.13940388515691393","-0.08330502225839659","0.5708692255678595","-0.7404422816402816","-0.6332660160535101"
"-0.02262004190725776","0.030151633153978046","0.003950565094317863","0.111844239533974","0.32090196062492515","-0.22066906109742165","0.6508384043627589","-0.7281862961967052","-0.540941884880073"
"-0.003142206798103506","0.02526031287753115","0.03517407997826528","0.08670588474326117","0.2250360537871877","-0.3747082171757702","0.7200242827417607","-0.6858906133849656","-0.44480973059397666"
"0.022767261456337465","-0.010902633698068516","0.01947775046006062","0.0967300335725248","0.16984901699441288","-0.4575134857255756","0.8049532224514651","-0.6215763733016123","-0.3856954833901667"
"0.0079995385248393","-0.003217163592859214","-0.034484810356137104","0.15612109361175283","0.20477918751310617","-0.46709967595921364","0.8771483939697873","-0.547908533993829","-0.348481454945855"
"-0.01714159990176653","0.013561654192988598","-0.06194853367040325","0.1253997538939463","0.18055902131583476","-0.40980095408169587","0.9263280457373819","-0.47474201594207976","-0.3069037261964791"
"0.034234439713877116","-0.01069696765119307","-0.018150730968820895","0.04875044453533873","-0.014467165755938913","-0.42203244744309737","0.9510153950099539","-0.41264414351698364","-0.3248651742686348"
"0.03884826995822053","0.04898254105198311","-0.008162964964901317","0.0837300257314235","-0.003671720729651158","-0.45678542064453975","0.9652259459456328","-0.3413377911784146","-0.37706614346105094"
"0.03316378461544017","0.03608894186074604","-0.001561592938903398","-0.002284526630597893","-0.039724826226581564","-0.3678158677419645","0.9920030821205102","-0.2774589090279333","-0.43649091615473434"
"0.014209723223506866","0.021352657986897627","-0.03519938760585406","0.019525217695046178","-0.01808008699026706","-0.33454329353862833","1.0088328326404121","-0.22984658236930325","-0.5011455918357608"
"0.018356586091283798","0.01933443006225623","-0.06740492989512058","0.06620316927380308","0.03273224211555197","-0.25838768606228324","1.0319040800418673","-0.18921845236710946","-0.5303840182243744"
"0.01199716439598159","0.0024929776166781703","-0.03711387636448879","0.0650459442552884","0.0109190147665608","-0.24533105227570784","1.0413777806656532","-0.1652843201908593","-0.5393238836433638"
"-0.00581884454419589","0.00022182200307631318","-0.03074876918637417","0.009704690406061983","-0.026185466126660246","-0.24302551285242777","1.0378948024951438","-0.1295216449051252","-0.5501759323421003"
"0.00939081246120745","-0.02554958787478921","-0.044914333798537764","0.026754504437164928","-0.0022017576784294102","-0.22329009538915057","1.0259969490646834","-0.09207426634582301","-0.5471523946775426"
"-0.07128093100348397","-0.045176153307676055","-0.10165713708169781","0.04371237588152232","0.09828704175087416","-0.2905196249719967","1.0270557744285183","-0.06594487477472774","-0.5308906650762734"
"-0.09634311824477342","-0.012590549486819041","-0.12481480962816091","0.04239052068150513","-0.016271233076047917","-0.023271202559787672","1.042659516632401","-0.044361675435986035","-0.5040056950319639"
"-0.052775543420787725","-0.036957821171925816","-0.11916427969976325","0.027486194132731612","-0.1435915251194058","-0.047023112386779045","1.0374768451146827","-0.04818886744586927","-0.5458612623775423"
"-0.008042957203718693","-0.006753996368671847","-0.05252478803324003","-0.021089336906501513","-0.11528121425502601","-0.04840158227354016","1.0293684719337368","-0.04817303624831029","-0.5891223661509691"
"-0.0003972088793591282","0.009200599153561478","-0.028675256010894906","-0.044082685589684645","-0.03978944524706836","0.07577477106432308","1.0260805405407756","-0.03350411244345277","-0.607083814223125"
"-0.0014669011584629572","0.011541244961789435","-0.07273121523332876","-0.039836959856199006","0.05799349253177723","0.21374553080421133","1.0321827182955081","-0.03460174214087533","-0.611186019378822"
"0.007902293772193501","0.01107216018012806","-0.052799466571426035","-0.07579662014450336","-0.026231656759823026","0.2643145044493548","1.0234613409565525","-0.04226008396003154","-0.5674999859876735"
"0.010317044659675402","0.0521745196481864","-0.03108953579389815","-0.12554092919744433","-0.07405427918445318","0.35605070465986605","1.0094458367984223","-0.05367569666651883","-0.5235034271066517"
"-0.034847847437967545","0.03347241270883061","0.026822819791327543","-0.16687176950096785","-0.24511039960120987","0.6049276181939383","0.9984117619542477","-0.0911560568874022","-0.47110633655221"
"0.058176868070740136","-0.11176001662489823","-0.004186734968138149","0.011276379127131215","0.0013264408401493938","0.6586102835023115","0.9993034043658982","-0.19051133350109278","-0.43817429117878537"
"0.037117120797258624","-0.03123241081648405","-0.03099246894205799","0.15343502222934358","0.010364966498312943","0.5717035816626711","0.9837832536381077","-0.3046357981708477","-0.3969561182597893"
"0.00740740463496634","0.02701678401524015","-0.04076730744757924","0.11973878624929879","0.07042188413873673","0.4983388903302966","0.966674864864565","-0.40855441748091403","-0.3182297348534435"
"-0.04602617989556918","0.06616604314016766","-0.05648387643701866","-0.18443232219456832","-0.16662940257147438","0.5280924833086265","0.9072691891883539","-0.4995838034450447","-0.3252574169926855"
"-0.00987231393665954","6.694923747464947e-05","-0.04253929380670395","-0.25376954834550614","-0.390170527405836","0.5261509764258644","0.8065135966718536","-0.6059166803828554","-0.43492194525853156"
"0.020471900166163282","0.009477936701620795","-0.009948168937893619","-0.1426104795953356","-0.28429106568970103","0.48969918470200513","0.6793152338848446","-0.6819196213305884","-0.5412850972636174"
"0.05982906604638565","-0.06625380696018411","-0.0032840132460246175","-0.08203716304800765","-0.19302986238591122","0.3124396063058214","0.5703955405366702","-0.7326058388485868","-0.6087345023535049"
"0.037705403409799075","0.03273180719659731","-0.06659328579356347","0.059906786893531856","0.12949802864599436","-0.09938069924766715","0.5627051247361851","-0.7353103350982457","-0.6196028944990769"
"-0.03252745284513209","0.032393185321438735","0.02939818924334212","0.10336241556299702","0.29493468757745533","-0.2469570642900211","0.664826044695525","-0.7109962541805802","-0.532998969718046"
"-0.013713963075835268","0.024211208294984663","0.031157164513815915","0.0916313116939443","0.19062283543238875","-0.3325532489837971","0.7274917879393331","-0.6771570693982619","-0.43985766620283645"
"0.025788588523689225","-0.020306142396873738","-0.022832657630983726","0.1131439514932043","0.15289968725043304","-0.42688621465000276","0.8071266008298633","-0.6169325553509785","-0.38043289350915294"
"0.010832153002898214","-0.0024249338254253537","-0.07217566240045634","0.16888715330019266","0.23541338981795534","-0.4994500343932378","0.8796004106018263","-0.5349269519954659","-0.34084906527370146"
"-0.031930504858593486","0.02122385702824836","-0.0678716768848201","0.08420273578474356","0.16503848991372955","-0.45911522890385437","0.9431299324319202","-0.454385734414159","-0.2906256531483744"
"0.02434917362066473","-0.01760963200450675","-0.011122677845159613","-0.016833983677021574","-0.0160685208154838","-0.4781905340269924","0.9773745738043702","-0.3714302592051077","-0.31839316932179795"
"0.03505572460503424","0.014226121719181653","-0.012126390398230252","0.05510362914197632","-0.01158874738781062","-0.5118271407708466","0.9859287681911414","-0.284912764545286","-0.3664429030180107"
"0.024236523758688896","0.02319326523469204","-0.00036870328735277873","0.035427915578428455","-0.032181153909012446","-0.40977668524566135","1.004040254677791","-0.21755101893182932","-0.42567155434966886"
"0.025837692309678688","0.026390437417937652","-0.03563928631738501","0.034366965519856754","0.0006979610334889712","-0.32837900918585855","1.0191424480251206","-0.17171706346565788","-0.4990699740876591"
"0.019845104780297766","0.0307301987504913","-0.03683713257413598","0.09206743726248601","0.014960096844040323","-0.2503061636627858","1.0369474324327654","-0.14316022160218583","-0.5369050535117177"
"0.015321779553268276","0.03038638328829043","-0.03083137927304665","0.07058945644880547","0.013428865388208876","-0.20213009725064665","1.0467554989609205","-0.127001845960321","-0.5501595888952647"
"0.000234400603172022","-0.00649847188619023","-0.0462794654808005","0.020876918132645687","-0.002673476527982986","-0.18208161180252408","1.0387028534307023","-0.11344242525105526","-0.5534609651560249"
"0.0018249781414974087","-0.03727255254668976","-0.0433550684125947","0.0006504155232640073","-0.06285604226379776","-0.12612252967411222","1.0174706185032758","-0.0847576145406481","-0.5541473899231136"
"-0.04412942580930948","-0.06524832850879304","-0.09734489055739433","0.06932729172395294","0.09198070401077435","-0.2788948525114584","1.0088049688150482","-0.06584329125705764","-0.5359734770420972"
"-0.0911438938458889","-0.04516472741618297","-0.11041793677331437","0.04447487356427076","-0.041637070573579564","-0.04201887839645962","1.0169133419959944","-0.06348708135369623","-0.5027145627319636"
"-0.08499147830720899","0.013549397327568751","-0.0831586734235626","0.0007173266204243819","-0.16289107257146077","-0.0614363741076845","1.014544916840048","-0.07938688076876439","-0.5438019880762761"
"-0.01875913638141947","0.01631695599067453","-0.07860685764790894","-0.045419944783292705","-0.07578702625232121","0.1346436866332747","1.0151300571726936","-0.09321807036945927","-0.5856902423155254"
"0.006392593057850745","-0.03365677724783402","-0.05214891213888025","-0.030220054107494218","-0.007831031681650955","0.27346385563437137","1.013792593555218","-0.11102684835684767","-0.5986505956560346"
"0.003033316404571492","-0.017210764519657393","-0.025209762874984352","0.03680079650721542","0.04471069387615903","0.3180457074297971","1.02036845634114","-0.1564755780157506","-0.5978824536547686"
"-0.009766403810015587","0.06724007694051723","-0.04872472404630593","0.008268171728752702","0.14362805445910604","0.41980493692256793","1.0220402858629845","-0.22582281965639603","-0.5569911496724815"
"-0.010700338563148535","0.02403981992258846","-0.03301848131770057","-0.1812745035084384","-0.12492859468399845","0.5414403431276161","1.004040254677791","-0.26888367701681953","-0.5064898989509518"
"0.05291698605386867","-0.035118252641539865","-0.003649356354333662","-0.030717795650399452","-0.2277781423284195","0.44363693390847325","0.940538596673061","-0.33265701785024104","-0.5098239621053829"
"0.04807978172423986","0.027046906820085544","-0.009106165629484362","0.015933198939573404","-0.018451048033802344","0.4347060022477674","0.8998852754668738","-0.39875226765897936","-0.4768428863914517"
"0.007233134335670393","0.05432778083592784","-0.020695121638333293","-0.0600749191858139","-0.009216032687417849","0.5106917278718708","0.8677861486474575","-0.4521429814266369","-0.45334100984207976"
"0.002790685932623551","0.009553555328956818","-0.004672895328205697","-0.11876317201745819","-0.17956995974821813","0.602427928082382","0.8169346673580181","-0.5306525286545415","-0.44930417847372445"
"0.0076683286742436985","0.009600193740596757","-0.017014842277074282","-0.10437969300197622","-0.12958595075315751","0.5282623651608681","0.7519562266089922","-0.6135948111989603","-0.4660888983737281"
"-0.0046442049577812665","0.024378441797747025","-0.030131258788497376","-0.15826478808206496","-0.19208929664327015","0.45742163277608444","0.6713461798307192","-0.6904816606770695","-0.4917971402458853"
"-0.01785408620828033","0.03884569786280382","-0.008570439217413328","-0.14958078669520772","-0.21849932964592728","0.4329343772172469","0.5776401351313302","-0.7517615878949518","-0.5583476557598236"
