"AccX","AccY","AccZ","GyroX","GyroY","GyroZ","MagX","MagY","MagZ"
"0.023032999592280452","0.01851799817920521","-0.0028899631325968855","-0.19250979133378476","-0.30147493854507734","0.38573149113009236","0.7218075675650611","-0.6607717799247185","-0.5072253540585467"
"0.058313588416044136","-0.0861275871362849","-0.037405076920009286","-0.09981625990067872","-0.17254802618865347","0.264047547252975","0.6418105249447981","-0.714545080966718","-0.5742661729775483"
"0.04900408828404154","-0.038066132646754625","-0.05154792375833795","0.10003130194896973","0.20292438229542975","-0.18166418782273025","0.6626805301424913","-0.711563538759777","-0.5639207711307107"
"-0.040326289443458785","0.029263529769743155","-0.01742169695393625","0.17939075142997235","0.40423656408233516","-0.36012264671901956","0.755467068604866","-0.670217727801576","-0.4753883196230971"
"-0.023881335233653826","-0.02149755126437949","-0.0017261935365983161","0.0892350279409634","0.24730807618163508","-0.44843694104866255","0.8629935706848365","-0.6031594134746665","-0.3704470474926951"
"0.02103707511470869","-0.039829874806322864","-0.047946123979417804","0.1241770619026704","0.25309985505489563","-0.5571127888112735","0.9505417099787643","-0.5208503788326069","-0.27717499640280197"
"-0.019433109914608202","0.015079843557196453","-0.04748350749405191","0.1596351296496718","0.2830160682432249","-0.5238402146079373","1.0080247817048542","-0.4244251930337908","-0.21153481087759818"
"0.006606338949804882","0.02081771852153977","-0.0181693182383222","-0.021199090360836517","-0.015455358109975803","-0.5576467032040332","1.0381734407487846","-0.32813193388129946","-0.2248923099762086"
"0.03553617145226449","0.02075747291184898","-0.0048354306737338005","-0.054732621658577646","-0.12476585048425393","-0.47192917433008447","1.0222910602912612","-0.229648692399816","-0.3382014268863592"
"0.05009881386580666","0.01627748472915298","0.006494749238613582","-0.028121259980737147","-0.032750758608118234","-0.4734338421642251","1.025551127858858","-0.13894648451857083","-0.41530980905599574"
"0.02994315394613117","0.017303737528713295","-0.004139234168301473","-0.018865385331818557","0.00582488198485209","-0.43033238936690554","1.0386192619546097","-0.07034858622905049","-0.4520989078825858"
"0.007643295371582392","0.008414497818837545","-0.04614728934212453","0.0409348432871672","0.01647409656107529","-0.32750533108861557","1.0358607432435665","-0.010522490653667877","-0.4964713660408229"
"0.005774463045983372","0.005780102727496573","-0.05691551413988238","0.07504506159496682","0.03159542601439547","-0.2494567544015774","1.0388143087321586","0.015951229464335172","-0.5194992826319671"
"0.0019222228941432066","-0.03579341895704007","-0.07961676595748002","0.11523311812396707","0.0921266951311334","-0.3040373666432281","1.0272229573807028","0.02581406554357924","-0.5359407901484262"
"-0.08213190488782252","-0.09249907971978993","-0.10930683110756949","-0.030497325992130023","-0.012300753261692858","-0.4938924709413312","1.0232384303536401","0.04570464600997343","-0.5280795922205764"
"-0.12019215312632314","0.09255258146732431","-0.15535782392314376","0.09627176476319618","0.3261672141460711","-0.07301260889615377","1.0530805873185656","0.03810699044812664","-0.5330806869522232"
"-0.057714806599727976","-0.008141722826376895","-0.16128096713756063","-0.0704600991148637","-0.012758830318032556","0.4251198120141293","1.0890806496889525","0.017471024429997182","-0.4789838779268953"
"0.012490127894542487","-0.09833563283793714","-0.03083137927304665","-0.05091917049523601","-0.12833904298746798","0.2570823913110658","1.0725852650734191","-0.019126746526973104","-0.503678826095255"
"0.0016795924221952826","-0.01714013173588199","-0.02139937262721619","0.10117697397229125","-0.06420825509991024","0.22690652058573524","1.070774116424754","-0.060184957396185804","-0.5427233205851367"
"-0.013126643282627965","0.09849819991335998","-0.09713836534071311","0.02034066660576326","0.1802574658868964","0.35248318576279064","1.0882168711026659","-0.11498068994720274","-0.5194829391851318"
"-0.051148378747803536","0.05432985827074477","-0.06660154680223071","-0.13409977313637572","-0.01890505648514843","0.7453471034897103","1.0821704209986616","-0.17176059925894507","-0.43841944288131707"
"0.045551418155449","-0.053874372886135675","0.011874400692812185","-0.04536314255692635","-0.4011318279180399","0.5720676142031891","1.0118978534304606","-0.245255614660043","-0.44842163234461024"
"0.07578298239629598","-0.033905030708456414","-0.012281284310741153","-0.02913118431053906","-0.11892859896694713","0.4199505499387751","0.9696284303531567","-0.31450391131594474","-0.434611419768658"
"0.047579115671013944","0.0024706451923962405","0.009050457490000111","0.016519513445626185","0.009829825276800108","0.4733177203786995","0.938337354469299","-0.3912984121416266","-0.3733234941357337"
"-0.039036111537068936","0.06542336019311742","-0.056341374037508635","-0.05741002829459207","-0.007970560899961324","0.6414036787538321","0.9042877598743976","-0.48416157848967245","-0.31466686344331624"
"-0.037062331904159085","0.020490522537874284","-0.025940862142035805","-0.12200763816753679","-0.19345347596465798","0.5306649799282863","0.8333464604974593","-0.578357203965599","-0.3439543201724363"
"0.020609583330800405","0.007892022962381229","-0.030556700734860654","-0.2594305159901537","-0.34589453188710867","0.4084713904944439","0.7503122609125115","-0.6445448024267648","-0.448666784047142"
"-0.005347063070963784","0.009701260944440095","-0.01742169695393625","-0.11851285712160643","-0.2731143684425412","0.43795802627639396","0.64401176714856","-0.7024737928279964","-0.5483781531902012"
"0.07808797187980145","-0.07485646453706525","-0.05920381354071008","-0.053483935428117135","-0.09251617266723496","0.17834700656425054","0.5345347972931039","-0.7569594977601499","-0.6093065229927457"
"-0.0019001698583699963","0.018959453077801502","-0.04100274619459581","0.14199755698811695","0.24934237867844145","-0.2193391288827296","0.5799528326365485","-0.7483710730844038","-0.5626459822775458"
"-0.02956196929910168","0.020031409443334144","-0.01414827226953921","0.1499306136874189","0.3199207088323479","-0.4040249711054785","0.6688941631986802","-0.7102310796318961","-0.47507779413322354"
"0.01832962714995626","-0.02261728863070138","-0.013231300307474676","0.13149395885833728","0.272772756847541","-0.4817095152519988","0.7806559667339908","-0.63862129600678","-0.3852378668787742"
"0.01638569491637334","0.009363054556244914","-0.07196294142727469","0.14897749158398338","0.2678425649141043","-0.5441532303688362","0.8655291787929676","-0.5492014151278123","-0.3153369447635695"
"-0.018980584828038622","0.012637922801643466","-0.033821864410590444","0.10110958150033117","0.1820667984605266","-0.5453424033345281","0.9687089241161423","-0.447881750750345","-0.22842249449266502"
"0.017640248507437502","0.028666267259877587","-0.023291143612015997","-0.018329133804936133","0.012424877273608545","-0.5518464513917812","1.0150464656966012","-0.3507837390552722","-0.2545883528762149"
"0.04170110364227511","0.0252997841390527","-0.00318488114201764","-0.03760145528632289","-0.06886561116906936","-0.4899366506677034","1.014879282744417","-0.2783823955522071","-0.3337069790066114"
"0.03503454257970546","0.022603273746685706","0.005676909380556025","-0.05733589657543597","-0.059668170586449396","-0.5040125755677289","1.0267214085241496","-0.1831709348995794","-0.3971195527281438"
"0.015433466595910975","0.010565162213057824","-0.015443185378130341","-0.05879831321696991","-0.021685349674019","-0.42327015808085827","1.026331314969052","-0.08999510239974375","-0.44781692481169877"
"0.005225656026101118","0.017442925661447187","-0.046426098384644156","0.04427654714678821","-0.004988752099054167","-0.322457413193434","1.0357492879421104","-0.019621471450691205","-0.49124146305348004"
"0.005479840330046588","0.004711439096148758","-0.06808439785800174","0.08511253415620477","0.11838834371637638","-0.19616724423696344","1.03786693866978","0.003166218168996188","-0.4838542250838583"
"-0.006203972277446583","-0.027361111035146695","-0.10493469227042847","0.17477918084870336","0.11316856283927669","-0.17793649460782693","1.0214830093557028","-0.006033026879234016","-0.4664647976509433"
"-0.11636013218047862","-0.03823544358433391","-0.12267727363551047","0.05064802399581498","0.08680400248066585","-0.27061917942368474","1.0146006444907765","-0.008568657021597193","-0.4275347072889098"
"-0.12257031687914619","-0.0031208744890947994","-0.12410436288277758","0.014936753104163506","0.025056938459954207","0.06488291745202746","1.0271115020792467","0.005051449944977967","-0.40375499214333505"
"-0.041789774829811464","-0.022304634690754357","-0.13669827059599723","0.006806525286898304","-0.08241406579779993","0.21214378762593256","1.0456409459463574","-0.0370252346338624","-0.41962447902055355"
"0.010447988088980644","-0.06621225826384565","-0.046331096784970806","-0.0019335081266457698","-0.1803453879940596","0.16263536211549792","1.0454458991688087","-0.07251746029463063","-0.4555964055053713"
"-0.0027955918381778783","0.030599320357025107","-0.020610446299494","0.049076816649545454","-0.035380992071636155","0.12368630716368585","1.041461372141746","-0.09924052177418762","-0.49648770948765847"
"-0.018037021881574414","0.10654618239412246","-0.08078569868389562","-0.11245716214119268","0.0955897959698144","0.2662560113321169","1.056452110187619","-0.11449651915519063","-0.46755980858891827"
"-0.001775003345063519","0.032286197428367164","-0.005538855561749974","-0.13186619406569844","-0.22016985099036354","0.5232387161017211","1.0339660031188096","-0.14554677463420196","-0.44809476340790133"
"0.03207483594967381","-0.03583392893597009","0.001026581076545415","-0.09813144810167647","-0.18867645504274555","0.5428236667815842","1.0050154885655338","-0.2159428331131297","-0.43327125712815145"
"0.05224108688201369","-0.03965952515133512","0.009032613711278855","0.027178114260914064","-0.11962265511291637","0.47841417594595015","0.9809132796256076","-0.29644315343407596","-0.4152280918218185"
"0.027137498409399805","0.01790930977784656","-0.0014719609948637587","0.016376063755311133","-0.032434843396849475","0.5431391616500331","0.9492321101866531","-0.37865983942370823","-0.39522371289523195"
"-0.022966656867183403","0.034747957686421777","-0.034040781140272515","0.023781533674125548","-0.10007899136124461","0.6119413118079166","0.9006097349263399","-0.4850982576785787","-0.36712932778509944"
"-0.012789656516033598","0.013588037615163532","-0.028443947768211963","-0.132819316169134","-0.16716071451769912","0.5483569613974564","0.8185229054037707","-0.5887662163606279","-0.3769353958863674"
"0.004384151928948328","0.028959185569063833","-0.04137449158462198","-0.19833442641033533","-0.27888221434525107","0.4321820433001766","0.7100768970867851","-0.6743734171608081","-0.4649121702015758"
"-0.006040292990815058","-0.009028787493203322","-0.0039283719220699655","-0.16033469972083916","-0.24982758809674566","0.39927350163735825","0.6048073648613047","-0.7309039851109965","-0.5602598390395708"
"0.08656838828404859","-0.06863143110815333","-0.03777475705786864","-0.0006989743152968719","-0.05529322356978813","0.1491030591426458","0.5091229885610663","-0.7621706002899806","-0.6299973266864209"
"-0.011653529702944023","0.016861243912708542","-0.0265418505225781","0.15133622810258648","0.26671771529822313","-0.2108571706886625","0.5659651923037821","-0.7498222661939768","-0.5684642493509648"
"-0.014965628208900057","0.03828998404927672","0.002558172083453205","0.15612109361175283","0.28181941971569174","-0.37830000490888016","0.6676960187080251","-0.7142680350094359","-0.4609733995142333"
"0.024313549305339036","-0.011674400732555679","-0.017956597265140564","0.13971584043746818","0.2101377796193997","-0.4302838516948365","0.7528200051952784","-0.6491886203773987","-0.37664121384332927"
"0.02565957073305024","-0.009482707000701156","-0.09445766802819114","0.16023203440131834","0.2710256499973425","-0.5690773249762953","0.8515972661109295","-0.5599930147971831","-0.30808045436863124"
"-0.02880134202593154","0.022920082556266572","-0.09021150957322563","0.131840548714132","0.32233793885796497","-0.5869149194616725","0.9329039085233041","-0.4629081957667428","-0.24654737703317517"
"0.0026558912259858117","0.031580908308021564","-0.031690524174440446","-0.054878959597690985","-0.011526521664378895","-0.5828377550078718","0.9946501455300976","-0.3585410258591721","-0.2549152218129238"
"0.047490536292366284","0.018463984873965195","-0.0012158697261790675","-0.12111228104006702","-0.08387637029844545","-0.5517736448836776","1.0278638253640764","-0.25361976403703707","-0.3255842859293945"
"0.03837745130432155","0.003579081313314061","0.01903434081984608","-0.09866096038136289","-0.05222023015108294","-0.5318974681714002","1.0346625987529114","-0.13686072424017534","-0.39573035974713083"
"0.010312230563009762","0.002945661050459934","0.003724006931618586","-0.04674757648090647","-0.023357785656099365","-0.45222287947004874","1.0338545478173529","-0.0357217993681731","-0.4482091675357495"
"0.0005762014664320102","0.01034931673557945","-0.05436079720953592","0.05100905509560116","0.003007492691627992","-0.38475551529406427","1.0328514501042463","0.026389265721555498","-0.5001486415787986"
"0.017131879899546565","0.006226958956616865","-0.061074932003841766","0.06947170416386741","0.043267535751954016","-0.25666459870383185","1.0271950935553384","0.052595174747519166","-0.5238466394901958"
"-0.011220261003036984","-0.03371910029234174","-0.05539342329294192","0.12922186980368283","0.03873223783260329","-0.32709276087602857","1.0193096309773053","0.06895407889179772","-0.5288967645623489"
"-0.10597131157604096","-0.01990519747720746","-0.14876760425884664","0.026004522499209076","-0.03550305022144453","-0.38257132005095684","1.0012817359667476","0.09250298526077935","-0.5307762609484252"
"-0.10582688867607194","-0.007108199004957342","-0.08308225909339055","0.005630334101274855","0.017711909797955602","0.016209582589540857","0.9988854469854368","0.1079647882100491","-0.5356792949990592"
"-0.03129504409872984","-0.013302070911615414","-0.09845393097097238","0.05897195703248546","0.014220089394613807","0.20689686527526788","1.0154086954263344","0.07457415402523533","-0.548590617999062"
"-0.016650562041871885","-0.028584720142314765","-0.0626114796159499","0.0397930222622434","0.04572305853045208","0.21904341771054855","1.0224582432434455","0.03858456490782252","-0.5422003302864024"
"-0.011383940289668545","-0.010400933189781438","-0.02910482846159181","0.03329253696689305","0.03563770474040251","0.2965920563752754","1.0416564189192943","-0.0037678463618367394","-0.5215422134863978"
"-0.012462297942770494","0.08519742349800587","-0.06887538943789073","0.011017399484884586","0.08093803139869825","0.49134946555235287","1.0559226975057014","-0.09359142277855852","-0.49871041825727924"
"-0.03946938023697597","0.05648519689330312","-0.030306805222676397","-0.18861065545609387","-0.15939685887106392","0.6953290324225506","1.0473127754682021","-0.15551119423111615","-0.42879315269523904"
"0.04852941835281005","-0.0735071706234733","0.017623980115130156","-0.06592843675034739","-0.3006372845758042","0.5388435776719218","1.005489173596723","-0.20582010154062572","-0.4439271844648625"
"0.06918478150637833","-0.03551296525675537","-0.0017138020235974432","0.04067971464331829","-0.05962269794240314","0.4769095081118095","0.9778482588355593","-0.2905064543494587","-0.4229258552813138"
"0.03428932041586535","0.006455996145182706","-0.02376408635821594","0.07456946329284848","0.09557304289042894","0.5422654835527901","0.9536903222449051","-0.3841875659047185","-0.36770134842434005"
"-0.03517520601123065","0.080141985871022","-0.08239659537400898","0.029243212151691095","-0.03002527192180869","0.5950744707639204","0.9003310966726988","-0.5020640243959515","-0.31840951276863344"
"-0.02064626227434791","0.0176060042945757","-0.028636016219725478","-0.1898622299353527","-0.21875541243081936","0.4679300387790346","0.83287277546627","-0.5920511898541161","-0.3291471573395218"
"0.02488064989255069","0.011159724057661394","-0.056878339600879756","-0.28409616072754645","-0.3374461932827245","0.41473275019135186","0.7571388981267104","-0.653133227102511","-0.4221413698332124"
"0.004504504345589183","0.008196574906542246","-0.022882223682987212","-0.16855658129997006","-0.19979810645763887","0.3823338540852586","0.6773926299347235","-0.7045054631813986","-0.5285372087319691"
"0.06739104908876319","-0.06469053726044903","-0.06123602167285311","-0.1102909755424755","-0.039092995804044045","0.21817216649690904","0.6045287266076637","-0.7436612918106074","-0.5978334233142623"
"0.029081430642982724","-0.030204080582106805","-0.014765782667416003","0.09809617525411572","0.2815322240690838","-0.21743645213762272","0.6303863565455268","-0.7273155803309613","-0.6095353312484418"
"-0.04851988196836746","0.03175021924560085","0.005775215383696276","0.18271223754800534","0.4081137053115427","-0.39303118838183787","0.7672813305592341","-0.6859433840434955","-0.4695863959965135"
"-0.024507167800186212","-0.021003121777951644","0.02149095827226897","0.10413261524254092","0.2643483512137074","-0.4418600864833058","0.8666437318075306","-0.6306925045626579","-0.34266318787243605"
"0.03490071069240083","-0.029317015915280378","-0.01699625500757298","0.10044528427672458","0.16918368041310444","-0.560219199823693","0.9357181548850759","-0.5354810439100302","-0.28993922838128566"
"-0.007609688503811654","0.038589134662913735","-0.05074454066544808","0.1352005448161422","0.19281988212893963","-0.4729727342795691","0.982891611226457","-0.44178673969013804","-0.2506495821888723"
"0.010108112864386887","0.019641890415160942","-0.044825527955364854","0.009080347290831726","0.017958419394627438","-0.43836537409433396","1.0066594542620146","-0.3447151133243302","-0.2824375862838157"
"0.03621495908211885","0.020914319240526724","-0.041378622088955604","0.047745333953533975","-0.03785326792951967","-0.39208470377649135","1.0164953846155333","-0.27520296337577876","-0.33127180542812984"
"0.041595193515631165","0.010869506413737151","-0.03291108820502635","0.039849824488609756","-0.012638926135573731","-0.4356472644584669","1.0184179885656546","-0.2286196645584823","-0.38177305614965956"
"0.012072264303965474","0.027480051979414142","0.011185246697268685","-0.023739786553731896","-0.07548068422927273","-0.46338654404593105","1.0251610343037612","-0.15420248189957383","-0.43874631181802604"
"0.015695353454521457","0.0018332881905640428","-0.012157369180732434","-0.012512200725180972","-0.010007256693822781","-0.36861673933110395","1.0230991112268197","-0.0804502095381425","-0.4890187542838595"
"0.014121143844859206","0.006735411128058946","-0.04958386894769973","0.052328022046820064","0.04629026993250281","-0.29517924149062585","1.0129845426196595","-0.04345797790866097","-0.5326557573345015"
"0.01927030163842109","-0.02464694244683585","-0.08400749206412235","0.13893601326193","0.15884463713521785","-0.28940325851440846","1.0141826871103152","-0.033143952698985985","-0.516344997392726"
"-0.08883312744638472","-0.06420753366551427","-0.1274789849233484","0.06464736592112444","0.06674577986215482","-0.3991954727346077","1.0190031288983001","-0.035431560746258486","-0.4823015976344909"
"-0.13182301067049437","0.020161249119391874","-0.061946468418236436","0.09929961225340306","-0.0033682506630687455","-0.07134291297697834","1.0268607276509698","-0.018733605120925128","-0.46257505730410703"
"-0.07200304550332902","0.028530195279369085","-0.1788686545901317","-0.046233468194810924","0.013722762266571022","0.15052763981787248","1.0435511590440516","-0.03695927131069999","-0.4768428863914517"
"-0.006800920263985183","-0.05736861824820137","-0.06352019056934718","-0.12370207746253331","-0.06783410013833577","0.2596063502586566","1.0413220530149256","-0.05291843771661433","-0.4938073842066453"
"-0.00617508769745278","-0.0435900318249548","-0.01951173214675001","-0.04086806467718837","-0.0835101958490203","0.16944762439038957","1.0467833627862846","-0.05905962310303503","-0.5075358795484203"
"-0.0024874896515773163","0.02531224874795424","-0.025079651988475195","0.017794193915271303","-0.014328354526745064","0.3019797379749403","1.0539722297302159","-0.08765736222686779","-0.5289948252433615"
"-0.01716085628842907","0.10405222189640556","-0.07872664227358403","-0.045843554607041835","0.08627987042560632","0.5713395491221532","1.0514923492728134","-0.14669717499015442","-0.4867143282800615"
"0.01640591412236899","-0.030673580850731564","0.03474244227540157","-0.006541227709517036","-0.35575491575398205","0.6393650965269317","1.0028421101871359","-0.22769617803420852","-0.4804547881420855"
"0.07361760171609391","-0.03173826619440497","-0.009589228111301692","0.027450572397552712","-0.10255844711029334","0.5684758264700791","0.9535231392927208","-0.3358496426913018","-0.46324513862436023"
"0.05630899856447424","0.014326773436061604","0.02024891561914822","0.04882361350489541","0.03641313298624401","0.5157639146030869","0.9153775623693002","-0.4175913927541647","-0.41321784786105864"
"-0.0251330003667186","0.057408616669425726","-0.06982747068679107","-0.0876182224759025","0.010694523502795579","0.6372051701198589","0.8659192723480645","-0.49653629791494125","-0.3678484394458591"
"-0.02537370520000029","0.020603742735396627","-0.056120392055659746","-0.1549144194760491","-0.26303858784071193","0.5048914760596188","0.7984609511416354","-0.5848216096355155","-0.38924201135345854"
"0.016270156596398126","0.00869183536689686","-0.04934016919201591","-0.25931498603822206","-0.31679203969750197","0.4007539006354644","0.7159004365878772","-0.637143717567942","-0.4917971402458853"
"0.0041280419863366094","0.010851744346052452","-0.02662446060925058","-0.0852479329621062","-0.15556519028590268","0.4524950590610755","0.6132779677719837","-0.7071967667664252","-0.5564027855864053"
"0.0884402053495803","-0.07387591530347726","-0.059689147799910906","-0.08235583316541893","-0.053182335567219616","0.1353571904126898","0.5449280041539045","-0.7491758256269851","-0.6016414464269212"
"-0.008668789770251095","0.01779193471069037","-0.055548317205452814","0.06647273916164342","0.24544130447868331","-0.22260086044577002","0.5839094958382472","-0.7372628494638532","-0.5949406332243881"
"-0.031497236158686444","0.014463884133978571","0.035989854584156024","0.08544949651600522","0.34694103258404696","-0.3541767818905605","0.7053957744256203","-0.6946901206948315","-0.49627524467879774"
"0.021984489338505414","-0.019782628823008963","0.054176465165102605","0.12568857877377526","0.23766308904971772","-0.3786883062854326","0.8044238097695479","-0.6349009645804199","-0.41045580534586806"
"0.023532702826173237","-0.018489425649473944","-0.039360870721980266","0.19448666514903246","0.2297436690945032","-0.4627312854729988","0.9058759979201502","-0.5446763311588707","-0.30899568739141625"
"-0.017545984021679784","0.029691481342029445","-0.1010540834489887","0.17437482601694282","0.23342695326225027","-0.4954456764475409","0.9786284459457535","-0.4571825793162453","-0.24094157476861705"
"-0.00956421175005896","0.02719440469208713","-0.04584576252576998","0.016576315671992543","-0.0027278043711329923","-0.517700199091202","0.9865974999998797","-0.3831057674048548","-0.2591972048838108"
"0.03765726244314273","0.027628588568824185","-0.00785813374507986","-0.050501337169083456","-0.09447388965827923","-0.4849615392806254","1.0097523388774265","-0.29289432664793813","-0.31924302855724124"
"0.03704876062460663","0.007189642250779318","0.0036273531302117835","-0.05005462135494801","-0.045588404011494096","-0.4688713009897341","1.02112077962597","-0.1962765279454877","-0.37788331580282325"
"0.017310001476175025","-0.003161592211506505","-0.004794332155614243","0.0010423508851918996","-0.03620667955563404","-0.3942931678556333","1.0288111954264554","-0.09854262981512929","-0.43317319644713875"
"0.012578707273190147","0.0027915049998701092","-0.02965212028579699","0.10057044172465045","0.017525232627660432","-0.2761039363674878","1.0183065332641985","-0.04630099713696099","-0.4807816570787944"
"0.008627296730037934","0.02527485492124961","-0.05915837799304022","0.11833317183413121","0.0605256008160374","-0.21060234791029997","1.004764714137257","-0.03592628566997659","-0.5133541466218392"
"0.013866959540913736","-0.008767030706270933","-0.08814832265858043","0.017869288384026835","0.03234452799263122","-0.16003822803236342","0.9934241372140782","-0.018200621469772815","-0.5006879753243682"
"-0.08162161064126533","-0.01725439065081279","-0.09968482126239234","-0.017094888818467064","0.040058124401110055","-0.2794530357402525","0.9630804313925988","0.012829845012289771","-0.47532294583575524"
"-0.12068319098621777","-0.003377853175948264","-0.10914574143855817","-0.045288048088170815","-0.08648745738552284","-0.05026300199738837","0.9629968399165066","0.04370991511754205","-0.451298078987649"
"-0.05657867978663842","-0.02026770985276065","-0.09766913514758381","-0.02118753736564336","-0.15718305909512753","0.10972201890941916","0.9560030197501235","0.04678512524337377","-0.4936602931851262"
