"AccX","AccY","AccZ","GyroX","GyroY","GyroZ","MagX","MagY","MagZ"
"-0.25590828622701195","-0.23714185381717223","0.4669482702508291","0.5221962855353208","-0.43469226266448974","-0.3772796980067361","-0.2223752420458724","-0.38995150643404736","-0.5756426075216985"
"-0.08532429410475252","0.030086446256626254","-0.5568802201163919","0.3586152795243433","-0.22150386156971563","-0.4428998035725264","-0.15295775685525423","-0.3539610237815538","-0.5940419483361898"
"0.10656253238099388","0.07398410105637925","-0.4446157979719298","0.28228871940004596","0.1816500558574012","-0.24093466961049004","-0.0967570470935838","-0.3283335594803618","-0.49545096466162425"
"0.1980598639546513","0.17631100236613784","0.11270653271788675","-0.02086352565716764","0.03091249732721837","-0.08631748923538694","-0.06447987742585574","-0.3163717421266633","-0.439157180275899"
"0.16709341148537524","0.09896393594671007","0.1759662821534478","-0.1924273460851945","0.06815276171176643","0.10804920157391104","-0.06655848008975575","-0.32311704010757814","-0.444947375575061"
"0.1735607978505695","-0.03566939312235506","0.1889595394592739","0.13157956087236894","0.08714765693381937","0.08485476822045843","-0.08028510145513205","-0.3363275544923456","-0.4235563681628406"
"0.18139203164253503","0.01472381463706524","-0.01264357299571101","0.2448107318373059","0.12294684359059888","0.12445268105103598","-0.09224687150210302","-0.34539519554973463","-0.3409958298808492"
"0.15868770916892525","0.09948126326455567","0.011504462682719875","0.06909376290615128","0.02340895467573376","0.2623198731407459","-0.12875968433400428","-0.36318037569318473","-0.2961011229663127"
"0.1601019234148479","0.10717705981763485","-0.03264247315818351","-0.20222687551745475","0.04288420914037621","0.35877307498511546","-0.18880384807798004","-0.3934175159501922","-0.3075987401805096"
"0.11823472904696167","0.19325457742583302","0.4096908698861347","-0.3338520943747977","-0.08188082206634556","0.5465684737518987","-0.26630043041507717","-0.4316486512191835","-0.3956104970457147"
"-0.10794455238554386","-0.13540965784288567","-0.15197281615710267","-0.24803568957188782","0.15531311807404463","0.03529782098081537","-0.3376396425968485","-0.45665760203769645","-0.43642171700999133"
"-0.4646886098836345","-0.010898478879615722","-0.44049010389956433","-0.014649900377294243","0.13191216910961887","0.05316158757849916","-0.32136379154933065","-0.4457927708608249","-0.424762494617261"
"-0.4299695605255578","-0.1907835780568972","0.14214362782642634","-0.13292801297098605","-0.06848997997357194","-0.19590399367885034","-0.3179517456670798","-0.44585112118937953","-0.4350461021975969"
"-0.24922258389837862","-0.205279796959092","0.2336590236134405","0.336324109633063","-0.34640140567094485","-0.5160379127462785","-0.2451222145942107","-0.41304656647596855","-0.44124228123795256"
"-0.0002205014603805625","0.06262721886931583","-0.40334546213765127","0.384708519658428","0.04138515702126064","-0.5266188067130396","-0.15240869200063906","-0.36619125264660346","-0.3969782286786685"
"0.13245573769987756","0.14920216659082705","-0.06400042713028539","0.2769596886887604","0.06368459255009322","-0.32972755172921625","-0.0839716797646901","-0.3273766140920659","-0.2764956556974009"
"0.17255148981269994","0.1834010395812269","0.050462132667667574","-0.1814166733094603","-0.06545129366139787","-0.026204708041009342","-0.05412608302454327","-0.3144578513500716","-0.27726426569286494"
"0.166388813741304","0.055044173141920956","0.035345750327848265","-0.13099938217846677","0.0333225755960727","0.041649451189517274","-0.05691062621580489","-0.3192075680944182","-0.28467051277736133"
"0.1803304389030767","0.006351734209930642","0.16319404417292704","0.008004305898460334","0.030071868652686705","0.09284612761114377","-0.06781348547173298","-0.33052753183401573","-0.29868286423312757"
"0.16956371576133297","0.03645134090653","0.06278295542014059","0.046032980409271014","-0.06711143176789906","0.22072025317669045","-0.09173702556567488","-0.343142872867526","-0.27255800756679327"
"0.1653420442614322","0.03954425081108552","-0.031014967217299114","-0.07864426169791489","-0.07264632973035733","0.29438121939149015","-0.13872128955344934","-0.3707309082081534","-0.2954704686110602"
"0.162404278546518","0.04361875613924551","0.00995732740558286","-0.3432652844114181","0.038676924739764536","0.3091480635152769","-0.1863330562322122","-0.39575152909237726","-0.34298239109989453"
"0.12963089403501804","-0.19336800384562158","0.3952375455222313","0.16572767078697542","0.15267528326775562","0.34033385625941487","-0.2551230387318424","-0.42787921999455464","-0.3444368377066956"
"-0.2585789823314794","-0.13054368593443197","0.11561662050107306","-0.039059804573234116","-0.017258424443013353","-0.0915491534745077","-0.2802231463713879","-0.43062168543662205","-0.3482247054279309"
"-0.4533964048781682","0.052198872893770155","-0.5820697256458827","-0.3444304349696969","0.13433881149028662","0.2785129722699937","-0.3103824944570293","-0.43673679986914693","-0.3856579830018864"
"-0.37847352087364533","-0.33397491587545086","0.14246511048141583","0.19064962799142202","-0.2402999874500074","-0.24744408508009977","-0.3005777649103316","-0.4382655784772781","-0.4144315879602812"
"-0.19317381397442102","-0.19732754754759368","0.19713725449556957","0.4888361853403923","-0.3596444130657836","-0.4584926999445954","-0.2297876175831755","-0.40802843822027063","-0.38047873410937527"
"-0.027070855584489503","0.09224752401673175","-0.33409943776397305","0.12903156057255408","0.018845541871133294","-0.4998881272180643","-0.14985946231849753","-0.36286528391898976","-0.3571839388622365"
"0.13044644217430174","0.12359888595847718","-0.022857344846940263","0.15122154633640497","0.06611123493076097","-0.3368742958997478","-0.06997052597200619","-0.32469249897855307","-0.27741404610223735"
"0.18755255681773947","0.18822721708061552","0.09077136931463367","-0.17034467682013243","-0.05144964994550396","-0.07470944415840225","-0.03804632656795938","-0.30742080172638364","-0.2624517715238721"
"0.1698752372264044","0.06457935571400669","0.10894786467663439","-0.08831194514594887","0.0398322715387514","0.09141368494839221","-0.04255650215944017","-0.31452787174433716","-0.27514763201304876"
"0.17961558855382592","-0.01471056218799677","0.16270512263513046","0.006410195963594219","0.07349468777159819","0.1481575961309551","-0.06208752341646112","-0.3294188755914778","-0.2508832056947093"
"0.17281945562989318","-0.003184553762406913","0.07722951525317862","0.10586346157688499","-0.033754209295214756","0.18447914442621108","-0.08428543111018473","-0.34446159029286055","-0.22570038897153333"
"0.16624273204163012","0.0529350694614735","0.001166786058213416","-0.18069611967473528","-0.08929740313080964","0.21789558762357555","-0.13162266536164","-0.36493088554982356","-0.26122199553112974"
"0.17229356151106714","0.045515622971346044","-0.008404020483036824","-0.27505491778123614","-0.026525630899833116","0.20071555715649242","-0.1591543459287667","-0.38044040287964326","-0.31360572291428956"
"0.07419871435262868","-0.02134782745994572","0.27291339529872227","0.07091814338556143","-0.14066685489221506","0.34803748958609176","-0.22190461502763087","-0.411412757276439","-0.39209065742546173"
"-0.45267943948099576","-0.10766190072203054","-0.09150728679782547","0.08990089892846606","0.05731569155782868","0.07332097503095977","-0.2611627521326076","-0.42770416900889074","-0.39853121502847777"
"-0.4226385893394693","-0.29404785878018797","0.017901967517011157","-0.19269410423932676","0.01694066901258864","0.028885551730666523","-0.2793603301712781","-0.43370258278430635","-0.39726202313853215"
"-0.326762391602581","-0.3147188434889758","0.31111625079997585","0.0902013851250748","-0.1573055052088073","-0.4017518825906777","-0.22625791494636477","-0.41081758392518186","-0.43043444222481303"
"-0.12473946681430888","-0.01718201607098649","-0.08779014359950925","0.29767177295500513","-0.11631346949851694","-0.5401078996063374","-0.1428784948812489","-0.3686886467087415","-0.40747468210390214"
"0.06615436259635359","0.1049375189074742","-0.18542710494194867","0.34546134295851205","0.08030253772691869","-0.32972755172921625","-0.06871552059002896","-0.3262329476523952","-0.3024194912879986"
"0.1819636323054308","0.22765684406256526","-0.017827480807416887","0.0693482563175648","-0.07920157698052296","-0.13152760722845125","-0.0363206941677402","-0.3053552000955499","-0.27126516613852564"
"0.1640423652377078","0.109367963116716","0.0761996321728091","-0.13552813842735548","0.023214326361925938","0.08762683868660402","-0.030869264539776804","-0.3119487872222227","-0.2793099507577152"
"0.17407289038549992","0.021487758777871256","0.10739537135524754","-0.06252838976551194","0.1071778091442118","0.10856587095766806","-0.04271337783218705","-0.32449410786146743","-0.2651478188925765"
"0.17530409921379433","-0.015329586329008596","0.11514712187368213","0.027838234586044393","0.057481332675963","0.18055307587538655","-0.07134318810854369","-0.33894164921159287","-0.23609830265375872"
"0.1624017691676279","0.048060254351005374","0.03607444434582449","-0.06426078467453167","-0.09160395570083003","0.25228349301554914","-0.10413020371270032","-0.3585123494088146","-0.23541246604242164"
"0.15468524983920992","0.11779774543699491","-0.05820704178516193","-0.36546446873230803","-0.07562786985677505","0.3366212618851127","-0.15758558920129484","-0.3875941531604405","-0.3108584348792209"
"0.10652130687065646","0.238290794484947","0.17849795806149021","-0.46563675488748396","-0.05348993441812343","0.5618210489729899","-0.2308465283742188","-0.4253584858009948","-0.4018066760860704"
"-0.0029091216997773235","-0.018747704987645688","-0.5661094513367159","-0.35531539413256413","0.3050237016717947","0.32588567648608896","-0.3209716023674628","-0.4650250391524299","-0.47996051706073506"
"-0.3578249174350782","-0.13313032252365997","-0.16521388300948317","0.05499850733665806","0.09469260986483757","0.2377146539250585","-0.3615239637726033","-0.4845257189553861","-0.4289760540282917"
"-0.3783659760640694","-0.258940346782803","-0.03818804895675257","-0.020390106588224904","-0.21949546301233708","-0.18084014200511941","-0.3638378799456243","-0.4817949235790295","-0.4285858366459792"
"-0.3632559303186597","-0.12419647768855714","0.19216097089854442","0.29065634011989516","-0.35739583488711024","-0.483026761101442","-0.2978324406372566","-0.45397348692418366","-0.4470837172034788"
"-0.09715422315809821","0.016715745890821157","-0.28182501855161607","0.242888233416146","-0.20804966174925565","-0.5268972512911123","-0.20853096392593537","-0.40946385630271454","-0.44892838119259226"
"0.06426336636131119","0.1253012023462597","-0.28915884161856426","0.34815958635663136","0.1764737709157038","-0.3950073361440288","-0.10875803605874138","-0.361569906625077","-0.35157505669020966"
"0.19559529540187093","0.23402394951297265","-0.01632053086215354","0.0844614855327121","0.009592829012150285","-0.09447282154427064","-0.07338257185425708","-0.34510344390696146","-0.2800233784970946"
"0.17427830097178984","0.0777778347205803","0.17406417644475985","-0.07291049447691157","-0.03130313484962219","0.08672653455083576","-0.08001056902782447","-0.35086845636815855","-0.26305483475108227"
"0.17417882202293217","-0.06081945965146414","0.15038831841584485","-0.005176306482784075","0.07711394620283304","0.0366621994133714","-0.08538356081941464","-0.35953931519137605","-0.2585417145213067"
"0.1637381926679574","-0.001474499572861741","0.12780148288070675","0.08170191842099928","0.015859860716762212","0.04006850475179362","-0.0839716797646901","-0.36158157669078794","-0.22606695681552386"
"0.17380456608560813","0.07201869940866668","0.017755291055672185","-0.11849241079104825","-0.07863011512295956","0.11017466185319899","-0.10769912526769808","-0.3672298884948758","-0.22715483557833438"
"0.1645322318453259","0.09632866174640257","-0.08754903160826712","-0.3111623203451588","-0.03077473968277371","0.17680026172869612","-0.12711248977015918","-0.3817124400421341","-0.29273894693487285"
"0.15344310728860863","0.13429916039596732","-0.0045864139550363826","-0.48679343607728237","-0.017752449077848956","0.38556563105299585","-0.17405753483974704","-0.4093121454484725","-0.3804235518532907"
"0.054519806613737364","-0.3683970797167157","0.07558171571969802","0.06963034540009544","0.14668321581924668","0.42275345136892234","-0.26579058447864906","-0.4528414905502239","-0.3969821702683889"
"-0.3837611406777922","-0.23084107238187326","-0.10954380325379948","-0.06832041451442922","-0.007493880528995299","-0.06774214204929525","-0.29540086770967533","-0.4612089276649573","-0.3706405261674365"
"-0.4607453001991859","-0.22312537862426152","0.15551864578505245","-0.3708609555285464","0.11316987659272074","-0.05390654034772928","-0.28096830581693655","-0.45998357076531016","-0.4033951367433626"
"-0.35061941519349493","-0.2794565754563378","0.5217878531477899","0.3741608409203256","-0.29161974687597253","-0.42736878377336246","-0.2327682553653719","-0.4342394058070089","-0.41958718731447026"
"-0.16049811599828573","0.008165253863044933","-0.5599343053387923","0.4016338646102668","-0.21571884551887457","-0.5389941212940468","-0.14385896783591853","-0.38603036435517646","-0.3734272300997084"
"0.09950938528630972","0.06747771517424421","-0.20038274595427322","0.3930792065639569","0.11333551771085508","-0.3673794463419304","-0.08252057979177893","-0.34809098072895833","-0.28043724541772896"
"0.20670108940407245","0.2711875059787184","0.009014981373144847","-0.020692125877673474","-0.07711863991998391","-0.13632304162859152","-0.033889121240159394","-0.32231180557352435","-0.23340225528505437"
"0.13955727995887085","0.13365360664891213","0.05518457891835725","-0.16597842841226682","0.04575394151205328","0.057245441390231515","-0.04549792102344954","-0.3265597094923011","-0.22869599715898264"
"0.17460846353718776","0.025596310433786896","0.13556461924317223","-0.18757664033993926","0.0377534755061657","0.08582623041506747","-0.05138075875146783","-0.3343319732557774","-0.24876263042517274"
"0.17482713798332536","0.035728409141848334","0.12499386769379837","-0.1710590980834981","-0.025263445579649612","0.17452320384579084","-0.07165693945403832","-0.35319079944463266","-0.2621167363976442"
"0.16842696712411603","0.035277405839111146","-0.051877852015055924","-0.18796604592125876","-0.07400458689905873","0.23374217794455518","-0.11032679278621324","-0.3708359387995518","-0.30874180119940475"
"0.1700189887885375","-0.00013455549562653318","-0.1008905617903318","-0.2936942605280165","-0.0333972526856353","0.24420860025144198","-0.143388340817677","-0.39303240378173165","-0.37073512432072436"
"0.1626647162270409","0.022181507975905224","0.28594683793642206","-0.2865009889234851","-0.040453150215361916","0.3114993732856682","-0.19903998572473225","-0.4194067522884229","-0.4431736602009133"
"0.04650592588684211","-0.24755472418919255","0.06553565065348828","-0.22027751061373638","-0.061790210847834114","0.12990091329532436","-0.25108349015860265","-0.4385690001857622","-0.4721404030556042"
"-0.3639549715809028","0.04447654673464762","-0.437127931132799","-0.48090635957229494","0.21783021708588968","-0.14615832289184694","-0.2217869582730706","-0.4228144114760131","-0.5361675864726131"
"-0.49962274886086305","-0.027617657688194085","-0.10383748612773566","-0.03986314522131052","0.15912286379113394","0.15654187175958745","-0.24139641736646564","-0.4293263081427094","-0.5433176302252882"
"-0.33120757706505033","-0.38962076455140693","0.6321568671388764","0.5049949838723108","-0.35728816816032294","-0.3936151132536655","-0.19660841279715102","-0.4124747332561332","-0.4953524249186161"
"-0.17308085871866258","-0.07160816610909884","-0.23396428829005259","0.32967048670815535","-0.3713842273135534","-0.5175538887824519","-0.14515319213608283","-0.38209755221059466","-0.4795624164989819"
"0.05371859778239714","0.018133753333838962","-0.5353408822320948","0.3772270266000065","0.18369572366636003","-0.44472516247322497","-0.07620633396370573","-0.3338768406930513","-0.42808525475149756"
"0.20942735032682078","0.3003037486113104","0.06792185566014793","0.13911624527302466","-0.19675293749249517","-0.3342136032648313","-0.014946383755939789","-0.2917362334109001","-0.34453537744970375"
"0.13981717991534587","0.1952111358715311","0.0278632415329674","-0.22820360059571154","0.009403998137477162","0.037017989707575354","0.008937937419815512","-0.28761670021494345","-0.40872416604524614"
"0.16887112718766437","-0.004176982108479088","0.18196729171325202","0.06813404678841116","0.09459322519395696","0.0647789141414196","0.00807512121970614","-0.29408191661879596","-0.38573287320657257"
"0.17413437016830746","0.018231028555997963","0.1848003576103471","0.20625344691531824","0.0389667966964996","0.14946009799060614","-0.02012328095659603","-0.31239224971923785","-0.3242401319797346"
"0.16316623352236306","0.0032031121326840566","0.10060605953518781","0.050902083268604334","-0.09621706084087078","0.2112067300925412","-0.03965430221361742","-0.325486063446896","-0.3114851476447531"
"0.17445790080378154","0.03562229071767488","-0.040371451988556344","-0.1482282795125939","-0.10734814397949696","0.1827961016431941","-0.07750055826387","-0.348301041911755","-0.3575071492193034"
"0.15527853870537014","0.07466502761149225","-0.042440996580051314","-0.44487867783604407","-0.053291165076362244","0.31094248412952286","-0.11318977381384895","-0.36543269837539333","-0.4243683356452282"
"0.0971559463700911","0.02850572389654248","0.2774878255770105","-0.08742275129884139","-0.1248357050265276","0.5038427001609715","-0.18837243997792513","-0.4007229770852314","-0.5185605051919077"
"-0.17306293458373323","-0.1103104397253597","0.17725221277340583","0.05340409078322397","0.09841125296695301","0.05813646404006402","-0.2449653389214634","-0.4265371624377982","-0.573809768301746"
"-0.47357898080857325","-0.038890529456120176","-0.49584539855557075","-0.05750904380787427","0.12091359886550013","0.24138084086968184","-0.26692793310606605","-0.43000317195394305","-0.5680392809511857"
"-0.4013447170434471","-0.24565343575608484","0.35755709933533564","0.011194058861032401","-0.07516407472599895","-0.13408310968942921","-0.27402655729787495","-0.4314619301678087","-0.5699312440169432"
"-0.25752145837065","-0.1524328217207109","0.3610130378764729","0.40448541729237","-0.29381449169125223","-0.42956540211149125","-0.21668849890878802","-0.4109342845822911","-0.5438576280169731"
"-0.028773648402774094","0.038772681435324356","-0.4023944092833073","0.2979201339950593","-0.10315742369069872","-0.43844469032336386","-0.15284010010069352","-0.3726447989847452","-0.5087341220191298"
"0.11479687996751967","0.06093153488304413","-0.20876138764993735","0.32991578156252976","0.09718964972071241","-0.42043860760799845","-0.06479362877134995","-0.3309126440024763","-0.39883077584722276"
"0.17646307377832363","0.22045184522128836","0.13305169649000423","-0.1816098430072802","-0.08926841593513614","-0.17007671214828846","-0.02169203768406746","-0.30316122774189597","-0.37715203238541845"
"0.15486986842898182","0.09373539275566374","0.07656752888611272","-0.26989452728233315","0.0734367133802512","0.029416452726191727","-0.011691213546436225","-0.3021926122878891","-0.3986218715920454"
"0.18175983489128453","-0.008626218122001594","0.20757874322741637","0.06230829399701739","0.10102010057756852","0.05633276193988224","-0.01784858370176254","-0.3094513931600847","-0.38423112752312766"
"0.1720211146601416","0.06359554948989862","0.10810732148494306","0.09379495474166084","0.007832478029177817","0.15186090901932153","-0.03679132118598171","-0.3185190342174736","-0.35267476022218125"
"0.1645938908694827","0.0935651611168855","-0.0061268516768611175","0.08624907178396608","-0.04666055111744549","0.28595363016182423","-0.07530429884540975","-0.3418825057707461","-0.3365615414454801"
"0.15699029359111938","0.06488002458249816","-0.15635971488664704","-0.19849839373096276","-0.00015432258446366706","0.34995566334614786","-0.12852437082488374","-0.3705791973539113","-0.36602886619465264"
"0.14035490396322522","0.0039233909367613895","0.46072624136571955","0.02331561070851502","-0.08689974794581538","0.41938117814559783","-0.20398156941626797","-0.4075849757232556","-0.4288775142852834"
"-0.17460441018765407","-0.0018567469799365443","-0.0744954963046305","-0.19294553146506058","0.0974463934538206","0.16702066938105525","-0.25280912255882143","-0.4298748012311229","-0.450355236671351"
"-0.3921854840945687","-0.18381734567001054","-0.20783042746153024","-0.12372638974626358","0.14410749643225798","0.1215259191526278","-0.2747717167434236","-0.4349862900125081","-0.4732992304333806"
"-0.4226565134743986","-0.27067969745699155","0.14999316265242021","-0.012255209361463437","-0.16837447292813312","-0.2744501153245026","-0.26096665754167364","-0.426875594343415","-0.47165952910972414"
"-0.27836722729343943","-0.18584243893132066","0.22386719774688496","0.2430170132146926","-0.2912470543601703","-0.5364262435184879","-0.1875488426960028","-0.39348753634445777","-0.4893257342362345"
"-0.007945803614913888","0.06893021110511839","-0.3119841101228195","0.29401074725346615","0.08326337271356961","-0.45812144050716525","-0.09624720115715568","-0.3392217307886551","-0.45720571960528117"
"0.15475156913844834","0.12385976041790359","-0.12556435556077677","0.35849263209715604","0.024585006614487412","-0.38844841941609504","-0.0447527615779","-0.30943972309437373","-0.3489460163467509"
"0.1393887930905353","0.2815782683457026","-0.0759756560286447","-0.08462025758761302","-0.020328996670428274","0.08077710206601657","-0.023025480902418783","-0.30173747972516307","-0.34170531603050824"
"0.18040036095343595","-0.0128585746061196","0.14517092282757754","-0.003033655929823042","0.11279304304896517","0.05827568632910036","-0.035850067149499114","-0.3120654878793319","-0.32133912194557324"
"0.1838471004038029","-0.0063583789653946935","0.13334839819033828","0.028947887183520916","0.05730740950192196","0.07547427976805501","-0.04424291564147187","-0.32093473781963516","-0.28405562478099017"
"0.1670973547950597","0.05528957199782207","0.10072929455293378","0.09046814327920705","-0.04824490841240024","0.15263746000927972","-0.058950009961518265","-0.329243824605814","-0.2679739387220517"
"0.1616521818448841","0.09682609185971565","0.022791182894976628","-0.1125194810870298","-0.08092838563707323","0.25875268871277063","-0.09683548492995747","-0.3506934053824947","-0.2868423287132621"
"0.158485166444224","0.07502317729307766","-0.04974133187043813","-0.3114689389131268","-0.04368977766370649","0.3448508460814824","-0.14982024340031092","-0.37914502558573054","-0.3372000789801733"
"0.1388349373212196","0.05326890033751917","0.5066848659185951","-0.045379213259056514","-0.14685355065453184","0.4549602075659933","-0.23425857425646968","-0.41605744342938733","-0.43286640308225544"
"-0.2575393825055793","0.10388296706725049","-0.08910956199602868","-0.27007543223743435","0.19594488435239288","0.2699770990377441","-0.30622528912922936","-0.44671470605198804","-0.45589711181813225"
"-0.3530391734089521","-0.16633433528743363","-0.24062835582577266","0.019525805208429392","0.11359226144396325","0.2005670533815203","-0.32701131576822795","-0.45766122768883605","-0.4181445654768302"
"-0.35993996535673706","-0.30631780157524385","-0.0009697340864043794","-0.16683696040257748","-0.15211265615529643","-0.2942042112244352","-0.31716736730334405","-0.4527948102873801","-0.4642059829485838"
"-0.28291995756548466","-0.1928993141388555","0.154199227388533","0.22812148318280265","-0.29047268213289235","-0.5479352860788245","-0.2336702904836679","-0.4139918417985535","-0.481954961459221"
"-0.03343392348439513","0.041359318024552345","-0.12836393368131047","0.11368530124575103","-0.05614143461665852","-0.5435111111161144","-0.12197481148769","-0.35925923361431383","-0.4849111537494671"
"0.11847670486850737","0.1033214237393326","-0.029722339042028784","0.2806851042895728","0.14249663655840175","-0.41623100065045604","-0.0633425287984388","-0.3234087917503513","-0.39360028628834737"
"0.18347714625886188","0.2617031718182158","0.06409031821709793","0.10793926928202899","-0.04490848219037974","-0.03349964660364852","-0.026672840293790204","-0.3016207790680538","-0.32359765285532116"
"0.1661048954440237","0.08954592580131585","0.028175347610519718","-0.006401860898952541","0.04153009299962816","0.0734663849772866","-0.03290864828548975","-0.3097431448028578","-0.3133810523002309"
"0.1784369153650093","0.03214249072498696","0.09160588470654396","-0.058597539724161","0.07684063835791141","0.07512777095978682","-0.04032102382279286","-0.31769045955199793","-0.2912056685336652"
"0.16206658784444977","0.04150523085779085","0.09939179275707118","-0.130833808151764","-0.028835082189420845","0.18025916215408763","-0.06259736935288969","-0.3322663716249436","-0.2937164611855142"
"0.16743110218744348","0.05807075903136806","0.009281544074573655","-0.25529948344705194","-0.13942454650620767","0.28534723974735493","-0.09726689303001237","-0.3537042823359134","-0.3547519780047941"
