"AccX","AccY","AccZ","GyroX","GyroY","GyroZ","MagX","MagY","MagZ"
"0.17528527887211856","-0.03175627623095887","0.0673279164550548","0.0036150610979970837","-0.041187768574287624","-0.20393557284192398","-0.13605440311674757","0.26683979177682865","0.7459251266276536"
"0.17098904297091183","-0.02391898844564842","0.024089169114496784","0.18737800787120248","-0.016294807238266956","-0.19752515988896227","-0.1588013756650859","0.28979481103021876","0.727990893400161"
"0.1694201434405492","0.007969819098525486","0.019747813761075927","0.2335424994644785","0.012539170400964472","-0.2512278375132427","-0.194765123642372","0.3151655338857704","0.7094654217146192"
"0.10293647988479412","-0.16926143515421815","0.37236539413078995","0.04277669121744987","0.049882546381551145","-0.47714848667546367","-0.2507697388131085","0.348495241556173","0.6929895766836479"
"-0.16288202594388423","0.23448821761873148","0.45195244390663086","-0.18431421877675874","0.038912963333105934","-0.10989865116949604","-0.27932111125309145","0.36768082958493425","0.6934625674500873"
"-0.38671862294112863","0.09953432247664241","-0.5560162354811077","0.015717602594265676","0.1419541618965119","-0.16521011968930738","-0.29700884335533384","0.3703882848298689","0.6964187597403335"
"-0.42801582981826275","0.2388656026158866","-0.01508818068469375","0.06167052737564375","-0.024614960602153756","0.08485167439181315","-0.3250895887770757","0.3768768413651434","0.7239704718854263"
"-0.27152020775044244","0.34896346769584724","0.2638917882930791","-0.3510227341810108","-0.36171492704246255","0.33309429722952566","-0.26802606281529595","0.3477716974820957","0.7139982498929964"
"-0.12221216378927596","-0.03836435893626012","-0.3062710954414435","-0.1457508014834117","-0.1314240805003201","0.46538641010049187","-0.1919021426147363","0.30228178134090883","0.6836085931492671"
"0.11400284079015116","-0.019655901834530184","-0.23716571972932313","-0.23883713253284503","0.09169864665455976","0.3803989372154254","-0.16625297012057563","0.26370054410058974","0.7320113149148955"
"0.19544114784147887","-0.24693570004818077","0.23746993258612867","-0.10662013983932368","-0.07047229005484439","0.24557607251264327","-0.14538850564520336","0.21770881513383314","0.7817541771854356"
"0.12271934760627544","-0.1762718835511771","0.04931952973139236","0.1146388849921318","0.0437331198708146","-0.0902466516148567","-0.13711331390779086","0.22717323842539358","0.764647677799212"
"0.16709860948450472","-0.03488455894357221","0.09981038996408875","-0.14537672683049063","0.11888449516835473","-0.25474861451153924","-0.15511479735552744","0.24276444621518975","0.799806658104538"
"0.17465452856395608","-0.007344617070056751","0.09801008709614749","-0.1834250249296513","0.10755050166001401","-0.2668176400566664","-0.21374708004477866","0.26836857038495987","0.8498254316555011"
"0.16667846776176168","-0.03646085970264875","0.037225084348474456","-0.06887539412245146","0.024883160627129194","-0.23329910051400862","-0.24218079573020135","0.28037706800150203","0.8833289442782896"
"0.16278570413781374","-0.03245267838959717","0.017997742557976776","0.24158510450228157","-0.024455945128744813","-0.15509639384797935","-0.2684182519971638","0.30006446885583304","0.872844315622217"
"0.17066766323162927","-0.0798986679976501","0.15030794775209744","0.42956681615215997","-0.1633596880766166","-0.29982879170150295","-0.2919888218274249","0.3296364153673178","0.8190416159397391"
"0.005794838221896434","0.2495658770533767","-0.017526090818364207","0.31283712732670704","0.13027646306804247","-0.3425978788934636","-0.34301263438843865","0.37215046475221863","0.7763936151657893"
"-0.28609252944797287","0.18504808595641908","-0.1795868367096392","-0.3792316424340754","-0.007372134307166577","-0.06895492287823395","-0.3738779230014421","0.37505631111423904","0.8140752128921258"
"-0.3658728540183392","0.17735892180485072","-0.27375446440031687","0.22529139380045712","0.0709645196920965","-0.02271115673479103","-0.3971739604043957","0.37694686175940895","0.8326401004748709"
"-0.36531720583553057","0.2993309963897204","0.21313101658129777","0.02591052364922899","-0.18710434236117113","0.3556173697669586","-0.3615631826907904","0.3651017450628197","0.7977570314499676"
"-0.20907252165672044","0.09270958132198702","0.16626822206126424","-0.09823412200539634","-0.26228056382643145","0.5425155582266188","-0.27520312484347853","0.32410480422033916","0.7664213931733594"
"0.028660657151219373","-0.08928793773649733","-0.16345912351766542","-0.15191690088525003","0.0695151599084212","0.3606293721722665","-0.22355180959147639","0.28568694789997306","0.7767877741378223"
"0.189682123288691","-0.06613201326164779","-0.1390934172915854","-0.323181768209508","0.016220130148704347","0.38191491325159876","-0.18637227515039925","0.2384932021649911","0.8271612907636149"
"0.11621647145392115","-0.23917579028049682","0.18910018812083176","0.13195976789664937","-0.13887378978841103","0.08155984071326526","-0.1649979647385984","0.2160399957371708","0.8266488840999722"
"0.15194644202201107","-0.10976216120046352","0.07582698019523376","0.1663715697797084","-0.061544233787404645","-0.08891630529739845","-0.1528008811825069","0.23032415616734342","0.8019745324507186"
"0.17955530968805863","-0.04416992105874962","0.05709003340470133","0.05504450012185327","-0.012141770303844267","-0.19610199871214642","-0.16068388373805154","0.25115522346134506","0.785735182802967"
"0.1578130113843748","-0.04757234303381105","0.10872885461792278","-0.014796157434215022","-0.02970883908757937","-0.30106013550231314","-0.18911759942347467","0.27619918447699077","0.791095744822613"
"0.16535943067231365","-0.015835417484235403","0.047418763533766874","-0.09045214275036616","-0.042427592343522995","-0.2898233498627587","-0.21966913669098398","0.2984890099848581","0.7802957889889143"
"0.1795903334477105","-0.012420836106404093","0.02282667993813173","0.13006793133228622","-0.021314975426122804","-0.3424122491747485","-0.2525738090497009","0.3252134604628771","0.7828184064099242"
"-0.06765109706445115","0.23470929766909285","0.6396983144205054","0.3335952043781469","-0.11993272792975179","-0.34439229950770966","-0.3273250671137226","0.3598618855586143","0.7761177038853665"
"-0.18654188405057567","0.20144559329172165","-0.003045976233211648","0.11663803805528376","-0.18794911206365617","0.021045789943598507","-0.3159123619213668","0.3666538638023728","0.7219996770252622"
"-0.42507627168985573","0.1344229652241697","-0.5550450899608268","-0.09003207531224987","0.16120994187962634","-0.1027209687125119","-0.33301181025080695","0.3659653299254282","0.7309470856904071"
"-0.36648227460593585","0.24989749712891876","0.12208980771039311","-0.15335800815470008","-0.10887204226633271","0.20762098269269438","-0.3119904701026878","0.348973714250321","0.7715060439125827"
"-0.22875322180910473","0.19671226941348477","0.30247640444713275","-0.15035314618861276","-0.1971256300082974","0.46247821117395516","-0.26308447912376026","0.31811806051063446","0.7708359736601269"
"0.014767660167509876","-0.11051825497269939","-0.30211191359251666","-0.048157177484847435","0.0740661496291616","0.3940736598274383","-0.20476594778000368","0.2692321552475684","0.7805322843721337"
"0.1787674901855106","-0.09081781168499799","-0.16150343736647924","-0.16402833431998973","0.049683777039789975","0.40641803612199284","-0.19617700469709654","0.23768796763093725","0.8284620153713231"
"0.1231889599414234","-0.2574370024403457","0.25193665206065663","0.2563763842210624","-0.09291252053409113","0.07276408587481445","-0.15903668917420644","0.21868910065355088","0.8240474348845557"
"0.14349162757585476","-0.10142523250133637","0.049342301419454115","0.2610032584117009","0.03261860084400184","-0.11212930162272257","-0.17515566454897696","0.24106061662139466","0.7963774750478526"
"0.168219047158936","-0.004905661954470153","0.1507633815133326","-0.03534971990082019","0.0613407707284926","-0.22118366753920266","-0.19241198855116484","0.2648675506716823","0.8179379708180472"
"0.1826252121256717","0.02939667649949879","0.1219324151605545","-0.25509098282083364","-0.025489959808698292","-0.2318388133934498","-0.22190461502763087","0.2764325857912093","0.8435583040001796"
"0.1736832196921367","-0.02402510686982187","0.09040903157223926","-0.186445217824137","-0.04625514448081174","-0.19227802650661524","-0.23923937686619243","0.28218592818669547","0.8673260900137576"
"0.17310785496090575","-0.046279024739197046","0.057666692917088765","0.06668374096192208","-0.10119457644080704","-0.21303452288760946","-0.2637904196511227","0.2964817586825789","0.855146577777944"
"0.01990830206523646","-0.09309051460271284","0.31281073229398304","0.4150637578872692","-0.08261792504204328","-0.2822496573391823","-0.29045928401813964","0.3309317926612304","0.7975205360667478"
"-0.20971779051417563","0.24790777667566646","-0.07918378502322752","-0.21737383277507855","0.06326634872680405","-0.2643889845701438","-0.32363848880416457","0.3532332882348087","0.7798227982224749"
"-0.3657115368039754","0.116973116849147","-0.3282792621976004","-0.11357118277516036","0.025736212385520936","-0.013952218457218711","-0.3503465720893681","0.3386223659647303","0.8559743116192129"
"-0.3944439250956621","0.44040217652530844","0.042822231322948094","0.24818660227063463","-0.06615775303024074","0.2774610705306081","-0.3416007533337141","0.34117811035542295","0.8340590727741889"
"-0.2657844845730627","0.21842011955846738","0.2823033678465409","-0.11493563540261838","-0.2954833259564555","0.5685037188467338","-0.2592410251414553","0.297100272165258","0.7964563068422593"
"-0.009379734409258825","-0.12340058950725623","-0.1816496837458219","-0.005443371255484284","0.08281200066665358","0.376315083403693","-0.19841248303374384","0.25799388196794726","0.7819906725686553"
"0.20211788810264747","-0.10835388127966161","-0.10813061908290808","-0.16064939770098133","-0.05169811162270544","0.3413548197123479","-0.17319471863963767","0.22312372562370247","0.8191204477341455"
"0.10111359536248313","-0.29528590706221164","0.23322368251814218","0.386302936211862","-0.17906246607575","-0.013145038563672521","-0.14970258664575065","0.22101144373002496","0.7675250382950514"
"0.1494854582962166","-0.043690177349465446","0.07821278334857466","0.2620457615427924","-0.09414240583623845","-0.13186792837942893","-0.12970093837048774","0.2469306596739901","0.7203047934455213"
"0.18336619586364947","-0.014682042861500152","0.10310558717773126","0.0239702413511269","-0.05369450119901931","-0.24272909022473604","-0.14734945155454307","0.2731416272607283","0.7023705602180287"
"0.17635750062358999","-0.024984594288390206","0.05004018668299384","-0.00015634728801045876","-0.060065472705260525","-0.2566358499851428","-0.1727633105395832","0.2986874011019438","0.6925560018144118"
"0.163220005927151","-0.0068885289261612515","0.03334653006713225","0.0367914967707127","0.004613242898237342","-0.2356040028547212","-0.19331402366946085","0.31852651281051686","0.6880231736360346"
"0.1914533863024056","0.02318874868535161","0.019363374086150967","0.06958435261490023","-0.02337472273012305","-0.22710834939485983","-0.22586572576449648","0.3382255837305588","0.6626393358371218"
"0.07019625502291338","0.0495834958979952","0.36518561483602424","0.11834283729318638","-0.0755036390181743","-0.27998806859950326","-0.25394647118623837","0.36286109244632203","0.6444291913292063"
"-0.21082908687979304","0.19686923624924133","0.0779448811360834","0.0042371901724043435","-0.15497824749902014","0.021405911597905815","-0.24971082802206518","0.36265103126352544","0.6094278746126932"
"-0.4000541793285366","0.17489166844281787","-0.542627822411857","-0.1731870309451967","0.03812202699401457","0.03181107609761661","-0.2555544468318969","0.3544236349373231","0.624445331447143"
"-0.41105959817513393","0.25011857717928015","0.15230381923515734","0.07239297869748795","-0.14584728086186585","0.32390562615312785","-0.23300356887449244","0.3362883528225452","0.6284263370646744"
"-0.201114205748106","0.09886002832304022","0.2363715335149145","-0.1037900504569782","-0.131295708633766","0.47819486069183426","-0.1681354781935417","0.2967735103253521","0.597287778274083"
"0.025756947292670897","-0.028669998727914186","-0.2977451075289091","-0.15926041558808587","0.1286366159985127","0.3502959844971255","-0.13366204910735294","0.25900917768479775","0.6307124591024645"
"0.18903846760337942","-0.17466684238555355","0.03260578044959392","-0.3011542902866802","-0.05455500680772709","0.26125250225813407","-0.103973328039953","0.2185723999964416","0.6830567705884212"
"0.13877578767595286","-0.2090602658202714","0.03365461761149719","0.32194369879535933","0.04808948127774717","-0.04774363368638772","-0.10283597941253647","0.2234971677264521","0.6875107669723919"
"0.18338913875635895","0.0038256735545016654","0.0937511116730677","-0.06426691704589103","0.11155901671886452","-0.11353389982766687","-0.11142492249544315","0.23593745777429842","0.6990202089557498"
"0.1670063001896188","-0.005543035739661972","0.1366723948918236","-0.21330193819246224","0.045422659275784635","-0.2012253789486834","-0.13758394092603193","0.24978982577316677","0.7429689343374077"
"0.16154965579308844","-0.07159269050557354","0.1538040716251084","-0.10111940272997609","0.04332315810343215","-0.31363964277390693","-0.16535093500227965","0.25996612307309364","0.7703235669964844"
"0.15774489967164343","-0.08631662185964056","0.05236691739848043","0.035236940631114474","0.0030392381731659847","-0.3894384445825756","-0.21104097468988983","0.2934242014663165","0.7809264433441667"
"0.16773581248124178","-0.022470914115781462","-0.08257944556655424","0.0678979504910757","0.018957349625873962","-0.355406329484806","-0.25473084954997455","0.3296947656958724","0.7777337556707009"
"0.025086584646314608","0.24003732688280183","0.4119278533604367","-0.1078251508114383","0.033074113918871224","-0.2671641488649346","-0.30630372696560343","0.35189123067805234","0.7799410459140846"
"-0.28682741898007463","0.06352259307327936","-0.34375061496897064","0.016265529975224655","-0.05247496846675539","-0.08408683878216042","-0.32289332935861503","0.35117935666968586","0.8025263550115644"
"-0.4678253334962641","0.21240010978712737","-0.07675927000018162","0.26731653472616396","0.11268537632217786","-0.05959918505499256","-0.3399143398516824","0.36100555199828493","0.7976781996555609"
"-0.3361008659007525","0.41301035828553506","0.4540822664959363","0.03786466175860103","-0.17195232107983438","0.37554162624238013","-0.30834311071131637","0.35222966258366917","0.7666973044537825"
"-0.1863447185663532","0.04655469920804446","-0.023312778608175412","-0.022470513571888413","-0.11184115930889035","0.5501882532668432","-0.24594581187613304","0.31116270134692303","0.7366623907848826"
"0.0537974639760861","-0.04402621902601472","-0.29860239460888116","-0.18515128746731166","0.09537587947714163","0.4210518456140338","-0.19876545329742468","0.267563335850906","0.7756052972217238"
"0.19156684607650812","-0.20216698985000398","0.09358568205685436","-0.11737018683228503","-0.1002628451513015","0.267285468116375","-0.16527249716590597","0.23041751669303082","0.8104883662466271"
"0.1282310190970388","-0.17754530464125856","0.11180437201732245","0.11634061804435472","-0.024197959087250608","-0.04920392080694656","-0.14546694348157702","0.22851529598214995","0.7939336894212492"
"0.158641106418109","-0.023089938256793292","0.06995248745527854","0.0010149356416276564","0.053220214911957664","-0.12105499726427396","-0.15601683247382342","0.2411189669499493","0.8001614011793676"
"0.17341561235764205","-0.03167668741282878","0.1378645597374097","-0.03423976068477569","-0.006840840420750752","-0.1896513659867965","-0.1851564886866086","0.2624635171352317","0.8010285509178398"
"0.17461043519202998","-0.046245862731642835","0.16383700948290605","-0.026618142940792806","-0.0416884188538486","-0.2707158641496837","-0.20002045867940232","0.2767476775654042","0.8069803513955353"
"0.1717142534701518","-0.07079680232427261","-0.0146729322553323","0.10835627053446557","-0.006454068409907117","-0.32681935280267954","-0.2357488931475679","0.31059086812708764","0.7963380591506496"
"0.14621071884463135","-0.08963061181455745","0.11816035200867757","0.056553063476256285","-0.11257412125663468","-0.41626193893690855","-0.27822298154386155","0.34009279424430683","0.7847103694756817"
"0.0021526540042603156","0.061291895365133166","-0.13938810972532578","-0.19806606155012774","0.12912111626905556","-0.07649148945806729","-0.30704888641115213","0.35513550894568957","0.7786403213063766"
"-0.3466223331042584","-0.03154625018311557","-0.5254285003699182","0.14553377190059685","0.11203523493350068","-0.02571433620073693","-0.3151279835576311","0.35356005007471464","0.7816359294938259"
"-0.41358690120016683","0.35612646132755543","0.1900378458645512","0.113320425149869","0.0039974720415730195","0.014749539267646602","-0.3363061993784976","0.36520677565421805","0.7854592715225439"
"-0.2926886111019595","0.3977337268055647","0.16998536525958044","-0.09479692785847403","-0.2610713836640509","0.45845623393512785","-0.28932193539072315","0.3385640156361756","0.7676827018838643"
"-0.13278740339756986","-0.050304892456277533","-0.0792641556869749","0.06318828928708581","-0.1062921818513907","0.6134261107757897","-0.19562793984248136","0.28464831205170066","0.7289368749330398"
"0.0739065509532809","-0.0955268167576951","-0.13513516210202703","-0.0031976968636859716","-0.03142819389381359","0.3985906496495059","-0.15189884606421047","0.24990652643027605","0.7404069010191944"
"0.2059213895346474","-0.21549148448528352","0.11940140900804333","-0.0008842597683667112","-0.08545452919009347","0.16678863223266138","-0.11307211705928824","0.2179772266451844","0.7300405200547314"
"0.1235743288424036","-0.14796258310240407","0.11625489752233349","0.21708628092163096","0.007765393376333419","-0.06690371448643202","-0.10636568204934763","0.22850362591643902","0.720659536520351"
"0.167810556123897","-0.0018843819862317149","0.11073410267841988","0.060207956806435946","0.027670072439739093","-0.1678615308382882","-0.1286028086612574","0.25032664879586936","0.7233004016329705"
"0.16683458697699596","-0.018827072725725414","0.05649395098190828","-0.021454073019074187","-0.035374593533363724","-0.23400139961648078","-0.14221177327207343","0.26785508749367914","0.7264536734092331"
"0.16167153991060776","-0.06355421987443426","0.056803378037335685","0.0851023183397654","-0.05033654163164134","-0.3408962731385751","-0.17119455381211132","0.2963300478283369","0.7121851186216455"
"0.17119337810910598","-0.055411841619625105","-0.0345981593093697","0.20928590455252272","-0.035760951441412024","-0.3454132629606428","-0.20558954506192642","0.3348412646743904","0.687668430561205"
"0.0893356463004324","0.1292474812452101","0.2164329113502525","0.0982746520196747","-0.04805193650977376","-0.3555610209170686","-0.2547700684681607","0.37505631111423904","0.6404876016088783"
"-0.16234430189600485","0.10375474063804088","0.09325482282442765","-0.18409345340782174","-0.12750252702849013","-0.04071754883302093","-0.28579223275391197","0.3829569456005355","0.650026248732072"
"-0.34183658907813225","0.11331203121516278","-0.4228688358729518","-0.03936948932688189","0.1723037557666723","-0.06452456025823339","-0.3028132432469789","0.379747677530031","0.6801005782981752"
"-0.38411962337637845","0.29961840045519017","0.19743864448462223","0.11996484951773757","-0.02952580565204095","0.2606213612145027","-0.291322100218249","0.37512633150850455","0.6912552772067033"
"-0.2676665187406404","0.20477505885016384","0.38014795340366103","-0.1541276207603","-0.23802242207566052","0.47937051557702987","-0.23359185264729423","0.33757206005074697","0.6713502491190467"
"-0.019255932755309575","-0.06617622927172007","-0.20182272034641371","-0.1476641013475326","-0.008502220835637963","0.31750140085745665","-0.17146908623941892","0.2977888060422026","0.6811253916254604"
"0.17174167739659363","-0.006596040019533164","-0.26333306833440684","-0.40667400426721967","0.0002784148366622408","0.2967913119061413","-0.1391134787353172","0.26170496286402156","0.7222361724084823"
"0.1555635324507462","-0.22330224266455062","0.13317091297456282","-0.03439000378308006","-0.0837277205335432","0.14265058114240695","-0.11942558180554849","0.2291454795305399","0.7569615778445723"
"0.14081734664440146","-0.11010483527852363","0.14217041804767547","0.14054815398543566","-0.07426961268807364","-0.008233585589335315","-0.1040909847945137","0.23373181535493356","0.7261777621288102"
"0.1819376423097833","-0.07859429570051803","0.1089980963414765","0.024882431590831974","0.0153587963344059","-0.1743400080214454","-0.11730776022346188","0.24728076164531787","0.7186099098657803"
"0.16237721310277475","-0.0469334216882667","0.10501907873045008","0.02047203010917893","-0.012820484785399633","-0.2859870023426465","-0.1311912572615855","0.26896374373621706","0.7277938139141447"
"0.16799176912803232","-0.054994000324442134","0.0487663116625979","0.1965949620243233","-0.061470109387039534","-0.3600161341662311","-0.17464581861254883","0.3077550421593328","0.700872756124304"
"0.14872905980219966","-0.02563899123745985","0.1813913019563958","0.20108692404505588","-0.14687839682225198","-0.39277977951944754","-0.21249207466280098","0.3463012692025191","0.657318189714679"
"-0.06327760814169912","0.13358286103279648","-0.20197006656328392","0.04817931038504767","0.08009134530129743","-0.24869708568142673","-0.26692793310606605","0.3781138683305015","0.6335898195983043"
"-0.2653901536046179","0.23287433325109352","-0.37303902434957753","-0.43552681151301725","0.011420264647967155","-0.10194132389390845","-0.3008522973376392","0.37474121934004406","0.7109238099111406"
"-0.43405626328944086","0.2246501553776507","-0.403767408122325","0.20925830888140554","0.038171719329454866","0.16123211598578918","-0.3021465216378035","0.36822932267334774","0.7249558693155083"
"-0.3453676436592066","0.3087490065351146","0.5462138373716804","-0.1242568398688484","-0.23726047293224267","0.49944946348471403","-0.25273068472244775","0.3363817133482326","0.694960371543812"
"-0.10158148448563824","-0.03929068434727425","0.09542215172348192","-0.12558449826815024","-0.010555342494912835","0.41322445914154676","-0.1755086348126582","0.2892579880075162","0.6993749520305794"
"0.15237482884682166","-0.01114431989561756","-0.3756711635873042","-0.46870294056716494","-0.013703766047850886","0.3471093409925162","-0.14852601910014665","0.24987151623314327","0.7578681434802476"
"0.12975994780650907","-0.3469080988215908","0.17155929075796658","-0.06150428374849852","-0.11403176309621672","0.0510546902710827","-0.12875968433400428","0.21237559510394025","0.7907804176449869"
"0.14335719656388493","-0.1153886484821603","0.12777737168158254","0.07684814649006436","-0.027902936797119974","-0.11923582602086591","-0.12099433853302036","0.22508429666313792","0.7760388720909601"
"0.17046243188668866","-0.04180215371937938","0.1976395711439907","-0.00461918054478605","0.02128460733566113","-0.21137932456239977","-0.14931039746388236","0.2504316793872677","0.7835278925595832"
"0.17355613757548785","-0.02073499356034401","0.10193619402020691","-0.0061881477570787805","-0.06668159306634053","-0.26670316839679215","-0.1582130918922837","0.2667230911197194","0.7932242032715904"
"0.16558832187536093","-0.037090937846178645","0.0032296330943961085","0.21450761876501934","-0.06685427393199554","-0.2898542881492112","-0.18550945895028986","0.2983139589991942","0.767761533678271"
"0.16698586667579934","-0.004614057368043511","0.0471126852559956","0.2251074226596763","-0.11672343126589937","-0.3503324505065931","-0.22315962040960852","0.33967267187871353","0.707770538134878"
"0.19465266514593846","0.0068230768773010755","0.01592886772201303","0.027890359742598965","-0.02364264723870531","-0.3781459700274066","-0.2644571412602982","0.37544142328269964","0.6585400825279807"
"-0.06566151808729756","0.23811393044465792","-0.6185981923190659","0.08223236854358407","-0.05619733849402885","-0.0743536538641983","-0.30740185667483294","0.39783627938196525","0.656766367153833"
"-0.4094105777616373","-0.0126319675544992","-0.4306647902564475","-0.1249007388615814","0.16391817416112248","-0.04640709971163896","-0.33199211837795073","0.37737865419071315","0.7302375995407479"
"-0.4322817739314391","0.23271957721584055","0.1708359547842402","0.4506928354851616","-0.025075857013362495","0.09233564588467721","-0.3469345262071176","0.3918962159351042","0.7062727340411536"
"-0.2972234172390754","0.3796051626759326","0.45076027906104477","-0.2641331643902127","-0.36766558421143797","0.3940736598274383","-0.29532242987330215","0.36773917991348887","0.6821502049527457"
"-0.1264243354976642","-0.06907237793145397","-0.3066863438708049","-0.06994549292466011","-0.11138978726197432","0.5308518242340196","-0.20653079909840902","0.32137400884398265","0.6449021820956458"
