"AccX","AccY","AccZ","GyroX","GyroY","GyroZ","MagX","MagY","MagZ"
"-4.436375200453024e-05","0.00431483464698233","0.047315094398758056","-0.0031875336782531184","-0.0013916446667242963","-0.0014625309926543022","-0.24523659953936883","-0.4019685485801189","-0.8541289122611747"
"-0.000260935791850802","0.00010089396135699454","0.05013718097703746","0.001468391614009791","-0.001676565055270877","-0.0011280942230124445","-0.24141221540106633","-0.4031871006683747","-0.8560844144045485"
"-0.00038398808721801177","0.00010173582344582195","0.04919105755842803","-0.0009823226742640724","-0.0041802238250715764","-0.0008025258414871948","-0.24620696566401276","-0.39911713669360016","-0.8551927054271701"
"0.0004658930994514861","0.0009490700158505566","0.04735225458598499","-0.0008583932445104894","-0.002094764870015357","-0.0011304591265102063","-0.24309608602912483","-0.39881249867153623","-0.8555212297872569"
"-0.0007383786978755818","-0.0019002122237856327","0.05011922717871434","0.0013635685166152607","-0.004182914739852294","-0.001850966392161727","-0.24449455485581767","-0.40010416388508746","-0.8539098960211172"
"-0.0006317333752239903","0.0007301858727554438","0.050743017287894605","0.0034640872884999074","-0.0016784645245278538","-0.0025170808773647196","-0.24623550584414922","-0.3988003131506537","-0.8551927054271701"
"-1.6471898387970463e-05","0.00031206103530452334","0.05014928935265074","0.005752790347592213","-0.0030771070540820664","7.80065608462287e-05","-0.24617842548387617","-0.3998970100300839","-0.8551927054271701"
"-0.0006333740724955492","0.0007327114590219261","0.04886329635648258","0.00202103573423089","-0.004182914739852294","0.0005907964692776446","-0.2422398806250272","-0.4005428426368595","-0.8554899417529629"
"0.00022306990326018434","0.0006329508014958841","0.047027416095394466","0.0032039270917204746","-0.0025175550687975327","-0.00043911900399775153","-0.24372396999212986","-0.3997995258630235","-0.8538942520039701"
"-2.6316082017353077e-05","0.0010548640183465278","0.04576021195793656","-0.0009732929692450679","-0.005436564449457247","-0.0015072670838203015","-0.24754835413043222","-0.4022975576439479","-0.8533623554209725"
"-0.0007613484596774357","0.0011559015000406246","0.04697564235139289","-0.0035457119773402955","-0.0030598535416645235","-0.00044266635924439447","-0.24769105503111527","-0.4006890688874502","-0.8548172490156425"
"-0.00026421718639394896","0.00010566451319368298","0.04669130428957779","-0.0028275232651041146","-0.0032034217596710506","-0.001664336091130001","-0.24500827809827624","-0.3982032226274083","-0.8543479285012329"
"-0.0003757846008602172","-0.001162320102928454","0.050135510856263214","-0.003966836480980243","-0.005570318742969391","-0.003600600829922724","-0.2458644835023739","-0.39817885158564315","-0.8551927054271701"
"0.00023619548143268476","-0.0010542811348622767","0.049539695270051545","0.003938343099932838","-0.0027985182297254104","-0.002880290639562683","-0.24429477359486168","-0.39709434022709544","-0.8549424011528183"
"-0.0002658578836655079","0.0009421948087918001","0.050447405910853345","0.0024027697855415566","-0.0009813593072172206","-0.0014672607996498255","-0.24186885828325186","-0.3979107701262269","-0.8544574366212616"
"0.0002181478114455076","0.0015800877445311021","0.04702407585384598","0.002710303217348231","-0.003073149826463364","0.0012977055398170332","-0.24740565322974944","-0.3984834896077071","-0.8552239934614643"
"-0.000144446285569857","0.0007370610798142006","0.04700862723668421","-0.0012897252407806155","-0.0016743490078044028","-0.003387956590415614","-0.2437810503524031","-0.3997751548212583","-0.8547077408956133"
"-0.000260935791850802","-0.00010788783667219003","0.048885007926547756","-0.001671590157381413","-0.005573484525064353","-0.0015110115143584244","-0.24552200134073465","-0.3978498425218141","-0.8557871780787557"
"-0.0006300926779524313","0.00010089396135699454","0.0491785316526212","-0.0028272615345238537","-0.004873530103868255","-0.0020259692509961235","-0.24164053684215908","-0.397216195435921","-0.8565224468846642"
"-1.4831201116411554e-05","-0.0005267142258637995","0.047958925957229254","-0.0011924923302136542","-0.004321892573821126","-0.0021972276792923953","-0.2405274698168321","-0.3958148605344268","-0.8564911588503703"
"-0.0007416600924186996","-0.0013740484182685343","0.05011755705794009","-0.0007093376790518504","-0.0025082160116173947","-0.0032263548514018707","-0.24512243881882254","-0.3966069193917931","-0.8553804336329341"
"-0.00025765439730768416","-0.0005300816742191092","0.049826120982834454","-0.0023595489875974486","-0.0022285191635275014","-0.0018308647124307496","-0.24246820206611996","-0.3953518107408896","-0.8561313464559897"
"-6.627714758587852e-06","-0.0013712422113057766","0.049841569599996215","-0.000716797000589289","-0.004322842308449614","-0.002894677135840736","-0.24669214872633474","-0.39382862063056984","-0.8591193537310645"
"-8.268412030146763e-06","-0.0011620394822321788","0.050781012535508666","-0.001447810511258259","-0.0019518298084278227","-0.00043872485341479113","-0.24343856819076404","-0.3949618740726477","-0.8584153729594501"
"-1.4831201116411554e-05","-0.0003166696347013742","0.048271656072206515","0.0012976124103894892","-0.0032086453001277378","0.0026825536130482253","-0.24218280026475414","-0.3946816070923489","-0.8573672238106016"
"-1.3190503844852642e-05","-0.00021494463230140222","0.05077767229396017","0.0009866764810394224","-0.0027910786418022496","-9.541969565632602e-05","-0.24652090764551504","-0.39203734906083365","-0.8560374823531075"
"-0.0004988368962273979","-0.001579322457594272","0.046997771451651627","0.0033232762363194905","-0.0008426980514578851","-8.280687700159448e-05","-0.24654944782565183","-0.3938895482349826","-0.8570699874848089"
"0.00022142920598862542","0.0010521700596622804","0.04827917161569061","0.00037776028606220847","-0.0037659812379457983","0.0016380545682032962","-0.24415207269417877","-0.3940601455273384","-0.8570074114162209"
"-0.00026749858093706676","0.0006309864566219538","0.04731592945914517","-0.0003185739227221791","0.0012533662736164569","0.002202084052419558","-0.24261090296680288","-0.3940601455273384","-0.8571638515876908"
"0.00023127338961800804","-0.0007340929204116053","0.046405713637181996","0.0018115204047319607","-0.002794561002106708","-0.00044562248861659733","-0.24292484494830546","-0.39285377895996515","-0.855536873804404"
"-0.0005086810798567805","0.0006243918702594727","0.05137599306133322","-0.0007327625659852098","-0.00222946889815599","-0.002000743613686661","-0.2426679833270761","-0.3949618740726477","-0.858399728942303"
"-9.909109301705674e-06","-0.0013663313491209502","0.04639569291253654","-0.0014728057816731843","-0.001672766116756922","0.0016486966339432257","-0.24152637612161262","-0.3940235889646907","-0.8587908293709777"
"0.0002279919950748902","0.00031206103530452334","0.050788110548799205","-0.0022581283877463115","-0.0034843849205989283","-0.0011436631710393782","-0.24577886296196402","-0.39310967489849885","-0.8570543434676618"
"-1.1549806573264586e-05","-0.0007402665757296729","0.05015262959419922","-5.2655653177004254e-05","-0.0022326346802509526","-0.0004401043804551524","-0.24323878692980774","-0.39241510020819304","-0.8598702665541199"
"-0.0002592950945792431","-0.0007366185066780879","0.047007374646103536","0.0011120454289844407","-0.00334841457962031","-0.00045015522032064144","-0.242810684227759","-0.3927441092720221","-0.8594478780911512"
"-8.268412030146763e-06","-0.0011602154477063859","0.04952758689443827","-0.0009899128610916413","-0.0044603955404757135","-0.00011295939659806137","-0.2426965235072127","-0.3920129780190686","-0.8573828678277486"
"-0.0005086810798567805","0.00031178041460824764","0.0491839595451375","0.0015729529808240598","-0.004880178246267675","-0.0006338293919801646","-0.24512243881882254","-0.3925856975005488","-0.858681321250949"
"-1.3190503844852642e-05","-0.0005279770189970406","0.04889878642293527","0.002009650453989537","-0.0039068585411716076","0.0016327335353333312","-0.24338148783049066","-0.3937555075052745","-0.8567727511590163"
"-0.0007515042760480822","-0.00021382214951629912","0.048233660824592454","0.0015431156946743062","-0.0011159050462531057","0.0020057970621053032","-0.24506535845854946","-0.3927684803137872","-0.8578521883421583"
"0.00023455478416112586","-0.0010524571003364843","0.04828668715917472","0.0009564465990192771","-0.0025129646847598377","0.0023384601541238392","-0.24398083161335907","-0.39243947124995815","-0.8588534054395656"
"-8.268412030146763e-06","-0.0011611976201433513","0.05015429971497347","-0.0014751613568955333","-0.0022296271872607387","0.001471525946902548","-0.24463725575650058","-0.39278066583466975","-0.8576331721021005"
"-1.8112595659529377e-05","0.0003138850698303162","0.04889586371158034","-0.0004305946110738866","-0.0039030596026576533","0.001287063474077104","-0.24118389395997358","-0.3921470187487767","-0.858368440908009"
"0.00022471060053177238","0.0003172525181856251","0.04702866868597515","-5.684334246118022e-05","-0.005299327795640644","-0.0004645417165986939","-0.24463725575650058","-0.39263443958407906","-0.8572264276562788"
"-1.9753292931088286e-05","0.0005239296609927415","0.049208593826557595","-0.0010227600489143966","-0.003623046176358264","0.0019856953823743253","-0.2422969609853006","-0.39263443958407906","-0.8575705960335126"
"-0.00024616951640674264","-0.0021112389873850237","0.05171168733695633","0.0006311154877548554","-0.003068084575111425","0.0005927672221924463","-0.2423540413455738","-0.3919886069773035","-0.8581963567193922"
"-0.0005004775934989568","-0.0006384012629815629","0.05138058589346239","0.0009041004829670773","-0.0005604685776920225","-0.002163527804449285","-0.24392375125308602","-0.3932193445864419","-0.8588534054395656"
"-8.268412030146763e-06","-0.001369839107824398","0.0489017091342902","-0.0012416976793027223","-0.0011154301789388615","0.0016542147421046702","-0.24395229143322247","-0.39352398260850585","-0.8592601498853876"
"-0.0001362427992120333","-0.0003201773934048215","0.05045826169588594","0.0006326858712364215","0.0002756144735874427","0.0006264670970355564","-0.24292484494830546","-0.390843168014343","-0.859854622536973"
"-0.00049555550168428","-0.0020015162951411915","0.04793930203813188","0.0015542392443353983","-0.0036258953802437302","0.0012831219682475003","-0.2436383494517202","-0.39241510020819304","-0.8596668943312091"
"-0.00026749858093706676","0.000943597912273179","0.04950754544514734","-0.0010261625464577898","-0.0016710249366046934","0.0023518612739444906","-0.24289630476816884","-0.3927075527093744","-0.8604647392057057"
"-0.00025437300276456637","-0.0011602154477063859","0.0488887656982898","0.000610831367784628","-2.024616140725308e-06","0.002360335511478139","-0.2461213451236031","-0.3937311364635093","-0.8568509712447511"
"-0.00013460210194047437","-0.0007397053343371211","0.049520071350954174","0.0010954255371378675","-0.002790762063592753","0.0005984824056453715","-0.24343856819076404","-0.3946572360505838","-0.8580086285136281"
"-1.6471898387970463e-05","-0.00031582777261254715","0.04764494325167132","0.00028131256723603037","0.0002752978953779467","0.000973516685332145","-0.2422398806250272","-0.3934386839623279","-0.8571638515876908"
"-1.9753292931088286e-05","0.0005235087299483278","0.04952174147172842","-0.0007775184952098408","-0.0016730826949664186","0.0013071651538080818","-0.24198301900379815","-0.395229955532064","-0.8548798250842303"
"-0.00024616951640674264","-0.0026326322410654326","0.04826706324007734","-0.0005610673053339946","-0.0019510383629040824","0.003034530083631818","-0.2445801753962275","-0.39326808666997215","-0.857023055433368"
"0.00047409658580928066","0.00020851199837875847","0.050174341164264405","0.00037776028606220847","-0.003906225384752615","0.0016347042882481329","-0.24632112638455908","-0.3942794849032245","-0.8595260981768862"
"0.0002279919950748902","0.00020767013628993105","0.05016181525845756","-0.0007612911992336589","-0.004461503564208951","-0.00010901789076845804","-0.246264046024286","-0.3933777563579151","-0.8582902208222741"
"-1.4831201116411554e-05","-0.00031624870365696086","0.04795809089684214","-0.0007786962828210151","-0.005017573189189026","0.0012754360318797736","-0.24840455953452983","-0.3951568424067687","-0.8560844144045485"
"-1.8112595659529377e-05","0.0005225265575113623","0.05014845429226361","0.0003891455663035619","-0.0025109069263981126","0.0009524296291437661","-0.24172615738256895","-0.39580267501354427","-0.8569291913304862"
"-0.0005004775934989568","-0.0007418099895591898","0.05012757778258556","0.001765324957315894","-0.0011168547808815942","0.002700093313989961","-0.2461498853037397","-0.39480346230117447","-0.8576644601363946"
"-1.4831201116411554e-05","-0.00010929094015356881","0.050463689588402236","-0.0007739851323763172","-0.00668942271353846","0.0005663591331341029","-0.24515097899895916","-0.3947425346967617","-0.8601049268113248"
"-0.000260935791850802","-0.00010704597458336223","0.04825829510601256","0.0010621857534447205","-0.00473977581035611","0.0026699407943934937","-0.24834747917425679","-0.39440134011205","-0.8604021631371176"
"-1.6471898387970463e-05","-0.0001066250435389489","0.04858396865699021","-0.0003026083573262582","-0.0019530961212658076","0.000781171200847494","-0.24654944782565183","-0.3949618740726477","-0.8578834763764523"
"-0.00013460210194047437","-0.0005292398121302821","0.049519236290567044","-0.0003198825756234841","-0.0019518298084278227","0.001997519899863136","-0.249432006019447","-0.39397484688116047","-0.8587908293709777"
"-2.13939902026472e-05","0.0007356579763328217","0.04826789830046446","-0.0012611966075321667","-0.004458654360323485","0.0023266356366350286","-0.2472629523290664","-0.39621698272355127","-0.8574923759477776"
"-0.0001378834964835922","-0.0003179324278346157","0.04889168840964473","0.0013038939443157532","-0.001954204144999044","0.0023457519399086055","-0.24769105503111527","-0.3959001591806048","-0.8574923759477776"
"-0.0007482228815049352","-0.0007399859550333968","0.0482353309453667","-0.0008877070694997212","-0.0038994189532484467","0.000936466530533872","-0.24968886764067622","-0.3958757881388396","-0.8579616964621872"
"-0.0005086810798567805","0.0005214040747262592","0.04980983730528556","-0.0005698352797727382","-0.0032029468923568064","0.0028593301495059426","-0.248119157733164","-0.3957295618882489","-0.8579304084278934"
"-0.0007433007896902585","-0.0010600338591359307","0.05136931257823624","0.00013840767041352494","-0.004735976871842156","0.002146311744930668","-0.24806207737289096","-0.39559552115854074","-0.8571012755191028"
"0.00023127338961800804","-0.0003180727381827534","0.04985075526425455","0.0008547642685878789","-0.0022343758604031812","0.001126250036229281","-0.24737711304961268","-0.3947912767802919","-0.8581181366336571"
"-0.00026421718639394896","0.0003130432077414884","0.04888333780577351","0.0029606485173678757","-0.0022356421732411666","0.0002587246031335492","-0.24886120241671536","-0.39512028584412096","-0.8571169195362498"
"-2.303468747420611e-05","0.0009465444295840746","0.04795391559490652","0.0008096157434928567","-0.003067767996901929","0.004078437902602307","-0.24703463088797378","-0.3983250778362339","-0.8554117216672279"
"-0.00025273230549300744","-0.0013715228320020528","0.049515896049018564","0.0001784524491934578","-0.003067926286006677","-0.0002751523614862455","-0.24649236746537875","-0.39761831762504546","-0.8580868485993632"
"-0.0001378834964835922","-0.00010915062980543077","0.050144278990328","-0.0007510837066034798","0.0002771973646349236","-0.00024263493839201682","-0.2496603274605396","-0.39527869761559425","-0.8571482075705439"
"-0.0005004775934989568","-0.0005331685018781432","0.05138016836326883","0.0036383998549537324","-0.0039068585411716076","0.0014597014294137375","-0.24686338980715442","-0.3963753944950245","-0.8574767319306307"
"-0.0002658578836655079","0.0010452948526035236","0.052013561666901","-0.00032747276245105307","-0.0027864882577645547","0.001995352071656854","-0.2508590150262763","-0.39772798731298853","-0.8586031011652139"
"0.00022963269234644912","-0.0003149859105237198","0.04765746915747815","0.0008402382213833936","-0.0050208972603887365","0.001970914735513312","-0.2512300373680518","-0.3983616343988815","-0.8586187451823608"
"0.000467533796723045","0.0013638694980506092","0.05173673914857","0.0010964724594589115","-0.003907808275800096","-0.00010054365323481023","-0.2487470416961689","-0.398873426275949","-0.8575236639820715"
"0.0002181478114455076","0.0013713620706411727","0.04577190280335627","0.001733524691814183","-0.001537587221302045","0.004788106027222418","-0.2518864615111933","-0.39639976553678963","-0.8559592622673727"
"-0.0007465821842333764","-0.0004287776028635509","0.05136722492726844","0.0019923762356923104","-0.003623837621882004","0.002679794558967503","-0.2538842741207542","-0.39792295564710944","-0.857038699450515"
"0.00034120010681271736","0.0013691591981754077","0.047657886687671715","-0.0001381106876322204","-0.003903376180867149","0.005115448086370989","-0.2529424481762469","-0.39953144440360716","-0.8559749062845196"
"-0.0007400193951471408","-0.00148152614494216","0.05168413034418129","0.0008559420561990535","-0.0039017932898196685","0.000935284078784991","-0.25468339916457877","-0.3988368697133013","-0.8576644601363946"
"-0.00038398808721801177","0.0003099563800824548","0.05075679578428212","0.001986487297636438","-0.003346673399468081","0.003031771029551096","-0.2537701134002081","-0.39934866159036875","-0.8564129387646354"
"0.0002263512978033313","0.00010594513388995867","0.04765621656689747","0.0023646879861135817","0.0005499294921159","0.0016729368947952872","-0.2552542027673104","-0.3999944941971444","-0.855427365684375"
"0.00021322571963083086","0.0026280376727033958","0.05015346465458634","1.6310354721768948e-05","-0.001395760183447747","0.0023591530597292572","-0.2560533278111348","-0.3996776706541979","-0.8554430097015221"
"-0.00038398808721801177","-0.00021269966673119603","0.04825244968330271","0.0014242900112358128","-0.002789495750754768","0.00199101641524429","-0.2504879926845006","-0.3997385982586107","-0.8546764528613195"
"-0.0003856287844895707","0.0003109385525194202","0.05013008296374692","0.0006055967561794081","-0.0019516715193230747","0.0021740993610293727","-0.25217186331255914","-0.3990562090891874","-0.8559592622673727"
"-0.0002658578836655079","0.0007331323900663397","0.04950838050553446","0.000609260984303062","-0.000837791089210694","0.0020109210196837877","-0.25131565790846166","-0.3998726389883188","-0.8553178575643461"
"0.00022306990326018434","0.0011552280103695625","0.04984532737173826","-0.0017112423402909545","-0.002508690878931639","0.001301647045646637","-0.2544265375433496","-0.40048191503244673","-0.8551927054271701"
"0.0004642524021799272","0.001995701026750354","0.05142150385243137","-0.0010039154471356048","-0.003904325915495638","0.00024887083855954027","-0.2553112831275835","-0.3990562090891874","-0.8556307379072858"
"-0.00025601370003612524","-0.0009484871323663061","0.04794807017219667","-0.001261589203402558","-0.0026464024000624866","0.0028593301495059426","-0.25616748853168114","-0.4011764897227525","-0.8577113921878355"
"-0.0005152438689430453","0.0017828642596599848","0.05074552246905597","-0.0012515125760625095","-0.008079042764122031","0.0009078906132692465","-0.2573090957371446","-0.4016639105580549","-0.8571169195362498"
"-0.00013952419375518025","-0.0001066250435389489","0.048264558058915975","0.0006250956844088524","-0.002511223504607609","0.0009502618009374843","-0.25488318042553476","-0.4013836435777561","-0.8564442267989294"
"-0.0005136031716714572","0.0014671659763497258","0.0507463575294431","-0.0012283494197094112","-0.0030636524801784786","-9.285771686708321e-05","-0.2572234751967348","-0.4007621820127456","-0.8558810421816376"
"0.0007054349010996409","0.002419199750534956","0.05017935152658713","-0.000580042772402917","-0.001536004330254564","0.0034004988999105043","-0.2533420106981592","-0.40184669337129325","-0.85680403919331"
"-0.0005004775934989568","-0.000847042750662609","0.05012799531277912","0.00131619528158802","-0.0039035344699718975","0.0012845014952878617","-0.2565385108734568","-0.40011634940596996","-0.8566945310732812"
"-2.303468747420611e-05","0.0013639957773639332","0.050458679226079495","-0.0003188356533024401","-0.004181490137909562","0.0012880488505345048","-0.2558250063700421","-0.40116430420187","-0.858305864839421"
"0.00022471060053177238","0.0009442994640138684","0.050159310077296196","-0.0003345394881181001","-0.005575542283426079","0.002317964323809901","-0.2560533278111348","-0.4013836435777561","-0.8562564985931655"
"0.00022471060053177238","0.0009442994640138684","0.050159310077296196","-0.0010058784264875623","-0.00278854601612628","0.0007770326197264103","-0.25944960924738847","-0.4003478743027386","-0.8588221174052717"
"-0.0007597077624058768","0.001467222100488981","0.05010753633329463","0.0003963431572607394","-0.0027863299686598066","0.0002573450760931881","-0.2552542027673104","-0.40217570243512235","-0.8562408545760184"
"-0.0004939148044127211","-0.0015871798370899939","0.05263693424588771","0.0020076874746375794","-0.0011174879373005867","0.0020028409327331005","-0.25539690366799334","-0.4028824626463107","-0.8584935930451849"
"-0.0002707799754801846","0.0017845479838376392","0.050131335554327604","0.00018290186905789476","-0.0027888625943357764","-0.001133021105299449","-0.2548261000652617","-0.40326021379367005","-0.8564285827817824"
"0.00046261170490836826","0.0017896131874054176","0.04828919234033608","0.0004893883785435245","-0.0022342175712984336","0.0020012643304012593","-0.2565385108734568","-0.40211477483070956","-0.8577113921878355"
"-0.00039055087630427657","0.001363210039414361","0.050126742722198435","-0.0012199740411410595","-0.004736768317365896","-0.000803511217944596","-0.2515154391694176","-0.4005550281577421","-0.8584153729594501"
"-2.303468747420611e-05","0.0013635608152847058","0.050771826871250314","-0.0007485972660910003","-0.003624629067405745","-0.0011416924181245766","-0.25345617141870547","-0.40087185170068856","-0.8580399165479222"
"-0.00026421718639394896","0.000521825005770673","0.05013592838645678","0.0001760968739711088","-0.0027888625943357764","-0.0004410897569125532","-0.25408405538171036","-0.4021635169142398","-0.8566163109875464"
"0.00022306990326018434","0.0013635046911454507","0.05141106559759235","0.00016772149540275684","-0.002790603774488005","-9.088696395228188e-05","-0.25656705105359345","-0.4013349014942258","-0.8579147644107463"
"0.0002181478114455076","0.0017879294632277627","0.048903379255064446","0.0040614873379456375","-0.00307346640467286","0.004255214439060025","-0.25211478295228607","-0.4017126526415852","-0.8563660067131943"
"-0.0005152438689430453","0.0013645570187564848","0.048867054128224625","0.0014164380938279826","-0.0033457236648395928","0.002164836822329805","-0.25805114042069593","-0.4021391458724746","-0.8567258191075752"
"-0.00098776468315309","-0.0010618578936617228","0.0519834994929646","0.003191887485028469","-0.006969911007152094","-0.0001330610763290392","-0.25996333248984704","-0.4030774309804317","-0.8563503626960473"
"-2.13939902026472e-05","0.0009444397743620062","0.049520071350954174","0.00204197418065177","-0.0027929781110592267","-0.0007877451946261816","-0.25950668960766154","-0.40217570243512235","-0.8551144853414353"
"-0.0002724206727517435","0.0019958834302029336","0.04950378767340528","0.000132126136487261","-0.005016623454560537","0.002152026928383593","-0.2563958099727739","-0.4026387522286596","-0.8562721426103125"
"-2.7956779288911987e-05","0.0022058578661912904","0.05045575651472457","0.0008903596275033749","-0.0022340592821936856","-0.001822587550188582","-0.2579655198802861","-0.4023219286857131","-0.8556933139758739"
"-0.0002691392782086257","0.001154470334489618","0.0491935627395894","-0.0007984569416307206","-0.004875904440439477","0.002324664883720227","-0.2587361047439739","-0.40201729066364905","-0.855302213547199"
"-0.0005004775934989568","-0.0005331685018781432","0.05138016836326883","-0.00025798329339175787","0.0005561027672010754","-0.0021536740398752766","-0.2549117206056714","-0.40168828159982","-0.8568509712447511"
"-0.00014116489102673917","0.000730045562407306","0.052021077210385104","-0.0007389132346213434","-0.004181648427014309","-0.0018434775310854803","-0.25662413141386664","-0.40131053045246073","-0.858337152873715"
"-1.4831201116411554e-05","0.00030953544903804107","0.05202901028406276","-0.0007258267056082934","-0.0027893374616500205","-0.0025283141689790892","-0.256253109072091","-0.40207821826806184","-0.8540037601239989"
"-0.0001460869828414159","0.0010500794354750258","0.048887095577515555","0.0008785817513916299","-0.0030693508879494095","-0.0007901100981239437","-0.2573090957371446","-0.4014933132656991","-0.8573202917591608"
"-0.00026257648912236093","0.00031262227669707506","0.04919648545094432","0.00016405726727910285","-0.0016738741404901587","0.0006110952243001026","-0.255710845649496","-0.40135927253599096","-0.8568666152618981"
"-0.0001460869828414159","0.0013640238394335609","0.05013885109781171","-0.002046519213605294","-0.0027855385231360663","0.0002565567749272673","-0.2549688009659446","-0.4004331729489165","-0.8568509712447511"
"-0.0005086810798567805","0.0005209831436818455","0.05012340248064995","0.001336871997428639","-0.0011173296481958388","-7.866829588051077e-05","-0.2557964661899055","-0.40195636305923627","-0.8581024926165104"
"-1.8112595659529377e-05","0.0006264965254815411","0.05108789722777606","-0.0002821933720659003","-0.0005599937103777778","-0.0007692201172270451","-0.2574517966378275","-0.40067688336656765","-0.8585561691137729"
"-0.0005086810798567805","0.0006253740426964382","0.050749280240798014","-0.0010049623694566487","-0.0005557199045495798","0.0009697722547940216","-0.25522566258717383","-0.40062814128303736","-0.8554117216672279"
"-0.0005136031716714572","0.0011532215723911907","0.049494602009146946","-0.0007737234017960562","-0.004875587862229981","0.0005858695869906403","-0.2570236939357786","-0.40099370690951414","-0.8585405250966258"
"-0.0005037589880421037","-0.00011139559537563735","0.05075220295215294","-0.0009761720056279388","-0.004458337782113989","-0.0013267461168244609","-0.25770865825905687","-0.3996411140915502","-0.8565224468846642"
