"AccX","AccY","AccZ","GyroX","GyroY","GyroZ","MagX","MagY","MagZ"
"0.00018205247147112412","0.000395265071750294","0.047690454042769476","-9.767331298189608e-05","-0.002839989975169412","0.0010113551412963386","-0.24449455485581767","-0.405636390365769","-0.8573359357763077"
"0.00018205247147112412","0.0006040468697794782","0.048943044623452746","0.00013683728693195896","-0.00033221568864526236","0.0010340187998165587","-0.2481476979133008","-0.4029433902507235","-0.8574454438963367"
"-0.0005513392089174288","7.718151252169069e-05","0.047654128915929655","0.001515110522586379","-0.0039532372488628","0.0020446208945268975","-0.24540784062018836","-0.40373544910808984","-0.8579773404793344"
"-0.00018710441463047612","0.0005010590742462647","0.046418239542988834","-0.0017171312783468265","-0.0039510212013963274","0.00030602267308879133","-0.24375251017226632","-0.4046981052578119","-0.8575236639820715"
"-0.0005464171171027229","-0.0003464154285066076","0.04953510243792237","0.000600362144574188","-0.0011654495360392612","0.001198379592911025","-0.24577886296196402","-0.40497837223811084","-0.858399728942303"
"-0.0005480578143742818","7.367375381824337e-05","0.050160145137683326","-0.0003302209335437936","-0.0033932103962640223","0.0008326078519238198","-0.24472287629691042","-0.40492963015458056","-0.8600110627084429"
"0.0001804117741995652","0.0007109633550605528","0.047689201452188794","0.00014534353079044142","-0.002004698369413688","0.0003239565246134871","-0.2445801753962275","-0.40499055775899334","-0.858165068685098"
"-0.0005595426952752234","0.001758281886666226","0.04952758689443827","0.00045968195768390113","-0.005623029014850509","0.0020351612805358495","-0.24617842548387617","-0.40481996046663754","-0.8581963567193922"
"-0.00031015670999768593","0.0009180614289120822","0.048916740221258394","-0.0013033352309541875","-0.004366846679569586","0.0036084133324220885","-0.24486557719759333","-0.40564857588665154","-0.8569291913304862"
"-0.00033476716907112784","0.002385651546295186","0.04673013459757897","0.0032489447515253664","-0.0028585098004249403","0.0020816710493251705","-0.24575032278182743","-0.405441422031648","-0.8567414631247221"
"-0.00018546371735891722","-0.0020328055027759415","0.0461255508773025","0.00014324968614835344","-0.00034820288822482","0.0006989908043002608","-0.24900390331739827","-0.40475903286222475","-0.8576488161192475"
"-0.00044633458353739614","0.0011167689439449662","0.05080105398479959","-0.0009213394490632596","-0.003966533533661641","0.0006777066728204019","-0.24258236278666656","-0.4060872546384236","-0.8566475990218402"
"-8.045909197891373e-05","0.0009127296356828424","0.04706123604107291","0.0005792928328631776","-0.0010445166600117125","0.0020929043409395405","-0.24506535845854946","-0.4047834039039899","-0.8577426802221293"
"0.00016728619602706478","0.0005961894902837561","0.04832802264833726","0.000245062881869882","-0.004389640310653313","0.0006717944140759967","-0.24403791197363214","-0.40502711432164107","-0.8548328930327894"
"-0.00045289737262366094","0.0019612548362825015","0.04891841034203264","0.0019837391265436974","-0.0025777049286018106","0.001039931058560964","-0.24429477359486168","-0.4057095034910643","-0.858337152873715"
"-0.0005464171171027229","-0.0009734623743348504","0.04640446104660132","0.000851100040464225","-0.00047024378798560533","0.00033243076214713494","-0.24295338512844192","-0.40640407818137014","-0.8583215088565679"
"0.0001705675905701826","0.0026017014203579135","0.050188954721039035","-0.002203950157632285","-0.0006063724180689714","0.001559224451611226","-0.24366688963185648","-0.4050392998425236","-0.8564911588503703"
"-0.0005496985116458407","-0.00013412587177397614","0.04828125926665842","0.002943766894941042","-0.0021451008053252527","-2.6837494221224794e-05","-0.24258236278666656","-0.40578261661635967","-0.8581024926165104"
"-0.00031015670999768593","0.0009198854634378749","0.04766331458018801","0.001043472016956059","-0.003396059600149488","0.0023995534944826935","-0.2440949923339054","-0.40486870255016777","-0.856913547313339"
"-6.73335138064133e-05","0.0013407182906078569","0.04830130071594935","0.0007863217218496278","-0.005346497948855578","0.003774941953722837","-0.2431531663893982","-0.40524645369752704","-0.8548328930327894"
"-0.00030359392091145024","-0.0003429076698031603","0.04766790741231718","-0.0012631595868841242","-0.0021392441084495733","0.0013631345365884516","-0.24572178260169097","-0.4068549424540248","-0.8586031011652139"
"-0.00032000089362706853","0.00027796562070701516","0.04893093624783947","0.0015516219385327884","-0.003275601591436184","-0.0010579354192455021","-0.24572178260169097","-0.4073058067266795","-0.8571325635533967"
"0.0006480104965949332","0.002176252382734195","0.04834764656743463","0.0005999695487037966","-0.0010484738876304152","0.0003574593241651171","-0.24543638080032515","-0.4065015623484306","-0.858165068685098"
"0.00040518730040366066","0.0015466658196046559","0.046457487381183576","-0.0019361997740252827","-0.001183811072190041","-0.0010372425136400834","-0.24629258620442263","-0.40553890619870847","-0.8586031011652139"
"-0.000567746181633047","0.000279789655232808","0.04703868941062062","-0.0017005113865002537","-0.002573114544564115","-0.0012264347934610516","-0.2431531663893982","-0.4033820690024956","-0.8576957481706884"
"-0.000567746181633047","0.0005928220419284468","0.04891715775145196","-0.0008035606879458102","-0.0050812054092977624","0.0006660792306230717","-0.24749127377015914","-0.4052098971348794","-0.8586343891995079"
"-7.71776974357959e-05","0.00059394452471355","0.04925535720823644","-0.002661978673089033","-0.0028512285016065275","0.0006851955338966487","-0.24757689431056898","-0.404088829213684","-0.8594635221082984"
"-7.71776974357959e-05","0.0006979144926837283","0.05019521767394246","-0.00011272282134690348","-0.0021580805119145972","0.0013875718727319932","-0.24557908170100806","-0.4044300237983957","-0.8591975738167995"
"0.00016728619602706478","0.0005970313523725835","0.047701727357995626","0.0005367616135707652","-0.0003513686703197824","-0.0029451284104596606","-0.24689192998729073","-0.40467373421604685","-0.8559436182502256"
"-0.000569386878904606","0.0007007206996464862","0.04703701928984637","0.00011629143638147055","0.00021229883168820244","0.00210334933138799","-0.24226842080516398","-0.40606288359665854","-0.8576644601363946"
"-0.0005628240898183703","-0.00024904004689891","0.04892008046280689","-0.0012657768926867341","-0.0009006318637956894","0.001047814070220171","-0.2432102467496713","-0.4035161097322038","-0.8585248810794789"
"-0.00020022999280297656","0.0006983354237281424","0.04956224190050384","-0.00019529881941924868","-0.003412679956148039","-0.0010579354192455021","-0.24800499701261772","-0.40252908254071657","-0.8590567776624766"
"0.00041995357584772","-0.0007701526798830436","0.04771884609593163","-0.0009933153586350345","-0.002857876644005948","-0.0017538082734620012","-0.242810684227759","-0.4022853721230654","-0.8578991203935994"
"-0.00019858929553141764","0.0002800702759290837","0.0476837735596725","-0.00029959845565325676","-0.003970490761280344","-0.0017601146827893662","-0.24552200134073465","-0.40259001014512935","-0.8575549520163657"
"0.00041339078676148433","7.423499521079472e-05","0.04583620245316468","0.002227410296766688","-0.0036977586337993674","0.0006759329951970804","-0.24557908170100806","-0.40349173869043864","-0.8587908293709777"
"-0.00020022999280297656","0.0004913776602247505","0.04705664320894373","0.001332422577564202","-0.0017438379247888191","-0.001740013003058388","-0.24403791197363214","-0.40287027712542817","-0.8589629135595946"
"0.00016728619602706478","0.0007014222513871757","0.04832760511814369","0.0036479530211332594","-0.0048140134004829695","-0.0014179919767797818","-0.24472287629691042","-0.40384511879603285","-0.8579460524450403"
"0.0001705675905701826","-0.00013917704430693988","0.04739108489398617","0.0015250562846362973","-0.0025805541324872765","0.0010332304986506381","-0.24329586729008112","-0.40317491514749215","-0.8595573862111802"
"-8.045909197891373e-05","0.000911887773594015","0.04768794886160811","-0.0014033163126138891","-0.0022953171657312","0.0022556885317021654","-0.24623550584414922","-0.40447876588192594","-0.8573672238106016"
"-8.045909197891373e-05","0.0009131505667272562","0.04674808839590209","0.0025058916341643904","-0.002861200715205658","-0.00261798342660257","-0.24552200134073465","-0.4035161097322038","-0.8579773404793344"
"-0.0003167194990839507","-0.0005613708818538594","0.04705413802778237","0.0006021942586360151","-0.005085320926021213","0.00031469398591391903","-0.2431531663893982","-0.40508804192605385","-0.8585248810794789"
"0.0004068279976752196","0.0017536376141428617","0.04896308607274368","0.001422588762464116","-0.0025815038671157652","-0.00035240587574647417","-0.24038476891614918","-0.4038573043169154","-0.8580399165479222"
"0.00016400480148394696","0.001124037019978509","0.04707292688649262","0.000621038860414807","0.00048550582648342305","-0.0006758064290654419","-0.2458644835023739","-0.4032236572310224","-0.8571482075705439"
"-7.881839470735482e-05","0.0004926404533579913","0.04643619334131196","0.001770821299501375","-0.0017441545029983152","0.00017260270075671275","-0.24035622873601273","-0.4038816753586806","-0.8574141558620427"
"-7.553700016420785e-05","0.0004882908325657169","0.04956933991379438","-0.0012772930382182184","-0.0036890527330382217","0.0013733824517454206","-0.24780521575166142","-0.40416194233897934","-0.8572107836391317"
"-0.00019694859825985874","6.792102954458985e-05","0.048937616730936453","0.0004896501091237855","-0.003552765813850108","-1.7772030813136895e-05","-0.24195447882366136","-0.402931204729841","-0.8572577156905726"
"0.00016728619602706478","0.0009104846701126361","0.04926704805365616","-0.0017524649066820617","-0.0064758907112332734","0.0016979654568132691","-0.24515097899895916","-0.4032114717101399","-0.8579616964621872"
"-7.389630289264894e-05","0.00027782531035887753","0.04956975744398794","0.0032639942598903736","-0.0011880848780182396","0.00139506073380824","-0.24121243414011034","-0.4026021956660119","-0.8580712045822162"
"-6.73335138064133e-05","-0.0009841259607933303","0.048947637455581915","-5.6712477171049705e-05","-0.0017424133228460862","-0.0020917923983505013","-0.2401849876551932","-0.4008474806589235","-0.8592757939025344"
"-0.00032492298544174524","0.0004927807637061293","0.04579695461496994","-0.00031386277227748115","-0.0009041142241001479","-0.00034196088529802503","-0.2392717018908225","-0.4030652454595491","-0.8586343891995079"
"0.00017384898511330042","-0.0009779523054752634","0.045200721498564696","0.000614757326488543","0.001600019413014797","0.0003708604439857691","-0.24837601935439324","-0.4042350554642748","-0.8596825383483561"
"-0.000567746181633047","0.0004902551774396471","0.04703785435023349","-0.0017101954179699103","-0.0036874698419907407","-0.0007138419603211158","-0.24292484494830546","-0.4031627296266096","-0.8599641306570018"
"0.0001722082878417415","-0.000350063497558193","0.04770506759954411","0.0024221378484808706","-0.001744787659417308","0.0034745992095070494","-0.24278214404762255","-0.40259001014512935","-0.8578991203935994"
"0.00016728619602706478","0.0007014222513871757","0.04832760511814369","-0.0013641875908648696","-0.0011830196266663002","-0.0003435374876298663","-0.24677776926674458","-0.40317491514749215","-0.8586187451823608"
"0.00016892689329862367","0.00017694217004773254","0.04707668465823467","-0.0012445767156855933","-0.0006263168452672322","-0.0003405813582576638","-0.2411553537798373","-0.402626566707777","-0.857038699450515"
"-0.00019694859825985874","0.0002774043793144638","0.04956349449108452","0.00013880026628391645","-0.0006258419779529879","0.00035627687241623587","-0.24204009936407123","-0.4035161097322038","-0.8586969652680957"
"0.00041503148403304325","7.255127103314027e-05","0.04708921056404151","-0.00011507839656925249","-0.003414737714509764","0.0017218115670823706","-0.24246820206611996","-0.40287027712542817","-0.8591349977482114"
"-0.0005611833925467822","-0.00014563132032128278","0.05017308857368371","-0.0010264242770380507","-0.003966375244556893","0.00015230394573425456","-0.24480849683731995","-0.4031871006683747","-0.8589785575767416"
"0.0001722082878417415","-0.0002448307364547733","0.047704650069350554","0.0001228347008879955","-0.003414104558090772","0.0013733824517454206","-0.24004228675451028","-0.4026143811868944","-0.8580399165479222"
"0.0001722082878417415","6.778071919645181e-05","0.049896683585546275","0.0012724862746844332","-0.003972548519642069","0.0020655108754237964","-0.24412353251404198","-0.40252908254071657","-0.859792046468385"
"0.0001754896823848593","-0.0007709945419718715","0.0477063201901248","3.790312759330138e-05","-0.003415212581824008","-0.000715024412069997","-0.240670170717515","-0.40297994681337124","-0.8559905503016667"
"0.0004117500894898963","0.0009100637390682223","0.050219434425169","-0.0017378079941874455","-0.0027152581606279098","0.0010352012515654398","-0.2424111217058469","-0.4010424489930444","-0.8574923759477776"
"-0.0007974437996518192","-0.0022457966112492626","0.04640821881834337","0.002007164013477057","-0.003970965628594588","0.00014580046111540876","-0.2444374744955446","-0.402407227331891","-0.8585561691137729"
"0.0006480104965949332","0.00217538245857574","0.04897435938796983","-0.0013342194394249853","-0.0050876952625924345","-0.0031556048217604876","-0.24246820206611996","-0.4027118653539549","-0.8591349977482114"
"0.00017384898511330042","-0.0003504844286026063","0.04801821524471493","0.002239319038168563","-0.0034180617857094745","-0.0001917895131901317","-0.24475141647704687","-0.40259001014512935","-0.8577426802221293"
"0.00016564549875550585","0.0012249061292548403","0.050205655928781484","0.0001047752908499866","-0.004806415523455061","0.002061569369594193","-0.24555054152087127","-0.4038207477542678","-0.8585874571480667"
"-7.225560562109003e-05","-0.0001422638719659735","0.048944714744226986","0.00247435309924294","-0.0009091794754520872","-0.00016912585466991143","-0.24632112638455908","-0.40289464816719334","-0.8577896122735704"
"-0.000800725194194937","-0.0011982395520517555","0.04985075526425455","0.0003760590372905119","-0.003271169496503238","-1.8363256687576986e-05","-0.24455163521609088","-0.4006525123248026","-0.8596043182626211"
"0.0002870570968511276","0.0011218341475127441","0.048958910770808065","0.00047473146604890855","-0.005087062106173441","0.0006674587576634328","-0.24084141179833468","-0.4030652454595491","-0.8582589327879803"
"-0.0003167194990839507","-0.00024960128829146173","0.04987246683431973","0.0011231689786455334","-0.0023006989952926355","-0.0034853117844068212","-0.24289630476816884","-0.40209040378894445","-0.8591349977482114"
"0.00041010939221833737","0.0010187481347358341","0.04771258314302821","0.0005536432359975998","-0.002578654663230299","0.003644872261345921","-0.24238258152571027","-0.40182232232952814","-0.8574767319306307"
"-0.0005579019980036644","-0.0009860903056672608","0.04923615081933262","0.0019944700803343983","-6.977235297291183e-05","0.0010533321783816158","-0.24714879160852024","-0.40148112774481653","-0.8578052562907174"
"-7.71776974357959e-05","0.0004901148670915094","0.04831591427272399","-0.0005580574036609932","-0.002018944388841017","0.00017043487255043071","-0.24637820674483213","-0.402407227331891","-0.8581963567193922"
"0.0001722082878417415","6.820165024086553e-05","0.04958311841018189","0.0010797217023222074","-0.004252245367731962","-0.0007193600684825607","-0.24303900566885175","-0.40311398754307937","-0.8562564985931655"
"-0.00032000089362706853","-0.00013945766500321594","0.04642575508647293","0.0017295987331102677","-0.0036923768042379317","0.002936386588474691","-0.24623550584414922","-0.40183450785041075","-0.8563503626960473"
"-7.061490834953112e-05","-0.0003531503252172266","0.04925869744978492","0.0008242726559874726","-0.0036926933824474283","0.0010233767340766294","-0.24332440747021758","-0.4025412680615991","-0.8595573862111802"
"-7.061490834953112e-05","-0.0003527293941728129","0.04894554980461411","-0.0010223674530440052","-0.0022970583458834294","0.00016570506555490654","-0.24400937179349586","-0.40243159837365605","-0.8581337806508043"
"-0.00020187069007456462","0.0009097831183719465","0.048934694019581525","0.002218642322327944","-0.002858034933110696","0.0010344129503995192","-0.24737711304961268","-0.4032480282727875","-0.8563660067131943"
"0.00016236410421238803","0.0011266608234886876","0.045193205955080605","-0.0007987186722109817","-0.0032738604112839548","0.000682239404524446","-0.2436098092715834","-0.4022731866021828","-0.8581337806508043"
"-0.0003117974072692448","-0.0007782906800750417","0.05175427541669956","0.0016347213977656557","-0.00550383731897519","0.001007216560175255","-0.24734857286947623","-0.4041863133807445","-0.8563660067131943"
"0.00016400480148394696","0.0011231670958200542","0.04769963970702782","-0.0001587874034728393","-0.003690635624085703","0.004504908833365406","-0.24866142115575907","-0.4050514853634061","-0.8586656772338018"
"0.0001722082878417415","6.778071919645181e-05","0.049896683585546275","-0.000115994453600166","-0.003970649050385092","0.0015436555035842922","-0.24754835413043222","-0.40365015046191194","-0.8586343891995079"
"-0.000684235687913992","-0.0002494609779433237","0.048913817509903465","-0.0017113732055810847","-0.0028507536342922833","-0.000534306369782676","-0.242810684227759","-0.4030530599386666","-0.858305864839421"
"-0.0005595426952752234","-0.0005651592612535824","0.04923448069855839","0.0020147542003046263","-0.0025784963741255513","-0.0007063530992448691","-0.2458644835023739","-0.40245596941542117","-0.8567414631247221"
"0.0002854163995795687","0.0014388373170606853","0.04801821524471493","-0.00010696474858116152","-0.00174209674463659","0.0010448579408479685","-0.24674922908660782","-0.403345512439848","-0.8584153729594501"
"-0.00020515208461768244","0.0013319769559188663","0.04799358096329482","0.0003904542192048669","-0.0022991161042451545","-0.0012207196100081266","-0.2434671083709005","-0.4055754627613562","-0.8579147644107463"
"-0.000192026506445182","-0.0005648786405573067","0.04987998237780383","0.002225970778575252","-0.0031370986247815967","0.000680071576318164","-0.24789083629207126","-0.4052098971348794","-0.8588534054395656"
"-0.00018710441463047612","-0.0015097285249178775","0.04831674933311111","-0.0007743777282467086","-0.002854869151015734","-0.0007120682826977942","-0.24632112638455908","-0.4042837975478049","-0.858399728942303"
"0.00016728619602706478","0.0009083800148905677","0.0508332038097038","0.0010873118891497765","-0.0036949094299139015","-0.0014073499110398525","-0.24951762655985668","-0.40486870255016777","-0.8593070819368285"
"0.00016892689329862367","0.0005947863868023774","0.04926788311404327","0.0005904163825242701","-0.0028572434875869554","0.0010332304986506381","-0.24866142115575907","-0.4064528202649004","-0.8590724216796235"
"-0.0005644647870899292","0.000275860965484947","0.04985827080773866","0.0015305526268217784","-0.003412996534357535","0.00033243076214713494","-0.24712025142838348","-0.40365015046191194","-0.8584153729594501"
"0.00016400480148394696","0.0015388505332133756","0.05145782897927118","0.0005871447502710075","-0.002020685568993246","0.0010436754890990874","-0.25025967124340803","-0.40473466182045964","-0.8584935930451849"
"-0.000192026506445182","-0.0005652995716017201","0.050193130022974645","0.0008363122626794785","-0.00202036899078375","0.00034189037613818307","-0.24780521575166142","-0.40540486546900034","-0.8576018840678066"
"-8.374048652203155e-05","0.002169433299814693","0.051442797892302994","0.0014129047309944592","-0.0017424133228460862","0.00017851495950111775","-0.24700609070783733","-0.40432035411045264","-0.8571794956048379"
"0.00017384898511330042","-0.0005605290197650324","0.04770548512973767","0.0017426852621233175","-0.0031377317812005885","0.002070634833002281","-0.24669214872633474","-0.40584354422077246","-0.8588064733881247"
"-8.045909197891373e-05","0.0012240923292356405","0.050193130022974645","1.3823914209289496e-05","-0.0045271935426794115","0.00032513897636236833","-0.248119157733164","-0.40712302391344113","-0.8576175280849536"
"-0.00020022999280297656","0.0006983354237281424","0.04956224190050384","0.0026867474651247406","-0.0009080714517188505","0.0010507701995923738","-0.24800499701261772","-0.4065624899528434","-0.8555525178215511"
"-0.00019858929553141764","0.0006966516995504876","0.050815250011380673","0.0017532853506238883","-0.0020211604363074903","0.0010413105856013254","-0.24686338980715442","-0.40561201932400387","-0.8559436182502256"
"-0.0005611833925467822","-0.000354693739046743","0.04923364563817126","0.002926100080773424","-0.0017432047683698265","0.0006928814702643755","-0.24709171124824686","-0.40753733162344813","-0.8545043686727027"
"0.00041339078676148433","0.0009090815666312571","0.05084572971551063","-0.002204735349373068","-0.0034110970651005583","0.0010292889928210348","-0.2498601087214959","-0.40658686099460856","-0.8543635725183798"
"-0.00032656368271333333","0.0015389768125266994","0.05017935152658713","-0.0016819285153017224","-0.004525135784317687","-0.0031520574665138443","-0.24843309971466662","-0.407622630269626","-0.85680403919331"
"0.00041339078676148433","0.000701281941039038","0.04896684384448573","-0.0017320499214217037","-0.0016009028632012847","0.0008700521573050528","-0.2490895238578078","-0.40627003745166196","-0.8596981823655031"
"-0.0005644647870899292","0.00048534431525482097","0.05048414856788673","-7.045333263475215e-05","-0.0042473384054847714","-0.0017611000592467668","-0.24723441214892977","-0.40793945381257246","-0.8565537349189581"
"-0.0005644647870899292","0.00027529972409239564","0.050171418452909476","-0.0018269272567663158","-0.002293575985578971","-0.000701623292249345","-0.2514583588091446","-0.40672090172431663","-0.8546138767927315"
"-0.00019858929553141764","0.000591418938447068","0.05081566754157423","0.0006214314562851984","-0.0011844442286090334","-0.0010386220406804446","-0.2503167516036811","-0.4085731008984656","-0.8558184661130497"
"0.0004117500894898963","0.0007031059755648305","0.04771383573360889","0.0001008493321460716","-0.0031356740228388634","0.0027694638165909826","-0.25134419808859826","-0.40600195599224576","-0.8578991203935994"
"-0.00032164159089862745","0.0006970726305949011","0.05018227423794206","0.00025121355050601547","-0.003969382737547107","0.00015466884923201664","-0.2538842741207542","-0.4088533678787644","-0.8565224468846642"
"0.0001722082878417415","6.820165024086553e-05","0.04958311841018189","0.0003691231769135955","-0.0060621229914217395","-3.9450312875955975e-05","-0.2500598899824519","-0.40667215964078646","-0.8568353272276041"
"0.00040518730040366066","0.0019632191811564323","0.04958896383289175","-0.0024367595087744433","-0.005361535413806648","0.0006672616823719526","-0.2503738319639542","-0.4054536075525306","-0.8554117216672279"
"-7.225560562109003e-05","-0.000350063497558193","0.047065828873202084","-0.00011534012714951347","-0.0009044308023096444","0.0020903423621502987","-0.25011697034272495","-0.40556327724047364","-0.8570543434676618"
"-8.209978925047264e-05","0.001226716132745819","0.04831340909156261","0.001067812960920332","-0.004389956888862809","-2.1713536642740242e-05","-0.24923222475849072","-0.40715958047608886","-0.8564129387646354"
"-0.0004397717944511605","-0.00035216815278026113","0.04767375283502703","-0.000821358367403558","-0.0025734311227736117","0.002423793755334755","-0.25131565790846166","-0.4066356030781388","-0.8576957481706884"
"-8.538118379359046e-05","0.002170317255007962","0.050816502601961355","-0.000117303106501471","-0.0022969000567786813","0.001390725077395676","-0.2508019346660029","-0.4071473949552062","-0.8564442267989294"
"-0.0004381310971795724","-0.00035525498043929474","0.04986662141160988","0.0033867459020327823","-0.001186818565180255","0.0010456462420138893","-0.24837601935439324","-0.4078054130828644","-0.8559749062845196"
"0.00016236410421238803","0.001751069934771938","0.05020356827781368","0.00015751400277257789","-0.0020213187254122388","-0.0013905985112640379","-0.24960324710026638","-0.40669653068255157","-0.8560061943188136"
"-7.553700016420785e-05","0.0004891326946545439","0.04894262709325919","0.0009247771988076962","0.00048788016305464417","0.002453157973765301","-0.2498601087214959","-0.4081344221466935","-0.8547703169642016"
"0.00016236410421238803","0.0014388653791303128","0.04769838711644713","-0.0010115056339631738","-0.0011836527830852927","-0.0006894046241775742","-0.2549688009659446","-0.40748858953991784","-0.8545043686727027"
"0.0001722082878417415","-0.00014142200987714607","0.048957240650033824","0.0005010353893651389","0.0004859806937976678","-0.0003311217442666155","-0.2514583588091446","-0.4084268746478748","-0.8552239934614643"
"-0.00019858929553141764","0.0006966516995504876","0.050815250011380673","-0.0015108875811011596","-0.0014584426689279947","0.0015675016138533933","-0.25154397934955425","-0.40499055775899334","-0.8548328930327894"
"-0.0003232822881701863","0.000909362187327533","0.04892843106667811","-0.0019545209146435527","-0.002851545079816024","-9.49486857096946e-06","-0.2547690197049885","-0.4060263270340108","-0.8561469904731366"
"-0.00032164159089862745","0.0006979144926837283","0.04955597894760042","0.0008128873757461191","-0.0025762803266590776","0.0017318624069478593","-0.2514298186290081","-0.40658686099460856","-0.8540037601239989"
"0.0002854163995795687","0.001751476834781538","0.05020983123071709","0.000605073295018886","-0.0021614045831143073","-0.0001746439628313564","-0.25317076961733964","-0.4069767976628504","-0.8565068028675172"
"0.00016564549875550585","0.0007022641134760033","0.04770130982780206","0.0017443865108950143","0.00020660042391727062","0.00210315225609651","-0.25302806871665673","-0.4073423632893272","-0.8546451648270257"
"0.00015908270966927021","0.0019645942225681836","0.04800986464084371","-0.0017170004130566963","-0.0017395641189606203","-0.0003449170146702275","-0.2537701134002081","-0.4075007750608004","-0.8542540643983508"
"-0.00020679278188924134","0.001855951920005013","0.04955806659856823","-0.0008239756732061681","-0.0027132004022661846","0.002081473974033691","-0.24997426944204204","-0.4054657930734131","-0.8549893332042593"
