"AccX","AccY","AccZ","GyroX","GyroY","GyroZ","MagX","MagY","MagZ"
"-0.00048735201532645634","0.008497907056017327","0.015898870044640977","0.0001785833144835883","-0.0046229584510520125","0.0008584247151077227","-0.22640008064922215","0.306400151364771","0.7926541967338033"
"-0.00011983582649641503","0.007654641863708593","0.01871552873040409","-0.0024380681616757486","-0.0034661816735528967","0.0030154137803582413","-0.22403124569788588","0.3060833278218245","0.7931078732310662"
"-0.00011983582649641503","0.007866791110093087","0.016533515938853834","0.0006517922035954744","-0.002913752697982027","0.0012257730584267694","-0.22525847344375885","0.3059249160503512","0.7924664685280396"
"-0.00048735201532645634","0.008284354706151456","0.01932846305455177","-0.0024070530879148197","-0.003523640618576457","-0.0005484957907692488","-0.2277129289355053","0.3046210653159175","0.7937179898997988"
"0.0002476803623336263","0.0078672120411375","0.014989489283064924","0.0027745580748023057","-0.0003309493758072768","0.0024850841709850896","-0.22488745110198335","0.3054496807359314","0.7922787403222757"
"-0.00012475791831109177","0.004718788139271323","0.01962741467314151","-0.002177384503735793","-0.0037955813005336927","0.00016136940914234245","-0.22637154046908586","0.3036462236453128","0.7950164433229989"
"-0.00024124742459206592","0.009022106516660496","0.014977798437645216","-6.0507570584834184e-05","-0.002195278451530401","0.001947265700535691","-0.2294538799238372","0.30459669427415237","0.7949382232372639"
"-0.00012475791831109177","0.0049286924200856105","0.01931718973932562","0.0013763933150480498","-0.002943194471465174","-0.0007361114682583757","-0.22717066551291026","0.30624173959329776","0.7924351804937456"
"-0.00036265902268768765","0.009755649016725399","0.015602423607212602","-4.1401238225781284e-05","-0.003228906305535494","-0.0005565758777199358","-0.2273989869540027","0.3057299477162303","0.7961897446090229"
"-0.00048735201532645634","0.007655062794753005","0.01963534774681917","-0.0017078398427475612","-0.004073536968471357","0.00033597811739377787","-0.22751314767454917","0.3065463776153617","0.7957673561460544"
"-0.0002445288191351837","0.006187697173926923","0.018698409992468086","-6.325574167757469e-05","-0.00490313016645615","0.0012137514656464787","-0.2283408128985102","0.3075090337650838","0.7952980356316446"
"-0.0004857113180548974","0.009125094312193709","0.017463773210107943","-3.564316546003934e-05","-0.002244664652211808","-0.0010819786048060836","-0.23059548712930047","0.30622955407241514","0.7925759766480683"
"-0.0006136857052368131","0.0061899421394971295","0.018058336205738934","0.0011259171497382738","-0.004340887266390898","0.0005029008892774864","-0.22719920569304672","0.30670478938683493","0.7951259514430277"
"0.0002476803623336263","0.007657588381019488","0.01498781916229068","-0.0014649538642653543","-0.003650746769689181","0.0001560483762723779","-0.23090942911080276","0.3065220065735966","0.7959081523003773"
"-0.0007334566060608759","0.007447543789857061","0.018687136677241936","-0.0001740986424181077","-0.00434658567416183","0.0005076306962730106","-0.23019592460738822","0.3044382825026791","0.7951415954601747"
"-0.00012147652376797394","0.00702619181439897","0.018398205783297664","0.0005108502861249264","-0.002590209767876911","0.003725081904978352","-0.22851205397932972","0.3057421332371128","0.7936710578483577"
"-0.0004889927125980444","0.007446561617420098","0.018697992462274524","0.0006702442095038747","-0.005087853551697182","-0.0016420665831927415","-0.22731336641359318","0.305266897922693","0.7939057181055625"
"-0.0007350973033324349","0.007239744164264842","0.01712599128351702","-0.00030404787551769366","-0.004465302502722905","0.0019332733548405986","-0.22799833073687112","0.30670478938683493","0.79490693520297"
"-0.0004906334098696033","0.006399846420311417","0.017441644109849205","0.0001504472771055309","-0.0040032566059632","0.0040735110203153025","-0.22520139308348563","0.3060833278218245","0.7928888569910083"
"-0.0009762798022521777","0.009126216794978811","0.018066269279416597","-0.00043949345080276063","-0.0045781626344083","0.0037156222909873037","-0.22985344244574915","0.30508411510945466","0.7949225792201169"
"-0.00036758111450239353","0.006610452252866394","0.016200744374585647","0.0020481248492879036","-0.005147370255082468","0.0029866407878021356","-0.22271839741160274","0.3041458300014977","0.7938118540026806"
"-0.00048735201532645634","0.008075011666729718","0.01901489787918739","-0.0007785654175308848","-0.006034897265405065","0.00156375718331527","-0.2280268709170079","0.3060589567800593","0.7945158347742952"
"-0.00024288812186362482","0.007448806582990304","0.015900957695608783","0.0030118168458089013","-0.004037763630798286","0.0012086275080679942","-0.22762730839509546","0.30622955407241514","0.7947192069972061"
"-0.000731815908789317","0.008705706681609547","0.01838567987749083","-0.0014881170206184526","-0.002614902868217614","0.0026652109873979697","-0.22180511164723202","0.30626611063506287","0.7927324168195384"
"0.0002443989677905085","0.005346536636840255","0.01933639612822943","0.0009954444554781659","-0.0040369721852745455","0.0019277552466791536","-0.22560095560539808","0.3070459839715466","0.7930609411796251"
"-0.00024124742459206592","0.008704724509172583","0.01747087122339848","-0.0007851086820374097","-0.004025891947942179","0.0030045746393268314","-0.22831227271837373","0.3059005450085861","0.7951259514430277"
"1.5757715992358485e-06","0.007131564885850528","0.017468783572430674","0.00014639045311148544","-0.005707238818576498","0.004056365469956527","-0.22774146911564191","0.3059005450085861","0.7938900740884156"
"0.0002476803623336263","0.007024929021265729","0.01810217687606285","-0.0005385584754315487","-0.0037599662519653704","0.0019348499571724398","-0.2258292770464905","0.3049500743797465","0.793530261694035"
"-0.0004857113180548974","0.009020282482134701","0.01746293814972082","-0.00031046027473408816","-0.004312553516640988","0.0026451093076669914","-0.2262002993882662","0.30624173959329776","0.7939057181055625"
"0.00024603966506206736","0.006396058040911693","0.018097166513740114","-6.691996980122872e-05","-0.0034710886358000877","0.0021139913971279195","-0.22654278154990523","0.30638796584388844","0.7943124625513843"
"-0.0004889927125980444","0.007657588381019488","0.01745166483449467","0.0006591206598427822","-0.003497839494502517","0.0001536834727746158","-0.22851205397932972","0.304304241772971","0.790573542453254"
"-0.00011983582649641503","0.007865808937656121","0.01746920110262424","-0.0012606731463716445","-0.004734710559004171","0.0031785921217038263","-0.22719920569304672","0.3059249160503512","0.7922318082708348"
"-0.00011819512922485612","0.007864265523826604","0.018717198851178334","-0.00032302334258661606","-0.004006897255372407","0.0040725256438579015","-0.22828373253823694","0.30575431875799536","0.7926385527166566"
"-0.00024616951640674264","0.006189240587756439","0.017450412243913988","0.001590227199121286","-0.004038396787217279","0.0015712460443915166","-0.22394562515747604","0.30543749521504887","0.7935459057111818"
"-0.000731815908789317","0.009021124344223532","0.01745208236468823","-0.001021320530722961","-0.00516636494765224","0.002641956103003309","-0.22368876353624667","0.306095513342707","0.7927011287852445"
"-0.0002445288191351837","0.006819514671591854","0.016207842387876183","0.0008929769333059849","-0.002350560063288287","0.000874387813717617","-0.22697088425195397","0.30477947708739067","0.7935146176768878"
"1.5757715992358485e-06","0.007025209641962005","0.01871552873040409","-0.001238818642919851","-0.0026392793903488214","0.0012350355971263377","-0.23016738442725174","0.30413364448061514","0.7924195364765985"
"-0.00024124742459206592","0.00849510084905457","0.01746920110262424","0.00019023032530520272","-0.00464733497318322","-0.000568991621083187","-0.22757022803482238","0.3065585631362443","0.7924195364765985"
"0.00024603966506206736","0.006185732829052992","0.01871928650214614","0.0018374317321777996","-0.004487937844701883","0.00013791744945620174","-0.2265998619101786","0.3055837214656396","0.7937023458826519"
"-0.00024124742459206592","0.008285898119980973","0.017155635927259858","-0.0007861556043584536","-0.0025982825122190635","0.003551458573184318","-0.228626214699876","0.3075212192859664","0.793201737333948"
"0.00024603966506206736","0.0059756882378905665","0.01902951143596203","0.0018259155866463155","-0.0026145862900081177","0.0019362294842128012","-0.22657132173004185","0.30477947708739067","0.7937336339169457"
"-0.0003642997199592757","0.009021966206312359","0.01559657818450275","-0.00028808231012177277","-0.004920700257083189","0.00014363263290912705","-0.22788417001632483","0.3065341920944792","0.7957517121289074"
"-6.49256723230628e-08","0.005977512272416359","0.018395283071942735","0.001117280040589661","-0.004041404280207493","0.0015718372702659572","-0.22754168785468562","0.30492570333798147","0.7951728834944688"
"-0.0006087636134221073","0.008706969474742789","0.016831214966862892","0.0006540169135276927","-0.0043427867356478755","0.0005030979645689667","-0.2292826388430175","0.3059005450085861","0.7936554138312107"
"-0.0002445288191351837","0.006399144868570727","0.017140187310098098","0.0011205516728429235","-0.0043301236072680275","0.0012137514656464787","-0.22754168785468562","0.3065463776153617","0.7955483399059964"
"-0.0009795611967952954","0.008499590780194983","0.016189471059359497","0.00041623468136057525","-0.0031989896647381037","0.0010503760490094135","-0.22845497361905664","0.3065463776153617","0.7942811745170905"
"-0.00048735201532645634","0.0076557643464936955","0.019011557637638902","-0.003264613334139983","-0.005750610033277478","0.0022884030300878745","-0.22933971920329058","0.3068753866791908","0.793420753574006"
"-0.0004889927125980444","0.007868755454967017","0.016205754736908377","-0.00027996866213368183","-0.004080976556394518","-0.0005609115341324996","-0.23011030406697836","0.30686320115830823","0.7934051095568588"
"-0.00024288812186362482","0.0074458600656794076","0.018396535662523417","-0.0010098043851914772","-0.0023391632477464236","0.002128969119280413","-0.22517285290334935","0.30624173959329776","0.7930922292139191"
"-0.0002445288191351837","0.007238761991827878","0.016211182629424673","0.003501776492057491","-0.00463815420510783","-0.0009371282655681548","-0.22859767451973956","0.3075212192859664","0.793420753574006"
"-0.00011983582649641503","0.007342030408057366","0.01715313074609849","0.0008937621250467678","-0.004348960010733051","0.0001438297082006071","-0.2270565047923638","0.3073628075144932","0.7934520416083"
"-0.00011983582649641503","0.007761698659337805","0.016844575933056848","0.0006345179852982484","-0.0027399512609686135","0.003188248810986355","-0.23162293361421749","0.3058883594877036","0.7934051095568588"
"-0.00036758111450239353","0.006924186191302722","0.01682703966492728","-5.946064826379022e-05","-0.005192007782621433","0.0008548773598610796","-0.22640008064922215","0.3059005450085861","0.7953762557173796"
"-0.00048735201532645634","0.008077677563344338","0.016831214966862892","-0.0010158241885374801","-0.00517554571572763","0.0021063054607601927","-0.2271421253327735","0.3070216129297815","0.7957517121289074"
"-0.000731815908789317","0.008600894851550541","0.018384844817103705","0.0008749175232679758","-0.004886034943143355","0.0019246020420154708","-0.2271421253327735","0.30557153594475706","0.7953762557173796"
"-0.0004906334098696033","0.006400547972052106","0.016817854000668937","0.0008932386638862458","-0.00463150606270841","0.00014402678349208713","-0.23128045145257844","0.30557153594475706","0.7929983651110373"
"-0.00024124742459206592","0.008287020602766074","0.016219533233295894","-0.0007696665778020108","-0.004622167005528272","0.0012172988208931218","-0.22973928172520303","0.3065463776153617","0.7932173813510951"
"-0.0002445288191351837","0.006816989085325372","0.018391525300200683","-0.0007622072562645723","-0.004923707750073403","0.00014619461169836917","-0.22896869686151491","0.3057299477162303","0.7959550843518182"
"-0.00024288812186362482","0.00744838565194589","0.01621285275019892","-0.0010039154471356048","-0.00519643987755438","0.0008574393386503216","-0.23105213001148567","0.3044382825026791","0.7942811745170905"
"0.0002476803623336263","0.00681712939567351","0.016540613952144373","0.0016010890182021173","-0.005197864479497112","0.00013239934129475678","-0.22979636208547607","0.30540093865240125","0.7953293236659387"
"-0.0007334566060608759","0.008184173117581","0.016197821663230718","-0.002211540344459854","-0.005437355894980987","0.0037140456886554625","-0.224430808219798","0.3054253096941663","0.7956265599917313"
"0.0007333267547162006","0.0040882334347396325","0.018099671694901485","8.344424855871519e-05","-0.0029596565383589765","-0.0012703825834611312","-0.22779854947591516","0.30591273052946866","0.7934676856254469"
"-0.0014668482864494288","0.010178965337057422","0.015870060461285265","-0.0007629924480053555","-0.0029221420205336767","0.0008804971477535022","-0.22697088425195397","0.306400151364771","0.7938900740884156"
"0.00024603966506206736","0.005345694774751428","0.0199601862374097","0.0008605223413536209","-0.004862766444745384","0.003525838785291895","-0.22249007597051","0.30448702458620935","0.7927637048538324"
"-0.00048735201532645634","0.008078379115085028","0.016207424857682624","-0.0004220883672154043","-0.0034674479863908815","0.0022964831170385613","-0.229939062986159","0.30508411510945466","0.7942811745170905"
"-0.000239606727320507","0.009120744691401434","0.020281684486451738","0.00016392640198897236","-0.0040339646922843315","0.0022880088795049144","-0.22854059415946618","0.3068753866791908","0.7938587860541217"
"0.0012271766334565988","0.005346115705795842","0.016259198601684198","-0.0017414722223110996","-0.003153244113465903","0.004791850457760541","-0.2284835137991931","0.30525471240181046","0.7938900740884156"
"0.0002493210596051852","0.007862862420345226","0.018733064998533656","0.0001736104334586293","-0.003337176053183195","0.0015787349054677633","-0.2266569422704517","0.3065585631362443","0.7934833296425938"
"-0.00048735201532645634","0.008076835701255511","0.01745500507604316","-0.0022043427535026762","-0.0034581089292107436","0.003372908359103279","-0.22542971452457838","0.30674134594948266","0.7914026753620443"
"0.0002443989677905085","0.005557142469395233","0.018402381085233274","0.0011107367760831357","-0.002889692754060316","0.002649839114662516","-0.22468766984102706","0.30463325083680004","0.7935615497283287"
"-0.00048407062078333854","0.010173914164524457","0.016848333704798896","0.00113023570431258","-0.004063248176662731","0.00014560338582392875","-0.22842643343891986","0.30525471240181046","0.7943124625513843"
"0.00024603966506206736","0.006185732829052992","0.01871928650214614","-0.0005553092325682527","-0.005867743970791072","0.0031655851524661346","-0.22405978587802233","0.3046210653159175","0.7952354595630566"
"-0.00012639861558267983","0.007437160824094857","0.017528907920303472","-0.0008814255355734574","-0.004076544461461571","-0.0005557875765540154","-0.2240027055177491","0.3048525902126861","0.7937649219512397"
"-0.00049555550168428","0.007436459272354168","0.019384829630682516","0.000983143118205899","-0.003311533218214003","0.002297862644078923","-0.2252299332636224","0.3043651693773838","0.7929201450253023"
"-4.987017487028941e-06","0.007227677474324986","0.01690845805267169","0.0008719076215949745","-0.004033806403179584","0.0015765670772614816","-0.2267996431711346","0.3054862372985791","0.7928575689567143"
"-0.0002494509109498605","0.007225713129451054","0.0193935977647473","0.00016588938134092985","-0.004045678086035691","0.0010458433173053693","-0.2267996431711346","0.3042067576059105","0.7924821125451865"
"-4.987017487028941e-06","0.006807728602348271","0.017528907920303472","0.0020271864028670234","-0.003982045865926955","0.004425093340315935","-0.22791271019646128","0.3069363142836036","0.7934363975911529"
"-0.0003708625090455113","0.008696586508980584","0.016904700280929642","-0.0010134686133151313","-0.002055192593828332","0.0016012014886965032","-0.22551533506498822","0.30744810616067103","0.7915904035678082"
"0.00024111757324739064","0.006488943491378978","0.02034473154567946","0.0013398818991016406","-0.0048844520520958746","0.001567107463270433","-0.22956804064438333","0.30629048167682793","0.7923726044251578"
"0.0002493210596051852","0.008074590735685306","0.016862947261573533","0.0015914049867324605","-0.0037560090243466677","0.0015696694420596754","-0.2269994244320906","0.30493788885886397","0.7935146176768878"
"0.00024603966506206736","0.0056602705752765835","0.019962691418571064","-0.0003357172757292745","-0.00512552635862723","0.005132002410855324","-0.2243166474992517","0.3051206716721024","0.7935459057111818"
"-0.00048735201532645634","0.00881206192549807","0.01621327028039248","-0.00171268185848239","-0.005057145465376051","0.0008615779197714054","-0.22503015200266627","0.30559590698652217","0.7939370061398567"
"-0.000612045007965225","0.006606944494162947","0.019933464305021787","-0.0003035244143571717","-0.0034731463941618133","0.0019413534417912861","-0.2263430002889491","0.3059249160503512","0.7928732129738614"
"-0.0002445288191351837","0.006816989085325372","0.018391525300200683","0.0029996463738267646","-0.00373416512789143","0.0024594643830926667","-0.2293967995635638","0.3054253096941663","0.7928262809224202"
"3.2164688707947596e-06","0.007445298824286855","0.01809507886277231","0.0006428933638666004","-0.0028998232567641947","0.0021169475265001222","-0.22617175920812974","0.3073628075144932","0.7945158347742952"
"-0.0007400193951471408","0.008068557390715375","0.017507613880431858","4.876494667413283e-05","-0.004044411773197707","0.0010484052960946118","-0.22865475488001263","0.30499881646327676","0.7930452971624782"
"-0.0006136857052368131","0.009535361770148909","0.01752473261836786","-0.001271011504291954","-0.002588152009515185","0.0037374976483416033","-0.23133753181285166","0.30498663094239425","0.7929983651110373"
"-0.00025273230549300744","0.0060739054815870915","0.018448309406524994","0.0025218571995603116","-0.005019156080236507","0.0015643484091897105","-0.22688526371154444","0.3038655630211988","0.7947817830657941"
"-0.00024616951640674264","0.008589108782306959","0.018780663440599622","-0.0012822659192431773","-0.0037099468948649707","0.004618227125966506","-0.2292826388430175","0.30563246354916984","0.7942811745170905"
"0.00024111757324739064","0.006807447981651995","0.016915973596155792","-0.0007853704126176707","-0.004319834815459401","0.001935835333629841","-0.22420248677870525","0.30502318750504187","0.7922943843394228"
"-0.00049555550168428","0.007437862375835548","0.018136831882128418","-0.0004321649945554526","-0.0028919088015267893","0.0023065339569040507","-0.23108067019162246","0.3038655630211988","0.791778131773572"
"-0.0002494509109498605","0.007228379026065673","0.0172099148524228","0.0025205485466590067","-0.004587501691588438","0.0019238137408495502","-0.23031008532793465","0.3041945720850279","0.7919971480136297"
"-0.00012475791831109177","0.00848570005572933","0.017225363469584563","-0.0010167402455683939","-0.0033327439582502487","0.0015893769712076928","-0.22762730839509546","0.30468199292033027","0.7922474522879817"
"-0.00012803931285423873","0.006913803225540517","0.016900942509187594","-0.0026935172080104833","-0.0025838782036869865","0.004454654634037962","-0.22717066551291026","0.30498663094239425","0.7955796279402906"
"-0.0007383786978755818","0.008486261297121883","0.018758951870534443","-0.0009178060862297363","-0.004011012772095857","0.003369361003856636","-0.22731336641359318","0.3038655630211988","0.7943593946028253"
"-0.0002494509109498605","0.007438002686183685","0.017211584973197042","0.0015551553013663118","-0.00384164343001539","0.004428837770854058","-0.22899723704165167","0.30466980739944777","0.7934676856254469"
"-0.0004939148044127211","0.007857109696071571","0.01814017212367691","-0.0007848469514571489","-0.006032206350624348","0.001211977788023157","-0.22631446010881265","0.30354873947825234","0.7931235172482132"
"-0.0004922741071411623","0.00869630588828431","0.01752348002778718","0.001354669676886387","-0.004621375560004532","0.00014580046111540876","-0.22508723236293948","0.30323191593530585","0.7937805659683868"
"-0.00012475791831109177","0.007643837966901974","0.02002615600799235","-0.0008021211697543746","-0.0028687985922335665","0.003910332678969717","-0.2283408128985102","0.30354873947825234","0.7922630963051286"
"-0.00024781021367830156","0.008278321361181524","0.01565879018334335","0.0025126966292511764","-0.0017207277154955966","0.003729417561390916","-0.22774146911564191","0.304523581148857","0.7914026753620443"
"-0.0004939148044127211","0.008169721151722797","0.019702570107982504","-0.0015195246902497727","-0.004422722733545666","0.004436523707221785","-0.22363168317597343","0.3037315222914907","0.793373821522565"
"-3.34632021547003e-06","0.007856548454679018","0.016913885945187987","-0.0008015977085938526","-0.004290076463766758","0.003719366721525427","-0.22622883956840295","0.30114819186438835","0.7904640343332249"
"-0.0002494509109498605","0.0068064658092150294","0.01939025752319881","-0.0005749390260878275","-0.004844563197699352","0.004429034846145539","-0.22485891092184673","0.3017818389502813","0.7923569604080106"
"-4.987017487028941e-06","0.007226975922584295","0.01753266569204552","0.0001528028523278799","-0.002878929094937445","0.003014822554483801","-0.22685672353140768","0.3021108480141104","0.79168426767069"
"-0.00024616951640674264","0.008483595400507263","0.019403618489392763","-0.001980824837959783","-0.004587659980693186","0.003187460509820434","-0.22548679488485163","0.30308568968471516","0.790651762538989"
"-4.987017487028941e-06","0.006804782085037375","0.020024485887218106","0.0013236546031254583","-0.006279137354031385","0.0029826992819725322","-0.22157679020613943","0.30309787520559767","0.7913400992934563"
"-0.00024616951640674264","0.009324335006549517","0.017538928644948937","5.3476097118830814e-05","-0.0022016100157203245","0.0010602298135834222","-0.22554387524512468","0.30212303353499304","0.7900416458702562"
"0.00024111757324739064","0.006385955695845766","0.01878400368214811","-0.001033621867995228","-0.006012103634321339","0.0026360438442589035","-0.22405978587802233","0.30034394748613946","0.7922005202365408"
"-0.0004906334098696033","0.009745266050963194","0.016908040522478133","-9.03448567345881e-05","-0.0042915010657094904","0.003361675067488909","-0.2233462813746076","0.30212303353499304","0.7921692322022468"
"0.00024111757324739064","0.006174928932246374","0.0200299137797344","0.00016916101359419234","-0.004623275029261509","0.0005042804163178477","-0.2252299332636224","0.3008191828005592","0.7921692322022468"
"-0.0004906334098696033","0.009745266050963194","0.016908040522478133","0.002067885508097609","-0.0029158104563437523","0.0001566396021468183","-0.22331774119447115","0.3014772009282174","0.7921848762193937"
"-0.0006169670997799309","0.007855425971893917","0.02000694961908854","0.0005146453795387109","-0.004034439559598577","0.0015810998089655253","-0.2240027055177491","0.3017818389502813","0.7929983651110373"
"-0.00012475791831109177","0.008277058568048284","0.016288008185039914","0.0013427609354845114","-0.0034579506401059956","0.0019362294842128012","-0.21932211597534912","0.30276886614176857","0.7939057181055625"
"-0.00024781021367830156","0.008168318048241419","0.020024903417411668","-0.0007872025266794977","-0.003893562256372767","0.0019413534417912861","-0.22460204930061753","0.3008313683214418","0.7911367270705455"
"-0.00012475791831109177","0.00806490932166379","0.01847002097659017","0.00016248688379753685","-0.0037533181095659508","0.001581888110131446","-0.2235460626355636","0.3017818389502813","0.7934363975911529"
"-0.00024616951640674264","0.008903544272483977","0.018783168621760986","-9.413995014837253e-05","-0.0034326243833462996","0.003902843817893471","-0.22605759848758328","0.30130660363586154","0.7917311997221311"
"-0.00024781021367830156","0.008273971740389251","0.01940194836861852","-8.000649881427864e-05","-0.004029216019141889","0.0021157650747512407","-0.22054934372122212","0.2992228795649441","0.7924977565623335"
"0.0002443989677905085","0.008799013063121246","0.016931839743511114","-0.0003141245028577422","-0.0040311154883988665","0.0021135972465449594","-0.22405978587802233","0.30098978009291505","0.7923882484423047"
"0.0002443989677905085","0.008062383735397308","0.01942157228771589","0.0001479608365930514","-0.0035864813931614525","0.0031854897569056325","-0.22405978587802233","0.30229363082734884","0.7898539176644923"
"-0.00024781021367830156","0.008487664400603261","0.01597235535870773","0.0001801536979651543","-0.005064268475089716","-0.0005678091693343062","-0.2235175224554273","0.30212303353499304","0.7909177108304876"
"-0.0004939148044127211","0.008276357016307596","0.018143929895418957","-0.0012767695770576962","-0.0048584926389171855","0.003718775495650987","-0.227598768214959","0.30226925978558367","0.791887639893601"
"-0.0007383786978755818","0.009116956312001712","0.017204069429712945","-0.0010058784264875623","-0.0026391211012440734","0.0005285206771699092","-0.22794125037659807","0.30096540905114993","0.7919032839107479"
"-0.00024781021367830156","0.00848654191781816","0.01690845805267169","-0.0014928281710631507","-0.004894899133009248","0.0015787349054677633","-0.2257151163259442","0.3021108480141104","0.7917155557049841"
"0.00024275827051894956","0.008064488390619377","0.017549784429981525","-6.613477806044573e-05","-0.0023423290298413856","0.0012358238982922581","-0.22711358515263688","0.30129441811497903","0.7923256723737166"
"-0.0002445288191351837","0.00932138848923862","0.02003450661186357","-0.0017637193216332844","-0.008828383385999537","0.004042373124261435","-0.22859767451973956","0.30063639998732083","0.7925290445966277"
