"AccX","AccY","AccZ","GyroX","GyroY","GyroZ","MagX","MagY","MagZ"
"-7.8918","-7.7873","-4.6412","-0.87187","-0.53978","1.6842","0.65137","0.49034","-0.10121"
"-8.3563","-7.7468","-4.9029","-0.59418","-0.49039","1.7193","0.67037","0.45211","-0.10281"
"-8.9265","-8.4852","-4.4813","-0.3832","-0.41598","1.6752","0.68701","0.41457","-0.111"
"-9.1318","-10.307","-4.4299","-0.39274","-0.36259","1.3918","0.70092","0.37902","-0.12515"
"-7.8264","-9.4788","-3.793","0.034125","-0.28107","0.93752","0.71152","0.35344","-0.13919"
"-7.6398","-9.5223","-4.4175","-0.14806","-0.10086","0.58","0.71956","0.33661","-0.14857"
"-7.5344","-9.0587","-4.6984","-0.017762","0.12322","0.075498","0.72472","0.32811","-0.14865"
"-7.0072","-7.3731","-4.6326","0.4314","0.15299","-0.1645","0.72589","0.32717","-0.14554"
"-7.3502","-6.5805","-4.3897","0.59994","0.3537","-0.376","0.72355","0.32791","-0.14112"
"-8.0544","-7.0729","-3.626","0.52782","0.43002","-0.58299","0.72083","0.33581","-0.12968"
"-8.9678","-7.0405","-3.1408","0.62441","0.42439","-0.79993","0.7182","0.34677","-0.12002"
"-8.4439","-7.5674","-2.6926","0.43326","0.25741","-0.99073","0.71119","0.36717","-0.11239"
"-8.3105","-8.2317","-3.0209","0.45933","0.19157","-1.1912","0.70195","0.39258","-0.10878"
"-8.1905","-8.1126","-3.0633","0.65895","0.038064","-1.3709","0.68744","0.42117","-0.11296"
"-8.042","-8.7021","-3.436","0.76012","-0.12591","-1.6075","0.67261","0.45402","-0.1244"
"-7.4871","-8.3313","-3.4106","0.84011","-0.061769","-1.6328","0.65031","0.48844","-0.14313"
"-6.5113","-7.3059","-3.1374","0.6256","-0.030462","-1.5819","0.63168","0.52091","-0.16118"
"-5.62","-7.2045","-3.4209","0.5817","0.16421","-1.552","0.61094","0.55056","-0.1758"
"-4.6656","-6.0781","-2.1093","0.55476","0.31034","-1.4827","0.5929","0.57889","-0.18473"
"-3.0529","-5.5076","-0.77312","0.64476","0.30844","-1.2141","0.57681","0.60145","-0.19522"
"-2.4","-5.0794","-0.2081","0.59312","0.26684","-0.94862","0.56505","0.61985","-0.20549"
"-1.8299","-4.574","-0.22699","0.47196","0.22893","-0.53641","0.5547","0.62982","-0.21423"
"-1.0802","-4.5424","0.42824","0.13892","0.27289","-0.065296","0.55384","0.63259","-0.21643"
"-1.6589","-5.4893","0.48467","-0.26071","0.1268","0.34748","0.55623","0.6285","-0.20971"
"-2.2735","-5.4023","-0.093255","-0.51257","0.00711","0.66594","0.56164","0.62252","-0.19681"
"-3.5637","-6.0285","-0.87128","-0.84496","-0.1173","0.93335","0.56918","0.60997","-0.18161"
"-3.9456","-5.666","-1.4669","-1.0052","-0.23336","1.1529","0.58095","0.59621","-0.15961"
"-4.9211","-6.1588","-2.3887","-1.1097","-0.31349","1.4009","0.59431","0.57511","-0.13888"
"-6.0012","-6.5316","-3.2746","-1.0117","-0.40053","1.6231","0.61372","0.54818","-0.1221"
"-7.05","-6.6593","-3.6303","-0.9936","-0.47304","1.7424","0.63531","0.51422","-0.11119"
"-8.5954","-7.8608","-4.0257","-1.0287","-0.53629","1.788","0.65354","0.48025","-0.10427"
"-8.986","-8.3511","-4.3026","-0.70174","-0.60815","1.758","0.67073","0.44122","-0.1071"
"-8.8672","-8.904","-4.4216","-0.5571","-0.50711","1.6334","0.68819","0.40541","-0.11649"
"-8.6893","-10.026","-4.3768","-0.35266","-0.35908","1.2992","0.70192","0.37381","-0.13059"
"-7.8191","-9.1849","-4.5242","-0.37551","-0.24379","0.81664","0.71157","0.35121","-0.14074"
"-7.8884","-10.207","-4.685","-0.36539","-0.02391","0.52149","0.72154","0.33712","-0.14335"
"-7.5646","-8.9096","-4.7567","0.23258","0.13847","0.11572","0.72479","0.32971","-0.14222"
"-6.8644","-6.9715","-4.5006","0.50284","0.13896","-0.11869","0.72802","0.32499","-0.14083"
"-7.561","-6.9836","-4.3705","0.60979","0.32142","-0.38424","0.72794","0.3268","-0.13609"
"-8.2204","-7.4609","-3.718","0.57905","0.32835","-0.66147","0.72246","0.33433","-0.12977"
"-8.6242","-7.3562","-3.2165","0.60545","0.34005","-0.8874","0.71706","0.34961","-0.12094"
"-8.4372","-7.7171","-2.796","0.46785","0.17605","-1.0347","0.70804","0.37016","-0.11696"
"-8.3558","-8.0143","-3.3706","0.62359","0.15626","-1.199","0.69746","0.39572","-0.11698"
"-8.0643","-8.3815","-3.419","0.73982","0.088039","-1.3979","0.68483","0.42448","-0.1227"
"-7.8021","-8.4656","-3.2206","0.89973","-0.054036","-1.5785","0.66843","0.4564","-0.1339"
"-7.5859","-8.7486","-3.778","0.91806","-0.045649","-1.6527","0.64906","0.48822","-0.15303"
"-6.6019","-7.7409","-2.7277","0.71716","0.082448","-1.7333","0.62734","0.52043","-0.1733"
"-4.8825","-6.0204","-1.4314","0.60725","0.22758","-1.599","0.60684","0.5523","-0.18424"
"-4.7626","-6.164","-1.0936","0.5764","0.26812","-1.4485","0.5901","0.57868","-0.19376"
"-3.2694","-5.0082","-0.37049","0.59616","0.23448","-1.189","0.57492","0.59994","-0.20473"
"-1.8443","-4.2474","0.19353","0.43045","0.21491","-0.8222","0.56469","0.61754","-0.21228"
"-1.3651","-4.2037","-0.11203","0.098801","0.16995","-0.32444","0.55713","0.62868","-0.21552"
"-1.3361","-4.5913","-0.40394","-0.067719","0.18739","0.12109","0.55597","0.62943","-0.21132"
"-1.6814","-5.0682","-0.29153","-0.35624","0.064055","0.53722","0.56028","0.6219","-0.20282"
"-2.4012","-5.4227","-0.47647","-0.6365","-0.048028","0.8821","0.56819","0.61066","-0.18762"
"-3.5407","-5.8125","-0.71343","-0.85373","-0.16993","1.1673","0.57854","0.59574","-0.16897"
"-4.8231","-6.1239","-1.8042","-1.0339","-0.23693","1.4093","0.59286","0.57362","-0.15164"
"-5.9622","-6.2142","-2.2272","-1.2839","-0.33505","1.5916","0.61076","0.54927","-0.12965"
"-7.3949","-6.8842","-3.1347","-1.0676","-0.48257","1.7219","0.63137","0.51801","-0.11341"
"-8.4147","-7.221","-3.7206","-1.0729","-0.54346","1.7093","0.64899","0.48376","-0.10597"
"-8.6333","-7.7711","-4.189","-1.0439","-0.60101","1.69","0.66602","0.45008","-0.10453"
"-9.1378","-9.0294","-4.7089","-0.77035","-0.62986","1.6224","0.68535","0.41661","-0.1098"
"-8.7426","-9.7083","-5.496","-0.52165","-0.46965","1.4382","0.69902","0.38289","-0.12346"
"-8.1504","-9.6601","-5.0974","-0.31742","-0.33916","1.0422","0.71172","0.35572","-0.13463"
"-7.8514","-10.283","-4.6457","-0.087389","-0.14449","0.62041","0.71728","0.34098","-0.14479"
"-7.2509","-9.4337","-4.8275","0.23762","0.021151","0.25409","0.72438","0.32765","-0.14816"
"-7.2555","-7.851","-4.5395","0.47808","0.14811","-0.15454","0.72687","0.32098","-0.14995"
"-7.5002","-6.7165","-3.9504","0.53614","0.28258","-0.42777","0.7254","0.32422","-0.14581"
"-8.2434","-7.7593","-3.8238","0.49931","0.35963","-0.69542","0.72243","0.33413","-0.13747"
"-8.5488","-7.0276","-3.304","0.49872","0.32783","-0.93882","0.71628","0.35112","-0.12948"
"-8.8339","-7.2501","-3.3692","0.32249","0.27986","-1.0661","0.71013","0.37297","-0.12053"
"-8.3636","-8.2012","-3.3339","0.57465","0.21125","-1.3061","0.69816","0.40113","-0.11746"
"-8.1472","-8.7027","-3.3316","0.94198","0.14096","-1.521","0.68213","0.43182","-0.12199"
"-8.0423","-8.5378","-3.6282","0.99263","-0.053419","-1.7016","0.66357","0.46495","-0.13886"
"-7.6378","-8.7426","-3.2783","0.95333","-0.0792","-1.8095","0.6406","0.49964","-0.15935"
"-5.6419","-6.9984","-2.7244","0.89934","0.13625","-1.7076","0.61966","0.53383","-0.1795"
"-5.626","-6.8064","-2.1035","0.67836","0.13858","-1.5949","0.59986","0.56298","-0.19408"
"-3.9892","-5.0999","-0.95815","0.87721","0.20876","-1.4148","0.5814","0.58781","-0.21093"
"-2.233","-3.655","0.069026","0.61322","0.4346","-1.0743","0.56821","0.60463","-0.22281"
"-1.6187","-4.2372","1.2433","0.32327","0.32943","-0.62951","0.56059","0.61813","-0.22463"
"-1.5743","-4.3706","0.88506","-0.066251","0.2341","-0.13626","0.55831","0.62453","-0.22191"
"-1.7698","-4.7727","0.79103","-0.35758","0.077662","0.2841","0.55929","0.62433","-0.21218"
"-2.04","-4.8446","0.35297","-0.65921","-0.11008","0.66359","0.56316","0.61821","-0.19867"
"-3.2256","-5.3347","-1.0579","-1.0032","-0.17192","1.0128","0.57053","0.60707","-0.18005"
"-3.9238","-5.7612","-2.0421","-1.1611","-0.27094","1.2706","0.58197","0.59265","-0.15712"
"-5.1764","-6.0123","-3.3489","-1.2969","-0.32712","1.5072","0.59764","0.57155","-0.13406"
"-6.5035","-6.6026","-3.6568","-1.2348","-0.43372","1.6978","0.61674","0.54353","-0.11249"
"-7.7714","-7.4162","-4.293","-0.98779","-0.52589","1.7713","0.63773","0.5077","-0.10107"
"-8.4457","-7.3974","-4.4986","-0.87982","-0.53377","1.7948","0.65875","0.47209","-0.1"
"-8.926","-8.0232","-4.344","-0.73167","-0.60223","1.8322","0.67482","0.43357","-0.10355"
"-9.3037","-9.7458","-4.7062","-0.39712","-0.48462","1.6868","0.6919","0.39394","-0.11527"
"-7.8071","-10.431","-5.0339","-0.44253","-0.40854","1.2707","0.70806","0.36237","-0.13075"
"-7.9402","-9.7758","-4.3545","-0.018149","-0.18127","0.82533","0.71639","0.33964","-0.14267"
"-7.8942","-9.622","-3.539","-0.023645","0.00736","0.3237","0.72171","0.32565","-0.14874"
"-7.8627","-8.4929","-3.8791","0.067703","0.082542","-0.13738","0.72547","0.32278","-0.14698"
"-7.292","-7.2228","-4.7027","0.39675","0.18034","-0.40558","0.72613","0.32448","-0.14486"
"-7.9811","-7.3249","-4.4905","0.45181","0.31374","-0.65053","0.72355","0.33413","-0.13663"
"-8.1004","-7.2966","-3.8649","0.41774","0.28728","-0.88663","0.71718","0.35061","-0.12998"
"-8.7154","-7.8396","-3.7274","0.50497","0.37858","-1.0478","0.70894","0.37256","-0.12056"
"-8.1766","-8.3135","-3.4954","0.63686","0.27512","-1.2155","0.69943","0.39744","-0.11522"
"-8.0126","-8.5668","-3.9042","0.80447","0.24428","-1.3953","0.68627","0.42667","-0.11539"
"-7.7045","-8.1363","-3.5467","0.90885","0.11655","-1.6082","0.67058","0.45859","-0.12604"
"-7.3677","-8.2719","-3.646","0.98012","0.038052","-1.6868","0.65003","0.49195","-0.14099"
"-6.2584","-8.1445","-3.1189","0.93984","0.023926","-1.652","0.62765","0.52351","-0.163"
"-5.522","-6.8639","-2.8789","0.77861","0.20668","-1.5703","0.60845","0.55135","-0.17873"
"-4.9421","-5.6757","-1.6482","0.66128","0.38928","-1.4153","0.59392","0.57751","-0.19083"
"-3.2986","-4.8528","0.10756","0.65059","0.3466","-1.1929","0.57826","0.59727","-0.19594"
"-2.4724","-4.0836","1.1844","0.493","0.24862","-0.85621","0.56692","0.61383","-0.20617"
"-1.4907","-3.8193","1.2017","0.12118","0.14767","-0.4078","0.55909","0.62405","-0.20966"
"-0.92989","-4.4345","1.2021","-0.16393","0.055626","0.104","0.55668","0.62822","-0.2073"
"-1.6201","-4.8932","0.86047","-0.64736","-0.18751","0.56337","0.55855","0.62433","-0.19695"
"-3.1206","-4.9972","-1.5707","-0.92934","-0.23336","0.8864","0.56609","0.61612","-0.18089"
"-3.9837","-5.5357","-2.3712","-1.0714","-0.32907","1.1705","0.5753","0.60392","-0.159"
"-4.8158","-5.657","-2.8936","-1.1573","-0.36379","1.4476","0.59038","0.58271","-0.13862"
"-6.3462","-6.7688","-3.3557","-1.2237","-0.47919","1.6667","0.61017","0.55482","-0.11676"
"-7.5159","-7.195","-3.81","-1.06","-0.60296","1.7456","0.62825","0.52305","-0.10617"
"-8.1169","-7.7942","-4.6809","-1.064","-0.58429","1.7279","0.65024","0.48886","-0.10072"
"-8.6718","-8.0677","-4.7732","-0.87046","-0.53766","1.7741","0.66841","0.45218","-0.10065"
"-9.1819","-8.694","-4.4249","-0.55419","-0.55871","1.7327","0.68679","0.41374","-0.11062"
"-9.0054","-10.592","-4.5241","-0.62333","-0.39121","1.3478","0.7013","0.3825","-0.12139"
"-7.4318","-9.8196","-5.3098","-0.061535","-0.21251","0.84308","0.71283","0.35716","-0.13183"
"-7.3851","-9.1347","-4.7169","-0.027307","0.005176","0.48442","0.71995","0.34149","-0.13914"
"-7.4442","-8.5662","-4.8434","0.20225","0.19545","0.10434","0.72342","0.33413","-0.13664"
"-7.2023","-7.4479","-4.5375","0.66292","0.24851","-0.18602","0.72531","0.32899","-0.13356"
"-7.8018","-7.745","-4.2197","0.70661","0.28131","-0.48229","0.72257","0.33251","-0.13212"
