"AccX","AccY","AccZ","GyroX","GyroY","GyroZ","MagX","MagY","MagZ"
"0.002385338993377191","-0.012004712868446551","0.004549694747910028","0.00044737163274425175","-0.0037715212168474236","0.0007716906112576765","-0.282070332651883","0.35572303000807437","-0.9225613684877487"
"0.0025326503513455833","-0.012782712207384484","0.004247961406338794","-6.818077775043345e-05","-0.010091979409572129","0.0007226675624679324","-0.28466166841074225","0.35652778255065587","-0.9209106803573686"
"0.0025316875320124587","-0.012624827161298282","0.0036277661806451453","0.00036775224087140306","-0.00461659440699135","0.00033363812083446795","-0.28056568608222293","0.35722699377617745","-0.9225286815940777"
"0.0024594760820279495","-0.012471096984845926","0.004244037427221851","-3.4869641610160605e-05","-0.0035625863839401327","-0.0026557971018985422","-0.28087218816122794","0.354865506806963","-0.9225286815940777"
"0.0026029361626638266","-0.012469019550029003","0.003785344920972902","0.001317986095508666","-0.0069383318801112094","-0.0009666861138954773","-0.2786709459574657","0.3558945346482967","-0.9233131670421791"
"0.0024575504433617004","-0.012236346850533547","0.003933630026550005","0.0002612721351744615","-0.0060884720958571505","0.002466868808269373","-0.28326847714253844","0.35592091997756165","-0.9232314498080019"
"0.0023160160013920555","-0.012626904596115205","0.004083360808643875","0.001131212673219275","-0.0029302773019916047","0.0012027051392308724","-0.2804542307807668","0.3565145898860233","-0.9212375492940774"
"0.0023882274513765647","-0.012782712207384484","0.004086665212110775","0.0005316122226943636","-0.00419345948765562","0.0011929976048170616","-0.28315702184108216","0.3557098373434419","-0.9219403175080016"
"0.00238726463204344","-0.012471096984845926","0.004240939548971632","0.0011526819892865607","-0.002932670599046671","-0.0013661511550237886","-0.2802034563524899","0.3570686818005876","-0.9227248029561032"
"0.002458513262694825","-0.012315289373576647","0.004243624376788487","0.0005326712472537366","-0.00587953726294986","0.000754945114393853","-0.2838257536498199","0.3553404427337324","-0.9206818721016722"
"0.002313127543392682","-0.011848905257177274","0.0045463903444431285","0.0013011379775186435","-0.008829275883319127","0.0005226923535434316","-0.28549758317166446","0.35573622267270694","-0.9222181561042043"
"0.002458513262694825","-0.012315289373576647","0.004243624376788487","0.0005345004714926532","-0.0033514975836832816","0.0007729040530594028","-0.2863056341072229","0.356422241233596","-0.9224633078067359"
"0.002172555920756178","-0.01262898203093213","0.0045420533148928235","0.0005907250480993565","-0.0037674526118538117","0.004195052622288026","-0.28285051976207715","0.3565673605445533","-0.9223652471257233"
"0.002171593101423054","-0.012472135702254387","0.0042316459142209785","0.001976410546558741","-0.004194416806477648","0.0022656801575431456","-0.2843273025063733","0.3562243512641088","-0.9219730044016724"
"0.00274832188196597","-0.01285749986079374","0.003482578953318261","0.0009315384062975238","-0.0035652190107007056","0.004622669513216388","-0.28354711539617916","0.3567124798555106","-0.9213192665282547"
"0.0024614017206941985","-0.01309328871251458","0.003625700928478333","0.0006102688649677825","-0.0029302773019916047","0.002270776613110396","-0.27959045219448037","0.3546412315082108","-0.9207799327826848"
"0.0025278362546799437","-0.011847866539768812","0.004245689628955301","-0.0005728541177715614","-0.004613243791114257","-9.058113304906046e-05","-0.2805099584314949","0.3552085160874076","-0.9227248029561032"
"0.0021648533660911648","-0.0109930021126047","0.004847917160797683","-0.0017793719157770506","-0.006921578800725745","0.0003258720933034194","-0.28438303015710137","0.35590772731292913","-0.9226267422750905"
"0.0023102390853933083","-0.011381482423369435","0.004545151193143041","-0.002623221939677315","-0.007553648552968767","-0.0009659580488144416","-0.2843551663317376","0.3565673605445533","-0.9222018126573689"
"0.0027492847012990946","-0.012937481101245303","0.004257668091522809","0.0006249989338390592","-0.0037772651297795835","0.000338249199681028","-0.2848009875375626","0.3552612867459375","-0.9234929449573691"
"0.002460438901361074","-0.012627943313523668","0.004864232652915498","-3.5928666169533415e-05","-0.006933066626590064","-0.0028941170717575954","-0.2848009875375626","0.357926205001699","-0.9222018126573689"
"0.002171593101423054","-0.012240501720167395","0.005160802864069703","-0.0008029512720352956","-0.0029242940593539393","-0.0030778321605389636","-0.2870300935666886","0.3572401864408099","-0.9214173272092674"
"0.0024575504433617004","-0.012159481762307368","0.004243417851571807","0.0008339155969153369","-0.005040925974854613","-0.004377671018548218","-0.2842994386810092","0.35737211308713474","-0.9206982155485076"
"0.0024575504433617004","-0.012004712868446551","0.0047078930638878285","0.001329442815741881","-0.0029341065772797116","-0.0022204141834391315","-0.28265547298452876","0.3566597091969807","-0.9197993259725581"
"0.0025326503513455833","-0.012626904596115205","0.0045575427061439145","0.0017561334382091912","-0.004621859660512496","-0.002021167039595666","-0.28204246882651907","0.35771512236757935","-0.9214990444434447"
"0.0023160160013920555","-0.012550039507889028","0.004548042546176579","0.0008248657506806962","-0.002931713280224645","-0.0030795309790613806","-0.2840208004273683","0.3577547003614768","-0.9223979340193941"
"0.002239953274075048","-0.011694136363316454","0.00454287941575955","-4.209026360588452e-05","-0.005244595554240759","-0.0022354608617805383","-0.2866678638369556","0.35675205784940806","-0.9220383781890145"
"0.002456587624028576","-0.012002635433629628","0.0036230161006614785","0.000814082955167082","-0.0025114503173549953","-0.0017896423438262807","-0.28346352392008684","0.3568444065018354","-0.9200281342282545"
"0.0026038989819969684","-0.012780634772567561","0.0036310705841120453","0.00030748411594709433","-0.005883127208532459","-0.002673998728924437","-0.2792282224647473","0.35830879227604107","-0.9192763356738238"
"0.0027473590626328455","-0.012780634772567561","0.003637266340612482","0.0008404622941914599","0.0008537646717737898","-0.004339568945974011","-0.2846338045853783","0.35768873703831433","-0.9200608211219253"
"0.0021706302820899293","-0.012471096984845926","0.003611863738960693","0.0004989750112736918","-0.0020875974089027455","-0.00478684359409034","-0.28455021310928597","0.35832198494067347","-0.9183447592042034"
"0.0026029361626638266","-0.012779596055159098","0.0030112884088517597","0.0009828529599471348","-0.00462090234169047","-0.001380469768284159","-0.28095577963731994","0.35840114092846836","-0.9218912871674952"
"0.002458513262694825","-0.012624827161298282","0.003314673952156445","0.0008238067261213234","-0.007147266713018501","-0.0031105950891855746","-0.283853617475184","0.3585198749101608","-0.9196195480573683"
"0.002315053182058931","-0.012624827161298282","0.002998483845417526","0.000400774552131847","-0.00082441522323873","-0.0030659404308820454","-0.2814851923192376","0.36080220589158024","-0.9174131827345829"
"0.0027512103399653606","-0.013713403005366312","0.0030197559427356893","0.0008030113347736387","-0.004621620330806989","-0.00010028866746287121","-0.2847173960614703","0.35956209541612694","-0.9202896293776215"
"0.0027512103399653606","-0.013558634111505494","0.00348423115505171","0.002016653479814909","-0.0020981279159450372","-0.001794253422672841","-0.28533040021948014","0.35966763673318675","-0.9179525164801527"
"0.0024556248046954344","-0.011846827822360347","0.0039325974004665995","0.001575617888316094","-0.008412124206621064","-0.001402069032354888","-0.2846338045853783","0.3585198749101608","-0.9194234266953429"
"0.002383413354710942","-0.01169205892849953","0.004239080822021501","0.00022651687463504393","-0.00461587641787483","-0.003516127339322517","-0.28399293660200453","0.36041961861723826","-0.9206982155485076"
"0.0022428417320744212","-0.01231632809098511","0.0042343307420378345","-0.0014005299484014043","-0.0029238153999429257","-0.003078802913980345","-0.28237683473088804","0.3600370313428963","-0.9197993259725581"
"0.002460438901361074","-0.012859577295610663","0.003935075703066773","-0.0018380996413422715","-0.00861292182954113","-0.002265554218463352","-0.2832127494918102","0.36206870169629857","-0.9196032046105328"
"0.0027473590626328455","-0.012780634772567561","0.003637266340612482","-0.0034583109422227673","-0.005872836031195674","-0.002674726794005473","-0.2842994386810092","0.36138268313540944","-0.9189984970776213"
"0.002460438901361074","-0.012781673489976022","0.003934869177850093","-0.0011408763814351732","-0.006298603577291975","-0.003533600901267377","-0.2885904677870771","0.36328242684248696","-0.9193417094611657"
"0.0025326503513455833","-0.012937481101245303","0.003938380106533672","0.00030209271819028725","-0.002932431269341164","-0.0017971656829969844","-0.28616631498040246","0.3642059133667608","-0.9171353441383805"
"0.002460438901361074","-0.012937481101245303","0.003625287878044972","-0.00020700926998821792","-0.002508817690594422","-0.002222598378682239","-0.28739232329642167","0.36225339900115333","-0.9190802143117985"
"0.0025345759900118323","-0.013403865217644678","0.0034745244698676943","-3.5351016409875595e-05","-0.0037746325030190114","-0.0022340047316184667","-0.2903737526103779","0.3642322986960257","-0.9168084752016714"
"0.0027502475206322187","-0.013247018888966936","0.003483611579401667","0.0013489866326103072","-0.0029398504902118697","-0.003940346593206045","-0.2874201871217859","0.3642586840252907","-0.918442819885216"
"0.0025326503513455833","-0.012937481101245303","0.003938380106533672","0.0005585692114783995","-0.003354369540149361","-0.0018000779433211276","-0.28900842516753816","0.3656175284824364","-0.9184918502257223"
"0.002533613170678708","-0.013247018888966936","0.003009429681901629","0.0025407743617445197","-0.0025193481976367137","-0.0030807444208631072","-0.2861941788057664","0.36556475782390657","-0.9169228793295195"
"0.0027502475206322187","-0.013402826500236215","0.0034838181046183483","0.003049587525043196","-0.0035764675068595177","-0.002660408180745102","-0.28900842516753816","0.3637837480985214","-0.9193417094611657"
"0.002462364540027323","-0.013403865217644678","0.0033165326791065753","0.0006364556540722745","-0.0067246104530937845","-0.000969841062579966","-0.28889696986608177","0.3642454913606583","-0.9176256475434439"
"0.0026038989819969684","-0.012935403666428378","0.0030117014592851224","0.000833241672195736","-0.0058859991649985385","-0.003960004350394012","-0.287866008327611","0.36462807863500024","-0.9193253660143301"
"0.0024594760820279495","-0.012625865878706745","0.0036246683023949274","0.0004962793123952882","-0.0037763078109575576","-0.004585654943364113","-0.28753164242324203","0.36464127129963275","-0.9197339521852163"
"0.0027492847012990946","-0.013247018888966936","0.0033285111416740854","0.0011393960448144284","-0.0029364998743347777","0.0005564260356314239","-0.2859434043774898","0.36510301456176963","-0.9188350626092668"
"0.0027512103399653606","-0.013558634111505494","0.0033293372425408103","0.00019657536209277554","-0.005883127208532459","0.0005340987064796593","-0.2870300935666886","0.3645885006411028","-0.9182303550763553"
"0.002607750259329466","-0.01348280774068778","0.003942717136083977","0.0007905918649409935","-0.003775829151546544","0.0011922695397360258","-0.28482885136292674","0.36528771186662434","-0.9194561135890139"
"0.0023198672787245705","-0.013406981369870064","0.004240113448104907","0.0018388336288002155","-0.00419848541147126","-0.0013794990148427782","-0.2870300935666886","0.365248133872727","-0.9177890820117983"
"0.0027512103399653606","-0.013403865217644678","0.0039487063673677315","-6.28856549535693e-05","-0.007988510627874321","0.0005202654699399789","-0.2895378378494555","0.3653536751897868","-0.920861650016862"
"0.0026087130786625907","-0.013716519157591698","0.0042531245367558234","-0.0009110680520512681","-0.00545640234361413","-0.00010562781139046696","-0.29012297818210125","0.36644866635428286","-0.9176746778839502"
"0.0027502475206322187","-0.013248057606375397","0.0039482933169343705","0.0004691297736913664","-0.0020926233327183846","-0.0011504012026768453","-0.28599913202821786","0.36545921650684665","-0.9194888004826847"
"0.0026067874399963416","-0.013248057606375397","0.0037872036479230336","-0.0002266493618165868","-0.005037336029272013","-0.0001005313558232163","-0.28622204263113055","0.36439061067161554","-0.917560273756102"
"0.0027512103399653606","-0.013403865217644678","0.0039487063673677315","-0.0007464378705487633","-0.006300996874347042","0.0005319145112365519","-0.2871972765188733","0.36615842773236823","-0.9197339521852163"
"0.0027512103399653606","-0.013404903935053138","0.004103806805095314","0.00045959855265701084","-0.005462624915957302","-0.000318465503413267","-0.2885904677870771","0.3669499876103172","-0.9176256475434439"
"0.002535538809344957","-0.013560711546322417","0.0037849318705395407","0.00013823273636732653","-0.00040439159007458613","-0.0022107066490253207","-0.2862777702818586","0.36592095976898353","-0.9177727385649628"
"0.002462364540027323","-0.013248057606375397","0.003316119628673214","0.0002614646850943475","-0.005456881003025143","0.0028944856991977353","-0.2875873700739702","0.3676623915004712","-0.9190965577586341"
"0.002462364540027323","-0.013248057606375397","0.003471220066400795","-0.00042882677769685563","-0.002715598556152154","0.0037703479916838065","-0.287475914772514","0.36478639061059004","-0.9190965577586341"
"0.0027492847012990946","-0.013245980171558473","0.003018516791435602","-0.0002559169496392543","-0.006301236204052549","0.003316278069477811","-0.2857762214253052","0.36353308747050417","-0.9173314655004057"
"0.002533613170678708","-0.01309224999510612","0.00347390489421765","0.0014726036811771","-0.004619705693162937","0.0014021949714346825","-0.2839093451259122","0.36505024390323965","-0.9172824351598994"
"0.0027492847012990946","-0.013247018888966936","0.0033285111416740854","0.0002989156445121687","-0.004620423682279456","-0.001382896651887612","-0.2877824168515187","0.36607927174457333","-0.9171843744788867"
"0.002245730190073812","-0.013016423624288403","0.003616200768510998","-0.0007766682079708608","-0.006714079946051494","0.003957460717510008","-0.2832406133171745","0.3654196385129492","-0.9183284157573679"
"0.0025365016286780814","-0.013715480440183236","0.003320250133006837","0.00043986218586869886","-0.002088076068313759","0.002487740007259066","-0.2805378222568588","0.36539325318368426","-0.9182630419700263"
"0.0027492847012990946","-0.013401787782827754","0.0027091420168471624","0.001175306604873162","-0.004618987704046416","0.006325371049398788","-0.2846338045853783","0.36503705123860725","-0.9166613841801523"
"0.0025326503513455833","-0.013091211277697657","0.002699022281229784","0.0015554964216880102","-0.002091905343601865","0.002062064623213466","-0.27920035863938336","0.3649710879154448","-0.9156480904763548"
"0.002460438901361074","-0.013091211277697657","0.0026959244029795652","0.001129094624100529","-0.00777813981673399","0.0013793822655622276","-0.2843551663317376","0.3647336199520601","-0.9181486378421782"
"0.0024594760820279495","-0.012935403666428378","0.002850611790273786","0.0016485943079528767","-0.008833583818018246","0.0005163824561744548","-0.27908890333792696","0.3639156747448462","-0.9201425383561026"
"0.002530724712679334","-0.012779596055159098","0.0026984027055797395","0.002303937960284776","-0.005885041846176511","0.004178307125424202","-0.28201460500115494","0.36421910603139324","-0.9180832640548363"
"0.00231697882072518","-0.012937481101245303","0.003309097771306053","-0.0007361364498348641","-0.009667647841708867","-0.0009885280663265517","-0.2890362889929021","0.3628074909157176","-0.9204203769523052"
"0.0024575504433617004","-0.012469019550029003","0.00300447307670128","0.0013135574473512885","-0.006936656572172663","-0.00032453271242189886","-0.281290145541689","0.3633879681595469","-0.918916779843444"
"0.002458513262694825","-0.012546923355663642","0.003469361339450665","-0.0008230727386633796","-0.0046125258019977374","-0.0005228091028239828","-0.28282265593671324","0.3645621153118378","-0.9183284157573679"
"0.002460438901361074","-0.013091211277697657","0.0028508183154904664","0.0002676262825306985","-0.007564418389716564","0.0020234771739185684","-0.281318009367053","0.3637309774399914","-0.9191292446523048"
"0.0024614017206941985","-0.01309328871251458","0.003625700928478333","0.0010549629049444306","-0.007988989287285335","-0.00012043180137152838","-0.28243256238161607","0.3639024820802137","-0.918737001928254"
"0.0024614017206941985","-0.01309224999510612","0.0034708070159674325","0.0009679303411559722","-0.005039250666916066","0.0003285416652672173","-0.28661213618622755","0.36222701367188836","-0.9186389412472414"
"0.002604861801330093","-0.01301434618947148","0.003321695809523606","0.001285830258887709","-0.008411166887799037","0.002874585253649423","-0.28237683473088804","0.3620291237024011","-0.918508193672558"
"0.0025326503513455833","-0.01301434618947148","0.00347369836900097","0.000871462831293101","-0.004617791055518883","0.0016167314819798995","-0.28095577963731994","0.36173888508048657","-0.9204040335054698"
"0.002315053182058931","-0.012472135702254387","0.004237841670721414","0.00017616507058486276","-0.010932026675900415","0.002003334040009911","-0.2839372089512763","0.36072304990378534","-0.9196195480573683"
"0.0021706302820899293","-0.012547962073072105","0.003302075913938892","0.000755258954641918","-0.010088389463989529","0.004578500231633549","-0.28170810292215026","0.36206870169629857","-0.9199954473345835"
"0.0027492847012990946","-0.01301434618947148","0.003792779828773425","0.00017510604602548986","-0.012622891045304787","0.002202338495493031","-0.2837978898244559","0.3634935094766067","-0.9217768830396472"
"0.0027502475206322187","-0.01324909632378386","0.004258287667172854","-0.00039050934363954763","-0.009463020943500695","-0.0014166303339756044","-0.2870300935666886","0.36191038972070877","-0.9192926791206594"
"0.002607750259329466","-0.013404903935053138","0.004252504961105779","-7.376472542712657e-05","-0.009671237787291467","0.0015793574744867283","-0.28371429834836365","0.3609473252025376","-0.9217605395928117"
"0.0025316875320124587","-0.012624827161298282","0.0036277661806451453","-4.834813600217847e-05","-0.006090865392912217","-0.0011758834805130987","-0.2836864345229995","0.36311092220226465","-0.9202732859307861"
"0.0024594760820279495","-0.012626904596115205","0.004244450477655213","-0.0002484075027637015","-0.006719105869867133","0.002032213954890998","-0.2822096517787034","0.3619631603792387","-0.9219403175080016"
"0.0024614017206941985","-0.01309328871251458","0.003935695278716817","0.0004286942905153126","-0.009249060186777763","0.0028687607330011365","-0.2838257536498199","0.36167292175732413","-0.9232641367016728"
"0.002605824620663217","-0.01309328871251458","0.004251678860239055","0.0008561551126621664","-0.00925217147294935","0.0028687607330011365","-0.2836307068722715","0.3582560216175111","-0.9219730044016724"
"0.0026038989819969684","-0.012625865878706745","0.003940651883917165","0.0007949242381384279","-0.005039968656032586","0.00033096854887067006","-0.28112296258950453","0.3624776742999056","-0.9223325602320522"
"0.0023160160013920555","-0.012472135702254387","0.004547836020959897","0.0007697001986333657","-0.0025064243935393558","0.0033480702446830406","-0.28254401768307247","0.36160695843416174","-0.9213029230814193"
"0.00231697882072518","-0.012783750924792945","0.004548455596609941","0.0009280725077395762","-0.006087514777035124","0.00460616670471291","-0.28728086799496555","0.3615278024463668","-0.9233621973826854"
"0.0026038989819969684","-0.012472135702254387","0.004870015358982571","0.0006144086882453308","-0.0054597529594912235","0.0011857169540067036","-0.28034277547931025","0.3597995633795116","-0.9235910056383819"
"0.0026038989819969684","-0.012625865878706745","0.00425064623415565","0.0006125794640064142","-0.004617073066402363","0.001618915677223007","-0.2872251403442372","0.3601689579892211","-0.9229209243181283"
"0.0025316875320124587","-0.012625865878706745","0.00409265444339453","-0.0005721801930519603","-0.006720302518394665","-0.00010951082515599114","-0.2829619750635337","0.3587969208674429","-0.9232314498080019"
"0.0025316875320124587","-0.012549000790480566","0.0042473418306887495","0.0006063215916101201","-0.007986595990230267","0.002023719862278914","-0.28460594076001405","0.36018215065385356","-0.9241303393839514"
"0.002605824620663217","-0.012860616013019124","0.004716154072555077","0.0011407438942536302","-0.004619705693162937","-9.494952353527523e-05","-0.2847173960614703","0.35956209541612694","-0.9258464013016732"
"0.002533613170678708","-0.012938519818653765","0.004248374456772156","0.0013160605963098062","-0.005252014775111465","-0.0005283909351119236","-0.2857762214253052","0.35919270080641735","-0.9246042993421795"
"0.002315053182058931","-0.01231736680839357","0.0047023168830374355","0.0014764546795748193","-0.006934263275117597","0.00031980488429478776","-0.2827669282859849","0.3568707918311004","-0.9266472301966102"
"0.0026038989819969684","-0.012550039507889028","0.004870221884199253","0.0014885853245276356","-0.005885041846176511","-0.000958920086364429","-0.28106723493877633","0.3584539115869983","-0.9233948842763563"
"0.0026038989819969684","-0.012626904596115205","0.004715534496905033","0.001983246068714693","-0.007149660010073567","0.0011730971592687498","-0.27950686071838804","0.35993149002583635","-0.9224959947004067"
"0.00238726463204344","-0.01231736680839357","0.004860515199015236","0.0007821196684660109","-0.004614679769347298","0.001620857184105769","-0.2807607328597715","0.35865180155648557","-0.9246696731295212"
"0.002171593101423054","-0.01247317441966285","0.0046965341769703624","0.0008554811879425655","-0.007139608162442288","0.002887205048387377","-0.28120655406559686","0.35950932475759695","-0.9251109461940782"
"0.0027473590626328455","-0.012471096984845926","0.004721317202972106","0.0011584584868831395","-0.0016730783589652555","-0.001999810463885283","-0.28354711539617916","0.35737211308713474","-0.9266635736434456"
"0.002533613170678708","-0.012783750924792945","0.004867743581599079","0.0011188894783465727","-0.006302672182285588","0.002249177349039667","-0.28371429834836365","0.35779427835537414","-0.9234602580636981"
"0.002460438901361074","-0.01247317441966285","0.005173813952720619","0.0008678043828152676","-0.0044050269473234855","0.00162182793754715","-0.28427157485564525","0.3581900582943487","-0.9256175930459771"
"0.002315053182058931","-0.012239463002758931","0.004857210795548337","0.0012777431622524981","-0.0035606717462960793","0.0037703479916838065","-0.2807885966851356","0.35949613209296444","-0.9246696731295212"
"0.002315053182058931","-0.012239463002758931","0.0047021103578207555","0.0012983460036802969","-0.006090386733501204","0.0011825620053222152","-0.2788659927350143","0.35815048030045116","-0.9252580372155973"
"0.0027473590626328455","-0.012470058267437464","0.004566423290461205","-0.000969025577936945","-0.0016613512033954293","0.0065656325261406025","-0.2822375156040676","0.3588101135320753","-0.9238525007877489"
"0.002315053182058931","-0.012472135702254387","0.004237841670721414","-0.00022886368589527552","-0.004612047142586724","-9.349339337320365e-05","-0.27945113306766","0.3562375439287412","-0.92334585393585"
"0.002171593101423054","-0.01247317441966285","0.004541640264459461","0.0008152382546863978","-0.0058785799441278324","-0.002243226889311587","-0.28234897090552374","0.35784704901390413","-0.9255685627054708"
"0.002600047704664453","-0.011847866539768812","0.004558781857444001","0.0001832894176206436","-0.008407576942216437","0.0011675153269808084","-0.2807885966851356","0.358335177605306","-0.9250946027472429"
"0.002313127543392682","-0.012004712868446551","0.004236809044638008","-0.00039850016531481537","-0.0033474289786896683","-0.0002963808626218474","-0.28000840957494144","0.3569895258127928","-0.925503188918129"
"0.002528799074013085","-0.012003674151038089","0.004246102679388662","0.0009786168617096436","-0.005461667597135275","-0.0013819258984462308","-0.2832406133171745","0.3584143335931009","-0.927300968070028"
"0.0025297618933462097","-0.012314250656168186","0.0039369344300169045","0.0005500007400434738","-0.002932431269341164","-0.0009375635106540451","-0.278002214148728","0.35944336143443456","-0.9233131670421791"
"0.002313127543392682","-0.012003674151038089","0.0039268146943995256","-0.00039195346803869234","-0.0025052277450118223","-0.0009329524318074854","-0.2808164605104996","0.35935101278200715","-0.9251109461940782"
"0.002243804551407563","-0.01255107822529749","0.004544944667926361","-0.00039079816851937655","-0.004189869542073021","-0.0011613221788923822","-0.279144630988655","0.3589288475137677","-0.9231333891269893"
"0.0023140903627258064","-0.012160520479715829","0.004237222095071371","0.0018449952262365665","-0.006726525090737838","-0.002676182924167545","-0.27953472454375217","0.3582692142821436","-0.9235583187447107"
"0.0023140903627258064","-0.012160520479715829","0.004237222095071371","0.0002924652221959887","-0.005456881003025143","-0.0011686028297027405","-0.2809836434626842","0.35891565484913523","-0.9221037519763561"
"0.0023160160013920555","-0.012626904596115205","0.004083360808643875","0.00045921345281723893","-0.0058785799441278324","-0.000531303195436067","-0.28307343036498983","0.3601689579892211","-0.9240976524902806"
"0.0024594760820279495","-0.012472135702254387","0.004708925689971234","-0.00021066771846605132","-0.003982849346809782","-0.0022303644062132877","-0.28048209460613077","0.360195343318486","-0.9253070675561038"
"0.0027473590626328455","-0.012547962073072105","0.004256635465439404","-0.00023906883164923195","-0.001035025364084568","0.0014301041328743883","-0.27920035863938336","0.3591267374832549","-0.9237707835535717"
