"AccX","AccY","AccZ","GyroX","GyroY","GyroZ","MagX","MagY","MagZ"
"-3.6039","9.0349","-1.0236","-0.007323","0.017317","-0.000909","-0.30147","-0.68673","-0.41108"
"-3.6039","9.02","-1.0386","-0.004007","0.006756","0.009603","-0.30222","-0.68703","-0.40956"
"-3.5966","9.0501","-1.0685","-0.006357","0.001464","-0.00543","-0.30207","-0.68805","-0.40955"
"-3.5891","9.0501","-1.0533","0.00769","0.001448","0.002513","-0.30302","-0.68679","-0.40908"
"-3.604","9.05","-1.0386","-0.010652","0.004991","-0.012463","-0.30282","-0.68597","-0.41063"
"-3.6037","9.0122","-0.97856","-0.005292","0.024351","-0.012333","-0.30306","-0.687","-0.41012"
"-3.6189","9.0349","-1.0239","2.5e-05","0.010266","-0.012428","-0.30173","-0.68649","-0.41083"
"-3.6041","9.0501","-1.0686","0.013953","-0.010879","-0.00022","-0.30239","-0.6855","-0.40983"
"-3.5742","9.0502","-1.068","0.00503","0.013767","0.003479","-0.30305","-0.68601","-0.4096"
"-3.5891","9.0426","-1.0608","0.010543","0.00672","-0.005394","-0.30304","-0.68677","-0.4096"
"-3.604","9.035","-1.0386","-0.001704","0.013781","-0.014169","-0.30197","-0.68664","-0.41007"
"-3.6188","9.0348","-1.0089","0.015993","0.015529","-0.010624","-0.30126","-0.6873","-0.40952"
"-3.589","9.035","-1.0383","-0.007261","0.006744","-0.004513","-0.30268","-0.68672","-0.41087"
"-3.5594","9.0652","-1.0602","0.0068","-0.009129","0.001558","-0.30335","-0.6866","-0.41065"
"-3.619","9.05","-1.0539","0.001744","0.017307","-0.008847","-0.30279","-0.68688","-0.4101"
"-3.6338","9.0347","-1.0092","0.005268","0.015552","-0.007977","-0.30251","-0.68701","-0.40996"
"-3.6338","9.0348","-1.0167","-0.005521","-0.000277","-0.003677","-0.30168","-0.68816","-0.41005"
"-3.6264","9.0423","-1.0166","0.003433","0.015552","-0.005329","-0.30224","-0.68738","-0.41034"
"-3.5743","9.0651","-1.053","0.01422","0.015508","-0.010622","-0.30254","-0.68661","-0.41061"
"-3.5892","9.0502","-1.0833","0.007025","-0.017925","-0.009095","-0.30212","-0.686","-0.41008"
"-3.6189","9.0349","-1.0389","-0.008103","0.022604","-0.005284","-0.3013","-0.68527","-0.40965"
"-3.6336","9.0121","-0.97916","-0.005625","0.00853","0.001676","-0.30258","-0.68707","-0.40854"
"-3.5741","9.05","-1.0155","0.014105","0.019034","-0.005304","-0.30237","-0.68801","-0.41034"
"-3.6041","9.0501","-1.0686","0.005345","0.007611","-0.011563","-0.30214","-0.68673","-0.41098"
"-3.619","9.0499","-1.0464","-0.003436","0.008507","-0.01685","-0.30251","-0.68576","-0.40971"
"-3.589","9.035","-1.0233","-0.005255","0.008496","-0.015089","-0.30084","-0.68756","-0.40937"
"-3.5818","9.0652","-1.0682","6.2e-05","0.006725","-0.014214","-0.30235","-0.68753","-0.40969"
"-3.619","9.0424","-1.0464","0.001332","0.000594","0.008683","-0.30395","-0.68729","-0.40874"
"-3.6336","9.0047","-1.0092","0.001657","0.012036","-0.005361","-0.30279","-0.686","-0.40998"
"-3.5666","9.05","-1.0079","0.017725","0.013742","-0.008871","-0.30314","-0.68754","-0.40908"
"-3.5744","9.0653","-1.0981","-0.001831","0.012008","-0.008003","-0.30311","-0.68807","-0.40857"
"-3.604","9.035","-1.0536","-0.003434","0.027865","-0.014954","-0.30287","-0.68643","-0.40856"
"-3.6263","9.0348","-1.009","0.008637","-0.003817","-0.001053","-0.30239","-0.68724","-0.4106"
"-3.5966","9.0501","-1.0535","0.003315","-0.002066","-0.001042","-0.30153","-0.68755","-0.40953"
"-3.5892","9.0502","-1.0683","0.014195","0.018156","-0.008842","-0.30259","-0.68756","-0.40893"
"-3.604","9.035","-1.0386","-0.008973","0.03316","-0.005211","-0.30285","-0.68606","-0.40817"
"-3.589","9.0425","-1.0233","-0.007138","0.026107","-0.008788","-0.3026","-0.68805","-0.40932"
"-3.5892","9.0502","-1.0683","0.004647","-0.002965","-0.021344","-0.30345","-0.68576","-0.40923"
"-3.604","9.05","-1.0386","-2.4e-05","0.004098","-0.010704","-0.30316","-0.68703","-0.40935"
"-3.6039","9.02","-1.0386","0.005339","0.00497","-0.011586","-0.30346","-0.68575","-0.40962"
"-3.604","9.0425","-1.0536","0.001609","0.015543","-0.002685","-0.3021","-0.68602","-0.40969"
"-3.6041","9.05","-1.0536","-0.008628","0.022587","-0.022048","-0.30386","-0.68625","-0.40951"
"-3.574","9.0202","-1.053","0.005213","0.00672","-0.005399","-0.30246","-0.68781","-0.40905"
"-3.6041","9.05","-1.0536","0.001604","0.00322","-0.003652","-0.30285","-0.68806","-0.40881"
"-3.604","9.035","-1.0461","-0.003833","0.008511","0.001676","-0.30189","-0.68646","-0.408"
"-3.5966","9.05","-1.046","0.008796","0.006726","-0.007156","-0.30151","-0.68695","-0.40875"
"-3.5891","9.0501","-1.0533","-0.010734","0.020831","-0.00706","-0.30221","-0.68642","-0.40904"
"-3.6263","9.0199","-1.0315","-0.005459","0.00852","-0.005384","-0.3022","-0.68742","-0.4093"
"-3.5592","9.0501","-1.0152","0.007919","-0.002974","-0.008988","-0.30274","-0.68617","-0.40881"
"-3.5966","9.05","-1.0385","0.013415","-0.002087","-0.016041","-0.30289","-0.68641","-0.40908"
"-3.6336","9.0048","-1.0167","0.008853","0.015546","-0.008866","-0.30287","-0.68667","-0.40882"
"-3.6038","9.0199","-1.0086","0.006808","0.008499","0.002558","-0.30151","-0.68769","-0.40901"
"-3.5147","9.0805","-1.0819","-0.000141","-0.000344","-0.00544","-0.30231","-0.68619","-0.40828"
"-3.6492","9.0652","-1.1371","-0.002869","0.007647","-0.000974","-0.30247","-0.68667","-0.40906"
"-3.6487","9.0197","-1.0245","-0.008935","0.022618","-0.007932","-0.30233","-0.68581","-0.40853"
"-3.5591","9.05","-0.99271","0.001656","-0.000323","-0.007205","-0.30149","-0.68683","-0.40836"
"-3.5743","9.0504","-1.113","0.00708","0.008474","-0.008913","-0.30233","-0.68693","-0.40892"
"-3.6338","9.0349","-1.0392","0.005335","0.015549","-0.010626","-0.30285","-0.68681","-0.40843"
"-3.6039","9.0424","-1.0086","0.013012","0.012013","0.00347","-0.30287","-0.68555","-0.40843"
"-3.5894","9.0653","-1.1134","0.012062","0.017287","0.007918","-0.30124","-0.68407","-0.40784"
"-3.6041","9.0501","-1.0611","-0.017103","0.001484","-0.001901","-0.30233","-0.68768","-0.40918"
"-3.6039","9.0348","-0.99359","0.005212","-0.002947","-0.007224","-0.30233","-0.68593","-0.40853"
"-3.5965","9.035","-1.046","0.01784","0.004949","-0.01423","-0.30205","-0.68581","-0.40839"
"-3.5892","9.0502","-1.0683","-0.012583","0.010271","-0.004487","-0.3026","-0.68605","-0.40868"
"-3.6041","9.0426","-1.0686","0.001897","0.024337","-0.014978","-0.303","-0.68568","-0.40818"
"-3.6189","9.0349","-1.0389","-0.0055","0.007637","-0.003623","-0.30193","-0.68617","-0.4089"
"-3.6041","9.05","-1.0536","0.008445","0.001458","0.00869","-0.30122","-0.68622","-0.40809"
"-3.6039","9.0349","-1.0086","0.005209","0.014659","-0.005337","-0.30257","-0.68595","-0.4079"
"-3.604","9.0425","-1.0536","0.007122","-0.002074","-0.012514","-0.30246","-0.68581","-0.40841"
"-3.6041","9.0426","-1.0686","0.005427","0.020812","-0.01412","-0.30273","-0.68593","-0.4083"
"-3.619","9.05","-1.0689","-0.012423","0.003239","-0.012477","-0.3031","-0.68459","-0.40702"
"-3.5742","9.0502","-1.068","0.00091","0.013763","-0.011521","-0.30101","-0.68504","-0.40912"
"-3.604","9.0351","-1.0686","-0.009176","-0.000285","0.001614","-0.30181","-0.68479","-0.40877"
"-3.6039","9.02","-1.0386","-0.005582","0.002351","-0.000134","-0.30122","-0.68534","-0.40771"
"-3.5751","9.0495","-1.0527","-0.006244","0.015429","-0.012286","-0.30211","-0.68547","-0.40824"
"-3.62","9.0645","-1.0837","0.001537","-0.00392","-0.003593","-0.30222","-0.68524","-0.40747"
"-3.6197","9.0343","-1.0386","-0.010913","0.018984","-0.001674","-0.30035","-0.68449","-0.4079"
"-3.5975","9.0495","-1.0607","-7.9e-05","0.003109","-0.010606","-0.30154","-0.68637","-0.40795"
"-3.5677","9.0647","-1.0826","-0.002272","0.004869","0.00882","-0.3031","-0.68493","-0.4088"
"-3.6347","9.0343","-1.0464","0.006998","0.00488","-0.00883","-0.30202","-0.68331","-0.4085"
"-3.6196","9.0192","-1.0236","0.01063","0.006627","-0.012349","-0.30161","-0.68593","-0.40615"
"-3.59","9.0496","-1.0756","0.008868","0.011015","-0.012316","-0.30232","-0.68465","-0.40644"
"-3.5975","9.0495","-1.0682","-0.005538","-0.003923","-0.005362","-0.30226","-0.68521","-0.40838"
"-3.6049","9.0419","-1.0533","-0.00016","0.022481","-0.005178","-0.30341","-0.68401","-0.40947"
"-3.59","9.042","-1.0605","0.001586","0.003106","-0.005313","-0.30127","-0.68562","-0.40768"
"-3.5974","9.042","-1.0532","-0.002965","-0.012726","-0.001894","-0.30232","-0.68465","-0.40631"
"-3.59","9.0495","-1.068","-0.005389","0.015435","-0.010521","-0.3005","-0.68385","-0.40804"
"-3.6047","9.0119","-1.0383","-0.001833","0.014558","-0.010533","-0.30198","-0.68459","-0.40811"
"-3.6049","9.0419","-1.0458","-0.011017","0.013698","0.002702","-0.30098","-0.68502","-0.40703"
"-3.6047","9.0194","-1.0383","0.013423","0.010134","-0.01762","-0.30183","-0.68398","-0.40746"
"-3.605","9.0495","-1.0759","0.005129","-0.005694","-0.005373","-0.3026","-0.68551","-0.40697"
"-3.5601","9.0422","-1.0749","0.003471","0.018051","-0.00874","-0.30233","-0.68476","-0.4067"
"-3.5751","9.0496","-1.0678","0.005288","0.020696","-0.010484","-0.30098","-0.68602","-0.40741"
"-3.6198","9.0493","-1.0386","0.014061","0.024232","-0.005162","-0.30071","-0.68565","-0.40714"
"-3.62","9.0496","-1.1137","-0.012649","0.01018","-0.0035","-0.30091","-0.68521","-0.40534"
"-3.575","9.0346","-1.0752","-0.005455","-0.003937","-0.008895","-0.30232","-0.68465","-0.40631"
"-3.59","9.0495","-1.053","-0.005421","-0.010972","-0.011587","-0.30123","-0.68541","-0.40665"
"-3.6273","9.0343","-1.0538","0.008567","0.015443","0.001832","-0.3015","-0.68529","-0.4064"
"-3.6048","9.0418","-1.0233","-0.005298","0.008399","-0.015863","-0.30262","-0.68462","-0.40697"
"-3.5751","9.0496","-1.0678","0.014051","0.013646","-0.005238","-0.3008","-0.68544","-0.40611"
"-3.5976","9.0496","-1.0982","-0.009101","0.008405","-0.003512","-0.30179","-0.68489","-0.40681"
"-3.6273","9.0344","-1.0613","-0.009127","-0.002142","-0.003586","-0.30184","-0.68336","-0.40733"
"-3.5973","9.0343","-1.0157","0.021163","0.020692","-0.005188","-0.3021","-0.68323","-0.40708"
"-3.6049","9.0345","-1.0683","0.013205","-0.007467","-0.008917","-0.30158","-0.68571","-0.40537"
"-3.6198","9.0344","-1.0536","0.001678","0.011921","-0.008782","-0.30234","-0.68426","-0.4067"
"-3.605","9.0644","-1.0534","-0.007089","0.020725","-0.01401","-0.30232","-0.68453","-0.40618"
"-3.5749","9.0196","-1.0677","0.014781","0.027734","0.003678","-0.30072","-0.68402","-0.40689"
"-3.605","9.0496","-1.0984","0.004406","0.008386","-0.011453","-0.3003","-0.68391","-0.40661"
"-3.59","9.0347","-1.113","0.015817","0.018931","-0.003441","-0.30183","-0.68511","-0.40435"
"-3.59","9.0347","-1.113","-0.005632","-0.002165","-6e-05","-0.30239","-0.68495","-0.4049"
"-3.6048","9.0196","-1.0833","0.006898","0.004867","-0.003541","-0.30187","-0.68395","-0.405"
"-3.6048","9.0344","-1.0458","-0.014191","0.001367","-0.015916","-0.30156","-0.68449","-0.40421"
"-3.5898","9.0195","-1.0605","0.003538","0.022465","-0.01136","-0.30246","-0.68315","-0.40581"
"-3.605","9.0346","-1.1058","0.001732","0.011911","-0.01055","-0.30245","-0.68428","-0.40606"
"-3.6199","9.042","-1.0761","0.001573","-0.007443","-0.005387","-0.30062","-0.68536","-0.40494"
"-3.5752","9.0497","-1.0978","-0.00379","0.017191","-0.001687","-0.301","-0.68413","-0.40367"
"-3.6051","9.0646","-1.0984","0.000648","0.015439","-0.001695","-0.30134","-0.68331","-0.40524"
"-3.6198","9.0344","-1.0611","-0.015034","0.025141","-0.01575","-0.30073","-0.68463","-0.40391"
"-3.6197","9.0194","-1.0536","-0.010712","0.008414","-0.011457","-0.30027","-0.68381","-0.40583"
"-3.6048","9.0343","-1.0158","0.014088","-0.002184","-0.008878","-0.30066","-0.68407","-0.40546"
"-3.5677","9.0498","-1.1126","0.001467","-0.007466","-9.5e-05","-0.30012","-0.68495","-0.40582"
"-3.6275","9.0496","-1.1138","0.014107","-0.005698","-0.008903","-0.30013","-0.68369","-0.4057"
"-3.6047","9.0119","-1.0458","0.012639","0.024216","-0.021053","-0.30098","-0.68378","-0.40651"
"-3.5601","9.0347","-1.0749","0.003224","0.006614","0.001767","-0.30063","-0.6846","-0.40494"
"-3.5975","9.0347","-1.1132","-0.000106","-0.002174","-0.008884","-0.30191","-0.68379","-0.40591"
