"AccX","AccY","AccZ","GyroX","GyroY","GyroZ","MagX","MagY","MagZ"
"0.016601366446993726","0.001754761154484326","-0.06752471452079568","-0.011273141990714752","0.13946132428623553","0.6924653097704764","0.7305289449040172","-0.4314304979536391","0.5620446551505404"
"-0.20821309656077103","-0.02167932681086032","-0.04973669760804382","0.08392353840090891","0.09007085296083141","1.086664013479295","0.5383242775426181","-0.6741095638681583","0.5687781552467441"
"-0.15320722805923956","0.010848212706863682","-0.10693798687223612","-0.10987699321472066","0.3976310642103521","0.8391946924352254","0.22881290539845764","-0.8221048757153495","0.6178248391999193"
"-0.07729855183552618","-0.08781134805540157","-0.045036183676379675","-0.004100561200002421","0.20387691452334614","0.9110061782613902","-0.22522812890916724","-1.0033193171071322","0.6046520210505493"
"-0.013858385975804285","-0.07058733598828701","0.04350117671485131","-0.04920547620825089","0.22614415032368343","0.3465373209343316","-0.5725228482470156","-1.017501431587051","0.6663485328543598"
"0.06432639515142072","-0.08816243453946167","0.04009144538744468","-0.27701032367574274","-0.15020181158549903","-0.14178320956719234","-0.6815818607220104","-0.997989480595609","0.6443339099670135"
"0.13863967974014307","-0.033224670805913896","0.10887260355095196","-0.010881302903746804","-0.23873944284062334","-0.24127087600713149","-0.5656404833820886","-0.9843878433595195","0.5993240573821937"
"0.11293432918432496","0.19403838842627338","-0.10593633957133229","0.2302143027838742","0.06336405112334609","-0.13467486749267943","-0.47382917880745695","-0.9403639214809246","0.6551859586657497"
"0.06913952899772137","-0.006713486389741835","0.06615286248044547","-0.2502747672995758","-0.13278578891578124","-0.09285966300518979","-0.35329027028246235","-0.9882137161029395","0.5433640954176249"
"-0.17450479170800337","0.26585531004732643","-0.24414921033089262","-0.1231533101908583","0.41352255665599263","0.07510980495697704","-0.3043335291177802","-1.0229236167510014","0.5066894007188829"
"0.08732699363661915","-0.33413902660249784","-0.004250964310526001","0.31645741190080023","0.06456309294793433","-0.04629504730574324","-0.43972385656182733","-1.070601906732794","0.48650524387710653"
"-0.20518984385475308","0.040462980867778935","-0.03347283679439922","0.20789776706909027","-0.14967528623338444","-0.7415802115097117","-0.1703085291165728","-0.9470394097849608","0.6850290925872751"
"-0.040027815450189505","-0.03067669700295695","-0.1712313520772609","-0.1283521580277795","-0.2876416815667939","-0.7429392663276452","0.15341339396326698","-0.8552448492721462","0.6273694121518198"
"-0.052640748714150004","-0.026015971991188585","-0.11631423170956266","-0.025580563787841768","-0.11689429647014073","-1.0442368656962953","0.44868635134638457","-0.7031334260596204","0.5949603570771295"
"-0.051851236860986055","0.1038330525232201","0.0019747383463288113","-0.002098619682947989","-0.2794087396973657","-0.8999343666349989","0.6670830145500151","-0.49705081183560806","0.5747762002353531"
"0.008094857638818849","0.09867270443798157","-0.05291718594493432","0.15501393157240853","-0.21979649664977322","-0.5623305885586968","0.7730212785842341","-0.3381451663373538","0.5625022716619328"
"0.10810193895136176","0.22874193704298415","-0.09692151386319786","0.15678539083535944","-0.06481136595778697","-0.09772799151371586","0.787231829519913","-0.2226038094860702","0.5676668008619339"
"0.09392307632400393","0.14699487699703578","-0.07287371763283879","0.04786760315266156","0.06472583714767884","0.44630650587227116","0.809104932430713","-0.27058553075440983","0.5581876016973749"
"0.009973318157749149","-0.0025734704148353995","-0.09739652186156462","-0.07287756335903205","0.16792480616213956","0.6493638569731568","0.7597859615362976","-0.40747261898105047","0.5542488310100323"
"-0.15106976913969813","-0.029093691672461074","-0.03780573584037082","0.1254960288538893","-0.009701154000479797","0.8323508806734888","0.6012129313893388","-0.6493997030115185","0.5621263723847175"
"-0.15146452506628016","-0.02595884253372318","-0.12243150862765985","-0.047055656352724025","0.442577182904498","0.9858269997558364","0.3782187370006353","-0.8044926684309851","0.6223029436328315"
"-0.08815915391319598","-0.07767242743140534","-0.07295219721517764","0.04652167921265863","0.3571364780386296","0.7922344947084161","-0.03998941788878754","-0.9229891821599449","0.6757460147847415"
"-0.021272094840880294","-0.05702376406859203","0.02409317600245211","-0.08848951086338652","0.17454466581645306","0.37107311416523814","-0.3749961902410778","-0.9530552648573729","0.7201348163898142"
"0.06482994966264602","-0.1137647412232296","-0.00786639475374711","-0.2833355885439969","-0.05011891533673469","-0.07890993605254379","-0.5926126663345146","-0.9825936409695017","0.6735723363556272"
"0.13712997902580032","-0.021209826542235556","0.09700566460045014","-0.09425638096397132","-0.3104258695310255","-0.09826433279007891","-0.5143989085375521","-0.9880422114627171","0.5875404322138368"
"0.11517384695317778","0.1326605767602621","-0.10415609220354034","0.18280851250794833","0.0525487417315013","-0.0697387429150961","-0.4078197765199598","-0.9610104416307601","0.6063517395214357"
"0.07965062765746617","0.014114978956476232","0.0365020371215254","-0.1924135163738418","-0.10277863043935945","-0.11140833438637861","-0.36362774949253485","-0.9932928919864453","0.5463059158480053"
"-0.1367237610761095","0.21522822355889537","-0.2468959957127526","-0.05289665817246492","0.36977308648937984","-0.06187321315630597","-0.31503323805758543","-1.0118813564536133","0.5280829726264825"
"0.07723202549265175","-0.2964959077198401","0.005924120064923422","0.24283595003239955","0.06325874605292317","-0.03713113481910592","-0.38419125261122306","-1.0476202849430092","0.5218234324885065"
"-0.13759029847592358","-0.03232929639981977","-0.027611651144986725","0.20275668420813484","-0.07423616976063824","-0.7339355281588358","-0.14776669439703471","-0.9370525626581715","0.6898830962974027"
"-0.04687346090872072","-0.033224670805913896","-0.1963179701475264","-0.06561361763133382","-0.2789540132569031","-0.7973014590449852","0.14349387213365575","-0.8510363892543841","0.6294286864530863"
"-0.04289701706290724","-0.00724634842028277","-0.13142981231845977","0.02955803127070465","-0.15253766951124376","-0.9731049072790973","0.411348825358522","-0.6848483928789996","0.6213550237163755"
"-0.05563511684017419","0.11108641618650926","-0.010600169046956173","0.0005163045040634291","-0.26586267836569016","-0.8246524372558969","0.607120062366523","-0.4902038188913496","0.6108135005075126"
"0.01040466121898992","0.09612057576539079","-0.05684116506187714","0.0843490737238569","-0.2515746949469441","-0.4781905340269924","0.7735228274407873","-0.3051766974207795","0.5963005197176362"
"0.09300810911173356","0.20476833925568447","-0.06281180907613067","0.06121612634875644","-0.06777187441490404","-0.24004287290378443","0.7903804417860535","-0.21336630571040585","0.5898775451113057"
"0.09428028229659395","0.1496228320404443","-0.06325790354416205","-0.04778927154748957","0.0007360144566645259","0.37517454745507317","0.7445165852367837","-0.26999186084594806","0.5574848334834507"
"0.027936638455895012","0.011269724231217504","-0.04970365357337482","-0.08120534739410026","0.07123081854334916","0.5723103025635343","0.7611791528045017","-0.408937004755256","0.5244710708758488"
"-0.23158072177575745","-0.03203845552545045","-0.024071808931070932","0.04993173829383916","0.10123558372271592","1.1278482282298872","0.6457950519718612","-0.6435025819207986","0.5030448120745784"
"-0.1508772052730728","-0.0005360262181374602","-0.1342385552653241","-0.03385250834614305","0.4915919065922567","0.9622862288023453","0.41221260394480846","-0.8306009517386685","0.5608842704252236"
"-0.10372794252985562","-0.09833251668571177","-0.05947849207889608","-0.033679213418245674","0.2965621295749004","0.9405413517154093","-0.026586917888666538","-0.9840184487498098","0.5708374295480104"
"-0.02769409979283577","-0.047763598372154555","-0.021448938679219678","-0.04840350579192581","0.24137269948507056","0.5572393553860931","-0.44699631498185144","-1.0381743370661514","0.5950584177581423"
"0.03067200818130812","-0.08398679055744501","0.060634508690723773","-0.2645234613711376","-0.1843062946201944","-0.029321423383195197","-0.6247117931539306","-1.0551005257896267","0.5406183963492699"
"0.12495897983574501","-0.11612262974043802","0.12318273581479239","-0.11304443939684486","-0.29094443150278543","-0.25724705076866045","-0.5841420634238355","-1.0562482876126529","0.44777127487709845"
"0.11344462343088213","0.14608080567758933","-0.04662023208832449","0.25053794682783836","0.028730649439481046","-0.17836847988924148","-0.5221450519887653","-1.0130423109412718","0.4864235266429293"
"0.07312463821753301","0.02604454452091985","-0.09380711359564535","-0.2044960238466864","0.2261728698883442","-0.0328598196770292","-0.49873943868294124","-1.0165515597335124","0.49750438359736204"
"0.0034896927684735708","0.13147643891461558","-0.17621480555577826","0.16895454577215277","0.21366071288445737","0.05458079655537082","-0.4443771153976281","-1.0466572204248379","0.46905044265684964"
"0.004936810226163098","-0.3030709889154036","0.024050631807815775","0.027549735606293983","0.023283505342150047","0.2606741790441758","-0.524959298350537","-1.1057471653137279","0.39202377772139035"
"-0.06906644653729242","-0.05846654254894556","-0.017165605685251564","0.39228357035189526","0.14543978032979127","-0.5342272764307148","-0.38017886175879606","-1.035100446206783","0.5964639541859906"
"-0.08861167899976556","-0.010415475233499906","-0.12518035926168664","-0.06459791680393533","-0.48769738239978955","-0.6238520879062222","-0.07754985447956235","-0.9346514976950597","0.635132549398657"
"-0.03938272649699458","-0.029975562752245197","-0.2445003031992507","-0.12098712359214113","-0.1601172412846389","-0.8791359741534096","0.2343299428205447","-0.8277117581841547","0.568369569075858"
"-0.05194751879429873","0.05962939448871718","-0.019007810618047877","0.063788593278433","-0.12887992812191296","-1.0080763000048503","0.5090393970849741","-0.6379616627751559","0.6089830344619426"
"-0.015957332122020627","0.09210177811205185","0.02276046877920831","0.06944089617668567","-0.19693332988272444","-0.6724140288113103","0.6583337733856953","-0.4521957520851669","0.6014487054708018"
"0.05309125635316462","0.15225078708385278","-0.1009859301274839","0.16810732612465448","-0.09078103230231185","-0.48884455304614965","0.7106899012447948","-0.3085144415727976","0.5860695219986466"
"0.10587012373717394","0.21979858015612752","-0.07251642900798032","0.0904798631730262","-0.023494682247649154","0.23958941429737893","0.6956991631989219","-0.24530838531857294","0.5750213519378847"
"0.051469868596179164","0.06384658716707232","0.0010906038937165872","0.05142688842175372","0.058780887262894044","0.5808529328476878","0.7198013721388478","-0.34920061929937424","0.5553274985011717"
"-0.13030175612415404","0.012615901992584076","-0.1975364689259455","-0.1225178954552346","0.28248954289111033","1.1089913426310598","0.7006310602883632","-0.5206392961984871","0.5576482679518051"
"-0.11537805646068937","0.010623953618376767","-0.10856127507535036","0.030444723651779543","0.38023179462001977","0.7135791971205148","0.4617823492675003","-0.7246638547398323","0.5977223995923201"
"-0.13018621780417886","-0.03310417958653232","-0.16364568086856038","-0.10691172444847673","0.26063874077835464","0.9317560330709106","0.06720271828681468","-0.8922634662308926","0.6116960466366267"
"-0.03825622787723627","-0.07900717930127885","-0.0777724957725169","0.024777979509535444","0.1791709090238963","0.7185300396715583","-0.38341106550102905","-1.0185700374222821","0.6180536474556153"
"0.003378005725830871","-0.0683021576896709","0.02905391170713456","-0.13886538365355347","0.1466747216102055","0.14786534850488492","-0.6664796673746811","-1.0228972314217364","0.6524892899379011"
"0.09046771030127862","-0.11882329500243888","0.0030112884088517597","-0.24883064290043103","-0.2071455284166925","-0.22481660517572233","-0.6920307952335392","-1.003675519052209","0.5954996908226993"
"0.11354860791885983","0.028162489316773582","0.056524656878767864","-0.050099870586121205","-0.2631582526934652","-0.23024554379664594","-0.5485599584339098","-1.0040449136619187","0.5116578085568587"
"0.10350784650334745","0.13306567654956222","-0.250923237438036","0.15825839772248712","0.1020110119685574","-0.03284768525901194","-0.4878446829655873","-0.9723693258793277","0.5703144392492762"
"0.09208601703639807","-0.021459118720266405","-0.06205179627874385","0.032210406417133894","0.029281107762146305","-0.01858634645168262","-0.3750797817171701","-1.009981612746536","0.5219541800631899"
"-0.2866347312439453","0.4351662476266097","-0.3021827962183102","-0.22069909960509076","0.6609176732382005","0.17536193973200376","-0.33481655406607963","-1.016103009136008","0.5712296722720612"
"0.1039502619869192","-0.34664518420037865","0.01663575695331061","0.2864003694066003","-0.07704590050328611","0.051998592401297165","-0.5187178014689839","-1.0785966615000784","0.5112001920454662"
"-0.15275470297266996","-0.0005151479982273768","-0.07358003387388849","0.2786309801392014","-0.15224568727052568","-0.7283536958708946","-0.2690857900322236","-0.9720263165988832","0.7026309848290511"
"-0.03716824203080304","-0.013651079960858601","-0.18602062284380172","-0.11120558766193386","-0.3504657292622854","-0.684427102648401","0.06625534822443575","-0.8793874255495895","0.669797000136639"
"-0.05433531074045308","-0.03937076171178272","-0.1408391011904553","-0.006513789345933285","-0.015364652151588791","-0.9654359550921868","0.355844085233282","-0.7611019944547496","0.6168769192834632"
"-0.05886056160614883","0.11081634966030918","0.0016575156135064852","0.010921124524941601","-0.3805494732444693","-0.9817688817434235","0.619937422033998","-0.5472884787561022","0.6149483925568805"
"-0.010738851336473619","0.0783117657973122","-0.003171250477716681","0.020741170439126076","-0.20380687902487496","-0.6646480012802618","0.7532936902264677","-0.38004506921011894","0.6057633754353596"
"0.06369286003022331","0.16580604926428008","-0.07948665507097084","0.1253997538939463","-0.10482968601555129","-0.4177854011370552","0.7881791995822915","-0.24541392663563283","0.5982290464442188"
"0.10927369007977702","0.19137927186061107","-0.11104577343202521","-0.04391709265858271","-0.05433351145070652","0.21455853681136797","0.8109718087301057","-0.23854054836210933","0.5779468289214298"
"0.05594505285655232","0.022806862358744233","-0.033646317976411426","-0.08124963387567403","0.08771345536159107","0.4934365854513222","0.8029191631998878","-0.35863337451159943","0.5329206328897745"
"-0.21592527941911635","-0.03741070196201519","-0.0675453670424638","-0.08368442761263212","0.3716159252217809","1.271859501258769","0.7339004677730706","-0.5741355512832046","0.5227223220644559"
"-0.12229109927253946","0.012230849449267263","-0.10886073663953812","0.00624168009691281","0.49611523802633206","0.8308947505114173","0.5736556081042671","-0.7369726108419387","0.5754626250024418"
"-0.1474110556738165","-0.04110126491428018","-0.09991199900074164","-0.0005905687104010706","0.2368015021098938","1.03870879347507","0.15873538460780548","-0.914519491465891","0.6106500660391581"
"-0.06435825999830258","-0.05303820537232387","-0.03277891206635038","0.022730211111548153","0.18605881794837725","0.7234566133865671","-0.25690929834812226","-0.987026376286016","0.6510347231695465"
"0.007844524612205894","-0.06999526706546375","0.02832033413748293","-0.2076057050528448","-0.015544867419835285","0.2156457806657148","-0.628139043673712","-1.0256808836591904","0.6422582922189117"
"0.11793713843925158","-0.17776012075856482","0.004477410922071608","-0.22679330456948174","-0.21645066736679044","-0.28365154437422563","-0.654748996896405","-1.0368814559321682","0.5397358502201558"
"0.12132337403385837","0.04674825990638165","0.013434822619968671","0.16111776403279376","-0.1830139142104586","-0.1709058128086245","-0.5235382432569692","-1.0049420148569275","0.5251248087492667"
"0.10254290896768783","0.1906210081524339","-0.35552825968706453","0.029363555851619823","0.3762110555675083","-0.1467801629067014","-0.4748880041712918","-0.94969113537609","0.6245093089556167"
"0.08016958727802147","-0.049612515359216666","-0.034150239505113554","-0.09314921892462699","-0.238945266387359","0.04769815465597903","-0.4887641892026018","-1.0202850838245048","0.5131287187720489"
"-0.19675554649656266","0.3947082045670202","-0.3660816982594739","-0.12552167420545574","0.5060713537754081","0.08360875133626831","-0.36964633577117517","-1.039256135566015","0.49300993571761426"
"0.07846539705838712","-0.35077927948605686","0.040182316482784405","0.3075230956180912","0.04961695283904502","0.0730445270104388","-0.5158756912818482","-1.0976204839001187","0.449552710582162"
"-0.15216738317946266","-0.010247203013329084","-0.03789454168354373","0.29253308435496844","-0.26390017478053573","-0.6756175151678678","-0.3454048077044288","-1.0066042906006203","0.6322561027556185"
"-0.044630091862535394","-0.03701806678161661","-0.20272025186464365","-0.16758420420454592","-0.3673145405299525","-0.7388621018738446","-0.0015652027117259665","-0.9192028874104223","0.5762307670037079"
"-0.04304143996287625","-0.02791786356608225","-0.15556228388765814","0.0494041515133516","-0.1542847763614422","-0.9423805608593863","0.2811968970829214","-0.7776719812331478","0.5680100132454782"
"-0.052939222707419284","0.0823586088206796","0.024286483605265707","0.0634400779234394","-0.3002782900175442","-0.9466276071654285","0.5949157068570574","-0.5236340310700608","0.6504136721897995"
"-0.004413128317830837","0.08820243296068603","-0.026161844123884684","0.04069126763851144","-0.2749332742043916","-0.651203066117134","0.7074019698518339","-0.35483388709744446","0.6216818926530845"
"0.08616390788220203","0.21910263949245812","-0.07677291372377988","0.1054997196737313","-0.08539850722546766","-0.37713510077922285","0.7113029054028045","-0.2429073203554611","0.5701183178872508"
"0.09899068332004998","0.18038964167908458","-0.0925617665390577","-0.00726511913332834","-0.03758521865935226","0.37289327686782764","0.7334825103926095","-0.26479395098074987","0.5494928879809173"
"0.04101076218042322","0.04313456204234283","0.012460643172883442","-0.04525338910259135","0.09565920158441134","0.5844447205807977","0.7468850103927299","-0.40793436224318735","0.5221503014252153"
"-0.2583374710433499","-0.018997358462211796","-0.16826978047005245","-0.07374596349771778","0.3835106115854606","1.4420568483689054","0.6369064916807207","-0.6337663954220265","0.5445244801429415"
"-0.15640378824522042","0.011822425764260059","-0.13233439276752343","0.05154434387288417","0.49132864391619935","0.8610851825383686","0.35160878377794247","-0.8095190736559612","0.6049625465404227"
"-0.14682373588060918","-0.09556329607475245","-0.13106839318926766","-0.07901509205539735","0.3380140345686495","0.8626626568806128","-0.04040737526924864","-0.9744405742266273","0.5800224466695315"
"-0.019962660547827915","-0.06588298484536324","-0.132328197011023","0.07215681279667727","0.24618322656575392","0.7040415445589457","-0.4797084459592769","-1.0179367895199232","0.6224500346543506"
"0.025112689351834246","-0.06299327301502235","0.06809626476941558","-0.22760201423300283","-0.11145193896691986","-0.02355029417418473","-0.7070215332794123","-1.0073562724846719","0.6310957180303018"
"0.15105427222147946","-0.1999055759069717","-0.061915489635734254","-0.14497884360993302","-0.21022330842950787","-0.32444745774826517","-0.7654798388932446","-0.9992032057417977","0.5517155967505382"
"0.11455090284464477","0.14319317128206538","0.03323274294146198","0.13170576377021184","-0.0907355596582656","-0.17641969235566898","-0.6141235395155816","-0.980443236634407","0.5349308768505346"
"0.05968945724308227","0.10349235321324463","-0.2031746073413423","-0.293434831842016","0.46969323853839967","-0.04282460375280591","-0.5292781912819688","-0.9919604328585645","0.5253536170049629"
"0.07708856541201585","-0.07120952771595566","0.07996113846775059","-0.012908853560146073","-0.16341520462652032","-0.19227452293702535","-0.45089725053282204","-1.0554171497408065","0.3764321294403744"
"-0.27264496633361357","-0.037913441187710735","0.35425760500288805","-0.43344750608709925","0.559058950574577","0.33073830867585463","-0.46204278067845256","-1.0958262815101008","0.3404602029555566"
"0.06843570806520571","-0.25309829439430354","-0.08875757204778999","0.4741846787753927","0.08862530153957134","-0.20163986676274925","-0.5520986642551475","-1.1028975497531117","0.4257893388834228"
"-0.1836612035660388","0.03167958646182544","-0.10999869058345152","0.09678394755009286","-0.444713767290798","-0.6506206140523052","-0.23840771830637542","-0.9779366303542353","0.6246727434239712"
"-0.040364802216783874","-0.0023661424201064114","-0.22492171265787278","-0.1554054217717583","-0.1772101688519227","-0.8108192007162166","0.09136065487746879","-0.902435010662537","0.5423017713733208"
"-0.038602842837161894","0.02025992727319575","-0.0891582309681515","0.03400978541846828","-0.05319908864660507","-1.0786743440292887","0.38181317047260116","-0.7295979113123808","0.554641073734083"
"-0.04216527436973088","0.10068885492780603","0.03509353514375961","0.03694809719592819","-0.24248973932591222","-0.7739791076158049","0.5854977338839995","-0.5273015918378909","0.5681571042669973"
"0.011494572704089417","0.10395977604705245","-0.07819380721454654","0.13400673531284918","-0.18524446706578043","-0.5826193354835613","0.7190211850286535","-0.34620588442780076","0.5288838015214193"
"0.12331352159543137","0.2339666856075473","-0.10588470826716201","0.12791253034845823","-0.002067972373051202","0.00015234991565655275","0.7284948856524397","-0.24782818426337716","0.545897329677119"
"0.09197683332402151","0.1189287326203963","-0.06917898150641211","0.010121464707655166","0.01285758538116454","0.4991154930834015","0.7036403534276834","-0.31818466474840745","0.5403078708593964"
"0.030697041483969425","0.007832919941839748","-0.039660332286168005","-0.02648169741290811","0.1646029098497075","0.6357005022857183","0.7001852390825382","-0.4665097932114106","0.5155148620100242"
"-0.2561133583838271","-0.01956449816723197","-0.04142405763662546","0.02641080283016847","0.2756447133136206","1.1706827238308268","0.5239744074801188","-0.7048088944679458","0.5294885090543309"
"-0.17425445868139045","0.02953359629594324","-0.07069694184901894","-0.0959845164949479","0.4192186036470505","0.9666788881245947","0.21401721413013297","-0.9048756536195462","0.5754953118961127"
"-0.09659345127138637","-0.10264007777860307","0.000957808179390575","-0.012455398498814614","0.19360249026594634","0.8830727479856498","-0.22419716737069648","-1.0323299866339615","0.5621590592783883"
"-0.019798981261196374","-0.07068082055504857","0.001719060128077483","0.021029995318955032","0.280383441482652","0.43150251589120986","-0.6083278638398536","-1.0359183914139969","0.6317657993505551"
"0.047801526936966224","-0.0844822587612813","0.07159893244432874","-0.27147451347902113","-0.2612675480199628","-0.20504963822560027","-0.6916964293291702","-1.026221782909122","0.606433456755613"
"0.1327318203120773","-0.05241497492724676","0.14662128265594193","-0.01698128436573434","-0.31870667734155506","-0.2862240409938855","-0.5658633939850013","-1.008015905716296","0.5574194596961087"
"0.11150261683596548","0.2055889260083693","-0.04745252871154973","0.31573534970122785","0.01132084934210644","-0.13493697092185233","-0.4570551559382829","-0.9356541402071282","0.629641151261947"
"0.05866020337596976","0.022406956156486416","0.014505655868460698","-0.14212910479562066","-0.0012475501425744592","0.08252393436552498","-0.4659158524040592","-0.9679233978981809","0.5966764189948514"
"0.04686181526783451","0.06897785116487391","-0.11533117167816015","0.14515537567424686","0.10444499507355987","-0.06556207623355406","-0.3772810239209323","-0.9993747103820197","0.5612765131492744"
"-0.03839102258387402","-0.3509246999232415","0.31545151678849037","-0.22740946431311687","-0.2679209138330472","0.5180937228624015","-0.4896836954396163","-1.0759713212382145","0.46831498754925466"
"-0.04250226113632525","-0.09134194852676343","-0.07359036013472257","0.45886733264846374","0.3344719549271513","-0.518112769303789","-0.4452687578092785","-1.035100446206783","0.6434677072847347"
"-0.047123793935333676","0.036645694391681596","-0.1193109126036069","-0.1787424720619379","-0.4945900779183806","-0.6613959772516351","-0.09170467776451309","-0.9423560138404296","0.6535025836416989"
"-0.07277330096983044","-0.09438123566392284","-0.283760746890347","-0.023676245080169526","-0.014667724049153471","-0.811571534633287","0.18292118502382385","-0.862619548801704","0.5979512078480161"
