"AccX","AccY","AccZ","GyroX","GyroY","GyroZ","MagX","MagY","MagZ"
"0.026031218995637168","0.1062678061286547","-0.1153063886521584","-0.012733633133049838","0.09688217637955021","-0.04541408855768992","0.3511908263974814","0.9606198960720392","-0.3782428716332031"
"0.1139038882527836","0.06867246824678613","0.09795774584935046","0.04589685472262866","-0.25052164424271495","0.2345439232858008","0.3552868087260005","0.9433902760620169","-0.4495002998357499"
"0.11292277535232742","-0.15923978936568983","-0.017312238589095214","0.24246047768862192","0.44987673892245034","0.2626399547629724","0.5020455769185909","0.8966222799398655","-0.4517066651585351"
"0.06702999183884066","-0.003910611334748353","0.032152616058219306","0.07671061840198046","-0.3252882442429875","-0.18877495678084658","0.5084821205776926","0.8730601809062515","-0.4729531460446156"
"0.08753332581970821","-0.05723254626769287","-0.061192651377350055","-0.1465481254570037","0.43759912502996","-0.02942577937814366","0.44319717774966144","0.9069125583532021","-0.43542859211043033"
"-0.10338132756993","0.26641621744789584","-0.09892893896933914","-0.04313245173504738","0.20109590334535907","-0.43875367547088634","0.3531412941729665","0.9585750330540045","-0.3274637823154708"
"-0.040576622470071745","0.03351707755739447","-0.11718576812395734","-0.4052870803037762","-0.043889163102396996","0.7580882424078369","0.42742625259359424","0.9845777750446277","-0.17291361166075456"
"-0.08194896921452842","-0.035910794024196266","-0.14034757117475405","0.12342611721511511","-0.14369204359571858","0.7408330999872883","0.739891190226347","0.8847093037767336","-0.13819195885884847"
"-0.03360581049823405","-0.010321990666738338","-0.18165674501532794","0.1408037474848239","0.1993799093568765","0.9147921166827764","1.0416842827446582","0.7220965195167518","-0.22100093528468878"
"-0.06733337173766427","-0.05781838288606536","0.05445527420762223","-0.05372462282797459","0.040646875476656366","0.999684505131551","1.2678270893995025","0.5329269013515822","-0.21484109017240902"
"-0.007811880563768262","-0.05663320632301038","0.09210275595643841","-0.16499440778207963","-0.0021254115023727933","0.6738753813680289","1.447827401251436","0.3630317662144698","-0.24304987941038966"
"0.05191276548941747","-0.1569026751966507","-0.02028207120497089","-0.27652894887602786","-0.08552295867233112","0.5190887451398171","1.550644916844878","0.23208137707244642","-0.23492718633317275"
"0.14540155991669226","-0.2474684460404403","0.025972761999467717","-0.008920952169387741","-0.04004074143785032","-0.20936706415614256","1.5645768295269165","0.2118966001847479","-0.24045127136355365"
"0.0619973351845871","-0.03941750399516351","0.029928132949346088","0.15676613584337085","-0.07420266360186731","-0.5084052348899782","1.4542360810851735","0.3046410325511013","-0.1980073399318991"
"-0.2173983929988003","-0.08001369647007839","0.001380771823153675","0.14733118976895831","-0.2505455772132656","-0.9247128482262508","1.3110160187138207","0.4516600872154887","-0.21927179860949855"
"-0.13759992666925486","-0.009614624111575812","-0.020651751342830243","0.024843446482296676","-0.1768990402347641","-0.9011720772727598","1.160913591477541","0.6002886469650389","-0.28387580960533504"
"-0.12426487890544934","0.008775763733500579","-0.10368934521384084","-0.02581547469010265","-0.19749575469066502","-0.9191795536103787","0.8697923440736711","0.7704344427301684","-0.3204361001762288"
"-0.0609402513657026","0.04965666865007486","-0.05951979712223232","-0.1258297540772733","0.02498274625124715","-0.7070699266686145","0.6232532172523232","0.8793530819359457","-0.32471808324711576"
"0.0044178506056077715","0.0669139196742602","-0.08853245956160746","-0.03284932326353714","0.17228778669352549","-0.3032850327261578","0.40867389812357074","0.9488388465552321","-0.32300202132939393"
"0.07924046662155416","0.11435837602316413","0.16236056941921628","0.04612021262969638","-0.27328189923639584","-0.011100623976832829","0.3399895686011226","0.9564114360542771","-0.34807286877496885"
"0.1114997283779661","-0.11400364622717582","0.031477278599671775","0.0819008014925068","0.09925393376112099","0.3295005980380938","0.4428349480199283","0.9079547788591683","-0.4116325335180203"
"0.08923193168721044","-0.07897394034420806","-0.05723562822573823","-0.07872145342757124","0.21022154501632703","-0.18964863487808953","0.4601662473963838","0.8961209586838312","-0.37796503303700046"
"0.06651777195361722","0.016904870043863943","0.10969250866117632","-0.009094439647205","0.003071633052703771","-0.008219670451174154","0.3677419386637426","0.929155390923568","-0.3404895094433216"
"-0.24005353190727285","0.13714783596481733","0.031345102460995804","0.21834360022290414","0.2648270106247207","-0.42023655357654244","0.35180383055549075","0.9276514271554648","-0.2801821906205241"
"0.0028927447819349886","0.1800676392824614","-0.18949437698837954","-0.4169459779528717","-0.056889552705517384","0.5142107090968772","0.3463146569587679","0.9686938068271186","-0.22066426027987857"
"-0.1222718428858769","-0.14845790266585573","-0.09180794949817131","-0.03366669767345309","-0.04192426622018753","0.8482226994400693","0.6095163513478332","0.8956856007509594","-0.06828123067554252"
"-0.025999537766532677","-0.024423618204016555","-0.21432696904212714","0.20588562040628186","0.12335443510563905","0.9877685066385985","0.8779285810799816","0.7584291179146091","-0.18664864438126377"
"-0.07124241823015888","-0.022170640145062776","0.04632850693121696","0.021342888938769733","0.08631337658437725","0.9628686808671739","1.1232695634106744","0.5817265678271357","-0.2068328012230402"
"-0.01735342015505442","-0.06907392472415808","0.09060957863983334","-0.11024283806250401","-0.019713272900644334","0.6665219240495672","1.4090966839953698","0.3748523937251743","-0.21183062726531976"
"0.03643351907073863","-0.09257594480801612","-0.024354748477924182","-0.25700438699959044","-0.07687597641237641","0.5722617648914653","1.5272393035390537","0.24404712389410826","-0.2148116719681052"
"0.12198771937371584","-0.27151475404633235","0.0027793605905187713","-0.025022169020172454","-0.05234468159794639","0.1368812733156581","1.4971463721458516","0.18179093949342234","-0.23456763050279292"
"0.09661107533822719","-0.09722628264569988","0.06496740773669538","0.23468146092522874","-0.07075152924846163","-0.3915265205476972","1.460644760918911","0.22197579596396466","-0.22714770563950018"
"-0.024304975740229585","-0.00292642659023074","-0.04520553435405826","0.17454812094484018","-0.2593050444348084","-0.6563480593564536","1.35448358628178","0.3402216490649072","-0.2404022410230473"
"-0.08761997508664503","0.02910772215847388","0.010371144945633057","0.05628781114927503","-0.1918356071554331","-0.8717582479989133","1.1742046361762057","0.5225706596150832","-0.3033245113395163"
"-0.15700073623175897","0.012497384336278576","-0.09652498544716995","-0.11211057228539793","-0.2266365396331528","-1.1239114543976467","0.8934487318077721","0.7206057484132812","-0.3094206170091379"
"-0.08906420408633514","0.009176085422721778","-0.07926980359345559","-0.13080716950632562","-0.07919029466462556","-0.90449690780949","0.5639311330522044","0.8741287867414824","-0.33063441100154745"
"-0.04147204444987964","0.044896226767094156","-0.05513733202425723","-0.0805323854240988","0.059608968043947004","-0.5242527848205243","0.3231040904304921","0.9614906119377831","-0.32037072638888703"
"0.03371836855132118","0.12331212008410536","-0.07945361103630186","-0.05136010981177488","0.110906897122239","-0.040788448409509105","0.24291200103268015","0.9736542487289321","-0.3457520993243354"
"0.10949995262306182","0.0052873351889222665","0.15130114406593795","0.04569082630835066","-0.21040519900569288","0.28848626513974346","0.24196463097030185","0.9456989923727012","-0.43640919892055713"
"0.13321708125597317","-0.12089034264527797","-0.2629017000055457","0.13335206558523688","0.4547111989736844","0.2316559317976921","0.4303240904314583","0.9027436763293376","-0.4130217264990332"
"0.0727789860769405","-0.012833609360399116","0.01595918034346299","-0.07469234635395731","-0.03540013844807668","-0.20744497234220804","0.40747575363291566","0.9223215906439419","-0.34431387600281615"
"0.07616811012954669","0.02152196892447691","0.06008102111001815","0.04369504638873258","0.16287973597005972","0.19436201146343482","0.357683097707311","0.9329944563316203","-0.35580331912813506"
"-0.18721400690527654","0.20877778845234723","0.05061390517735189","0.22963665302421632","0.10851360006717264","-0.5528657425052314","0.3444756444847386","0.9348942000386979","-0.28714449897242433"
"0.02315816610558693","0.1516898796832834","-0.2572635615901489","-0.48570555434415164","-0.08444597499755126","0.4172324403029081","0.2907820530081636","1.0053298365115233","-0.15724678352429555"
"-0.13412414887666724","-0.19646742128496295","-0.15358996806835268","0.061637810673306724","0.10748208903643908","0.9963354057587863","0.6736588773359375","0.8877700019714697","0.006110870630042845"
"-0.03473230911799236","-0.004648827796942195","-0.1390857021008319","0.17641585516773411","0.1739367683644662","0.9354934338202278","0.906266091475247","0.7677827171390396","-0.12491454264973172"
"-0.07063584205028904","-0.04537558705010074","0.04746026511862994","-0.034066238757216476","0.04251604047666317","0.9969663954956841","1.1612758212072742","0.5870036336801288","-0.14482412958467264"
"-0.007638573083805457","-0.06897628528776266","0.05100423783687936","-0.07549239127108352","-0.051310777270157724","0.6703564001430226","1.3360934615414897","0.4134937084337162","-0.17756332228543908"
"0.05168939140413206","-0.11532281733592241","-0.01898715809637976","-0.22353921092340884","-0.05764344127786328","0.4947713714332212","1.500768669443181","0.23997059052267114","-0.18857880545253"
"0.13053466659388202","-0.2543759168067116","0.027556810411412534","-0.0948330679740298","-0.01332101579626764","0.0018118529236974949","1.5367130041628398","0.19299151176640017","-0.18340773887379475"
"0.09426006309059828","-0.08265307740497997","0.0796183066080598","0.1788708666462802","-0.11603510282737191","-0.39960804294719465","1.470397099796338","0.2629390196478235","-0.17227621723417214"
"-0.04869318944833031","-0.01890595133026715","-0.021490243722555917","0.12593889366962702","-0.31102419379479207","-0.7175540638355302","1.3550408627890613","0.3849579748336561","-0.1907345060901254"
"-0.11708224668032369","0.0030916423950451636","0.01965494909597309","0.03997016818853849","-0.06699644616906254","-0.9161216802700284","1.1526101715190467","0.5690748024445847","-0.2510908552534293"
"-0.1627680240371882","0.01658079021242384","-0.10751006172244305","-0.049965085642201035","-0.18974865212341527","-1.1016083940819166","0.8570585758822881","0.7893131458192512","-0.27085008247748416"
"-0.08175640534790307","0.0210129973943306","-0.08063906578005196","-0.0603974403016229","-0.023478407827674706","-0.830234269543838","0.5753553014514757","0.9148017718034267","-0.3094533039028088"
"-0.014638269635636969","0.06020899880263889","-0.10375956378751244","0.0021990945289068653","0.10292285814653769","-0.4378799973736434","0.36384100311277173","0.9719392023267094","-0.3389532254407897"
"0.05150260445350548","0.14514596000997365","-0.057093125826228205","-0.06270515109145625","-0.009436934005600472","0.0023688227106898846","0.3130173856486966","0.969115972095358","-0.3645307197382635"
"0.11174428448858029","-0.029132124216574164","0.12712943270557014","0.017649781475356827","-0.12065416614364993","0.32746201581119355","0.3367573648588896","0.9360947325202539","-0.4790982820547434"
"0.11527012888649046","-0.12349752334051725","-0.22655326186965427","0.2354420331087783","0.5118631326486687","0.024626014926314752","0.5013489812844888","0.8610020854321623","-0.5005245408560137"
"0.09710837152378717","0.04856393793637298","0.02087262177352545","-0.01672808122108429","-0.22025600968434594","-0.20280477089240653","0.4272033419906817","0.8891552317578805","-0.4411324550560012"
"0.10571318418587429","-0.19695561846693999","-0.21401718121710533","-0.13197209652163575","0.6250660833533067","0.3492068928981295","0.4434758160033022","0.9144455698583497","-0.35184820499395697"
"-0.02683719058635297","0.3945004610853278","0.0020360763356831275","0.0005654047336343514","-0.277326571259458","-0.8078341338839699","0.30476969334092974","0.9594985195782781","-0.34449365391800607"
"-0.04738375515527791","0.03008100037020264","-0.17345356340875062","-0.5064528082118649","-0.028559138145875042","0.8585612235907778","0.3932930665226004","0.985263793605517","-0.1696988556682222"
"-0.076643834689","-0.054693920921412086","-0.15167341405755114","0.18583154625015805","-0.08770803888360668","0.6391709458386556","0.7259314137189445","0.8669387845167794","-0.1124902543654253"
"-0.03697567816417769","0.0188586974891807","-0.08674188593298145","0.107425218872591","0.1428406597279892","0.9153017622395014","0.9832259771308263","0.7121888283777573","-0.19415845820215144"
"-0.06421383709833356","-0.09752023967229456","0.0756468266912803","-0.05291880141325181","-0.02406883421115957","0.9610485181645845","1.252000436592707","0.5225442742858183","-0.2148999265810166"
"0.006667959387124988","-0.0592279224093481","0.07039695568324415","-0.08028688427624418","-0.0401699794788239","0.6244154935296633","1.3881988149723123","0.36717426290906935","-0.23674130893190726"
"0.0703892684921199","-0.1495589431188253","-0.014635671780906846","-0.19762199170675726","-0.03140572566317096","0.4502623261458991","1.4795921621664827","0.24758275801561358","-0.237901693657224"
"0.13548259514682043","-0.2282625611579805","0.03605387740132719","0.008847554437689588","-0.002339132929390218","-0.18014981245417575","1.440304168403135","0.21840058384856187","-0.21992553648291638"
"0.06883624090778645","-0.042526385198689856","0.013034370224823821","0.2081865919489192","-0.12485440247529138","-0.41475179663273937","1.380675582124012","0.28933754157742136","-0.22415685486861348"
"-0.23845525181428245","-0.07832578068132787","-0.015263508439617697","0.19686465665962416","-0.20965370373040204","-0.9807010529579041","1.286217214139793","0.4245227760664717","-0.2425268891116554"
"-0.15582609664534433","-0.00016395764242642177","-0.0035196585182578686","0.024649933812811275","-0.20530029638723638","-0.9753376401942737","1.0592384927240266","0.5940617092585071","-0.3000067916319207"
"-0.1396603600421461","0.03685863146041628","-0.10101071315348564","-0.09687024612642338","-0.24678810083681144","-0.9540296021559592","0.7416187473989196","0.7758962058880163","-0.3285261063597748"
"-0.06621650131123723","0.03116230519241144","-0.02833655465553774","-0.11936970426509899","-0.018960102317414955","-0.7310232678346925","0.4199308835706578","0.9221105080098221","-0.32968649108509157"
"-0.003873949491279862","0.06818842593444291","-0.08357998486559226","-0.004180276866835212","0.11182113659727433","-0.3185015929198061","0.2620265852324368","0.9638652915716299","-0.3595623119002877"
"0.08039681264063939","0.14682868221168185","0.04702036640709899","-0.029432524935160603","-0.18846584490189972","0.05704893718008219","0.27091514552357693","0.94287576214135","-0.3782592150800385"
"0.11258867704373245","-0.10716888567949681","0.02322163958805744","-0.11868615204950379","-0.031917891232955145","0.3408098756301832","0.33530844593995773","0.9102371098405877","-0.4699459518268933"
"0.10473717422788369","-0.11303763903730629","-0.10313998813746883","0.15830653520245863","0.24692514865282444","-0.13350996336302215","0.4005097972918964","0.8835087712951778","-0.46510829156360123"
"0.10372525110876749","0.10188857353457949","0.12306708169345093","0.04497454060637486","0.16625189152064818","-0.1381186153259788","0.3364508627798846","0.8965563166167031","-0.48163151631423773"
"-0.3000564327477323","-0.34730996334179426","-0.07185554831460048","0.18345355473956632","0.6067334279114984","-0.2695270818021311","0.36526205820633995","0.9223215906439419","-0.2969995974141985"
"0.02752840305864927","0.3693427254523816","-0.27630518656815567","-0.27278385293424573","-0.254997109735689","-0.053939730656619174","0.1854010654812268","0.9993799447622735","-0.27117695141419307"
"-0.20005801680918747","-0.23636455694398298","-0.046655341375160295","-0.1367184520468249","0.06464685834486165","1.3271196409093866","0.5210487058168908","0.9248018115948486","-0.035156332629459566"
"-0.0636746582717826","0.04260377744661882","-0.1883254442619639","0.31953821061897575","0.0635985942347426","0.9277759439612483","0.7947271985428495","0.8010678100067932","-0.16726368208974068"
"-0.054171631453821534","-0.015523887448315333","-0.0321634669206404","0.046582332437422706","0.1945382694144773","0.9502974238012891","1.0905295686078846","0.6174259183226339","-0.2202818236239291"
"-0.04680606355540185","-0.07903106980167347","0.05662791948710847","-0.10439894799396482","-0.01906229610166629","0.8125717793053495","1.2979200207927049","0.4313301910168328","-0.2237809555913982"
"0.030689338929304404","-0.08078442478715708","-0.006603699578958246","-0.1966207321233502","-0.033478320912858406","0.6108734830223974","1.446991486490514","0.28131640148087184","-0.23906207838254073"
"0.11709370870343254","-0.221386251913963","0.012590134483742556","-0.20019253313723498","-0.04347033611776039","0.19905803123611573","1.5071773492769185","0.19518149409539237","-0.22459812793317052"
"0.1120427584818496","-0.14745034677964775","0.0752854075620882","0.15799845533064105","-0.05992903996545163","-0.37793597236836224","1.4795921621664827","0.23846662675456806","-0.20977298730873703"
"0.00960070707582909","-0.0018845930295434935","-0.028852867697240745","0.16332246061548814","-0.19414992540768228","-0.6197749234524217","1.3377652910633342","0.36336158283028186","-0.21482801541494065"
"-0.10091651007712547","0.019816394939782534","-0.007130958457145354","0.1292988897716372","-0.23844028070874004","-0.7538359737071477","1.146173627859945","0.5352092323330017","-0.28394118339267677"
"-0.15340942011919617","0.003163864416455517","-0.09397646427332394","-0.08036486699379801","-0.23605416354483888","-1.0508865267697556","0.9499565696461192","0.6995106776659414","-0.30530206840660534"
"-0.07967671558834927","0.01573527424193589","-0.08599013414426188","-0.16017103228893606","-0.08675789995274534","-0.7736636127473561","0.664826044695525","0.846780392958346","-0.3105319713939482"
"-0.022514131780613823","0.02939960175025166","-0.033859038949593065","-0.06763442904053708","0.038504874612371995","-0.5378433329998592","0.46058420477684486","0.934788658721638","-0.29229268472558995"
"0.01749871406546786","0.08719383835706955","-0.09843947420580469","0.0003777648367054735","0.21712860031724848","-0.03622348035141462","0.3345561226551277","0.9756331484238046","-0.31961892783445645"
"0.09386126332281719","0.049066677162068514","0.1861440133722234","0.16729861646113342","-0.35324195384616236","0.18660083769959313","0.3473456184972387","0.9518467740914383","-0.4081677227889056"
"0.11537315055513502","-0.15236348012167233","-0.04742568043338117","0.16320693066355654","0.3481376811115801","0.23145450045860555","0.5053056444861875","0.9006724279820377","-0.4362784513458736"
"0.07816788588445095","0.016516389733099206","0.032664798595588684","0.01460267899316135","-0.3757868121048873","-0.2358540718042251","0.4706709095586407","0.9046566127010475","-0.43938370624460843"
"0.09755964494522368","-0.11963349458103913","-0.16823260593104986","-0.21245796303397124","0.35584409762889374","0.11589115702939586","0.4396027442776956","0.942361248220683","-0.3619974854787693"
"-0.05257335136083111","0.28061548442156947","-0.067235579217442","0.05368646173161558","0.03730822608483882","-0.5141326801941266","0.4100392255664105","0.9670843017419557","-0.2991242455028066"
"-0.03250819645846954","0.032559380106792636","-0.12522992531369012","-0.39485087464595653","0.01777892211549746","0.772188436143897","0.4927111954216251","0.9845645823799953","-0.14979417176733192"
"-0.08122685471468336","-0.034832605354212856","-0.1375388282278897","0.1873912006012344","-0.06874594631631605","0.7058131695894662","0.7378292671494051","0.8892211950810428","-0.1181450869704898"
"-0.03689865261752756","-0.013842203964015583","-0.11144436710021993","0.1365291392633554","0.10590490627715034","0.9625289171626905","1.0085541943867715","0.7262785942052489","-0.20002085258202612"
"-0.08130388026133349","-0.04386009835115488","0.05479604081514621","-0.0854895831115631","0.005991455459884708","0.9499576600968057","1.2367310602931931","0.5388899857654644","-0.20116816254987446"
"0.008594560872711633","-0.070083558045183","0.060843099159571784","-0.18215060564391958","-0.08772239866593706","0.5891528747714959","1.4910163305657547","0.3454855222532678","-0.21113766511949686"
"0.05803340799010426","-0.15455517385352688","-0.05013116077190491","-0.1980359740345121","-0.09306663098990021","0.47149755767611","1.5762796361798284","0.2355642405354219","-0.222931096355955"
"0.1383498711208719","-0.23890941459471454","0.03285893229926901","0.05564661991605476","0.030726659183406377","0.014245748377626951","1.5439575987574996","0.19599943930260622","-0.2176995590239286"
"0.08324772068602772","-0.05597985307308786","0.03338557160180607","0.2280384886891627","-0.07875471460060349","-0.36553459715471903","1.5121928378424523","0.2391394526508247","-0.21111641863861075"
"-0.20209919379541616","-0.07201661114233053","-0.0012617183242822942","0.1312436439624855","-0.29324199667564915","-0.9136705278305413","1.3901492827477981","0.37563076093849085","-0.23991193761798393"
"-0.15286061309931395","0.006894854250257841","-0.010934739897979719","-0.03969639841468224","-0.19384119008757872","-0.9296879596133288","1.2185917099811794","0.5629797913843778","-0.29762064839394553"
"-0.14285692022812693","0.02349657071796291","-0.1263451614837686","-0.11106117522201937","-0.17873469907599998","-1.0421254769612913","0.9452197193342261","0.7633763671517901","-0.31759234042686113"
"-0.07561361800255435","0.02815729572973127","-0.05723562822573823","-0.11048352546236147","0.027091240956760604","-0.8171533669212281","0.6656898232818115","0.8960813806899338","-0.32818289397623046"
"-0.002862989191496748","0.06007604297435577","-0.06168005088871768","0.021770349760916588","0.1567505022120348","-0.388153152338898","0.466379880452573","0.9599998408343126","-0.358254836153452"
"0.08233015386155793","0.1351638857146552","0.05752010842317125","0.06468780140430049","-0.14130831972887248","-0.05056150868061306","0.4053581029052456","0.9514378014878313","-0.4081513793420702"
"0.11744032366335817","-0.05899940457948649","0.0636146675674335","0.009452450011011363","0.1052539294781723","0.23813085725170388","0.42096184510912854","0.9008967032807901","-0.5065879596319643"
"0.10346971885775563","-0.0944123971861767","-0.09922840053352688","0.10575003456958305","0.31563670710377917","-0.1055012996955748","0.5005687941742948","0.8596960116335465","-0.5129619038977885"
"0.08037948189264311","0.1231666996469207","0.09286896451032567","-0.03422412969152297","-0.05459916742381889","-0.09739550846004286","0.43848819126313265","0.9024138597135255","-0.4624769966230943"
"-0.3860843401626078","-0.46465386897573063","-0.12065126125986789","0.22765338884939076","0.6409815087694979","-0.026365479154189835","0.4795594698497812","0.9077832742189459","-0.3050569167040737"
"0.0212354158973328","0.3962455063315438","-0.2472264360594425","-0.20719172272508996","-0.2612675480199628","-0.07716743362526478","0.26564888252976665","0.9882057578185606","-0.3456703820901582"
"-0.14277989468147678","-0.14104146036943807","-0.011669969669364797","-0.19946084344166828","-0.0637846415211635","1.1983491969101874","0.5463490592474721","0.9493137824820016","-0.056504142885919775"
"-0.06262518519867442","0.02620554571923144","-0.22046076797755884","0.2674342022978322","0.06294522413870948","0.8009955445168803","0.8273557380441829","0.8279544605277931","-0.15288144887454777"
"-0.04795181856182271","0.0006647311060444499","-0.03400980235777033","0.019603200412599994","0.11297231248076124","0.9401530503388569","1.1266132224543635","0.6525975622328328","-0.20860116217063557"
"-0.04835620268173594","-0.10490448172904995","0.08327793344765068","-0.14435305637030363","-0.06483529892833764","0.7947827224920414","1.338601205824257","0.47093457024354596","-0.20223048659417847"
"0.025199343091815648","-0.09055771688337474","0.007030062600251255","-0.22346219095545444","-0.07384845563771748","0.5978896557439255","1.4659388877380857","0.3379788960773852","-0.21100364885544615"
"0.12073509142131793","-0.2412361415896691","-0.0011150854204386414","-0.16422420810253574","-0.04567934929958662","0.10528567568230765","1.49658909563857","0.2425563527906377","-0.2451908709458331"
"0.10493291539830837","-0.12051640437823172","0.046784927660082416","0.09660968987259605","-0.08022898558652436","-0.37063105272196967","1.4578583783825037","0.291514331241781","-0.23930723008507238"
