"AccX","AccY","AccZ","GyroX","GyroY","GyroZ","MagX","MagY","MagZ"
"-0.05336286321399506","0.06393903301642544","-0.08351183154408746","-0.017873753244405814","-0.18100115138714779","-1.0443582098764679","0.4830703118456549","-0.6470250233776715","0.6582585266708139"
"-0.034741937311323606","0.07469910665068184","0.024337495333785965","-0.026634774599217453","-0.222711532462844","-0.8064265413939672","0.6581108627827829","-0.4720639050216858","0.6182007384771344"
"0.01862039858856053","0.10757762878072512","-0.09212393307969355","0.16197461117628636","-0.15854963171357045","-0.5694898951888823","0.7251233627833866","-0.3248733457170762","0.5944373667783952"
"0.11202446491452017","0.25448135442466907","-0.11568846030301862","0.11863162420995445","-0.028528743273275703","0.0252235136694848","0.7001016476064457","-0.2092092970847105","0.5735831286163655"
"0.07148399407388503","0.12677104905428338","-1.7610418994737424e-05","0.016479077962450128","0.08340073406836152","0.5261509764258644","0.7126960966710084","-0.2878547287583297","0.5650028190277561"
"0.016053522246444598","-0.003022404078772615","-0.03172150295694263","-0.06291695600333082","0.10167116378673799","0.7657329257587129","0.7296094386670026","-0.43831706889179506","0.5626983930239581"
"-0.2480738169522187","-0.031876415609730396","-0.07294600145867722","0.04006836864768033","0.10898507958702071","1.2258457881373064","0.5300208575841238","-0.7124342546255207","0.5446061973771188"
"-0.16503064947003607","0.0162442457720822","-0.07876794731692027","-0.09146440712562474","0.452461499741922","0.9138456320774297","0.1766518243169064","-0.8702317162946466","0.5995692090847254"
"-0.08351836472752502","-0.11800270824975401","-0.051413682367495175","-0.0254785123303022","0.17572456126460076","0.9930105752220562","-0.31400227651911466","-1.057237737460089","0.5570272169720583"
"-0.013492514629216133","-0.06945617273047204","0.01223933075068787","0.010869136046572388","0.2861034214442605","0.36483602330436476","-0.7036778742357231","-1.0664857953674594","0.6310303442429599"
"0.06318256578366614","-0.09382759928521266","0.052010015642116804","-0.2404932313693685","-0.20771034652168818","-0.1570895644541684","-0.8151889033427567","-1.0223167541779072","0.6357372569315686"
"0.12237092146830028","-0.012623788443889821","0.08336054353432316","-0.17699026779097557","-0.4012514927707932","-0.37138338663904","-0.6590957536532008","-1.0228840387571039","0.539376294389776"
"0.09906472412676742","0.168205486477827","-0.04788210116224662","0.17498135826458364","-0.06494778388992575","-0.24712694614226283","-0.5167116060427706","-0.9831609255486986","0.5610640483404135"
"0.07455538774655937","0.009198417847003709","0.05522148276150948","-0.1314714667299322","-0.14482407310276496","0.05971850914388014","-0.3959776507402274","-1.0035172070766194","0.48532851570495433"
"-0.003950975037929994","0.14524983175081987","-0.050723888143779955","0.34924866325738096","0.32980502566977193","-0.0175563770503773","-0.3311942567687498","-1.00681537323474","0.5141910428163529"
"0.04366140380452118","-0.3636178266546454","-0.050825085499953744","0.08585673959656405","-0.044051907302141514","0.3387470245672485","-0.5111109771445912","-1.0680293371294598","0.4757512558593827"
"-0.1048640693429452","-0.0438704855252395","-0.04195689269566297","0.30615599118690084","0.006264769983573284","-0.7050798821137834","-0.31701156965843497","-0.9774880797567309","0.6660870377049928"
"-0.02831030416603689","-0.026385755388601006","-0.1999941190044518","-0.18371025999499593","-0.3989060616568282","-0.6841116077799522","0.03630173595805383","-0.8812739765920345","0.6313572131796689"
"-0.04884724054163057","-0.04411562283363649","-0.1827162193769025","-0.041689290085502026","-0.054161194062741745","-0.8937215446101601","0.3266427962517298","-0.7682656113501877","0.5890930596632042"
"-0.07135795655013409","0.08843198950795608","0.013432963893018538","0.044472948065071904","-0.2605256259328922","-0.9993152501963861","0.5707577702664033","-0.5596236201874736","0.6019880392163716"
"-0.012548951682751906","0.09102670559429381","0.010073810591177132","0.020807600161486736","-0.25841952452443384","-0.6359379682514166","0.7136991943841153","-0.3886071085566002","0.5766230097277585"
"0.06795718685664172","0.1952017519237507","-0.09793555267710256","0.11343277637303326","-0.08110971890278877","-0.3758245836333584","0.741730202700376","-0.2664298413951778","0.5635972825999077"
"0.1082145888133376","0.20412433446243808","-0.0718927228536031","-0.020762002042695363","-0.0025595555881618285","0.36029775096590827","0.7563587110165161","-0.2810209284787037","0.5584981271872484"
"0.05400400908096878","0.013848651812946613","0.024574999332969347","0.006485833395328219","0.08933371746787098","0.582430407189932","0.7193555509330227","-0.3967601752994745","0.5441812677593971"
"-0.12694151665154166","0.004410408404002426","-0.15333594205183482","-0.08767309920307001","0.2561632752853805","1.1478700179583718","0.6539870166288994","-0.5885287483972431","0.5380361317492692"
"-0.12082761388618679","0.02757561398099263","-0.11748522968814508","0.0008480680160269556","0.45282049430018195","0.831622815592453","0.4355624895999046","-0.7975137488404019","0.5646596066442117"
"-0.14961591194667676","-0.09161201505296351","-0.13892048192748696","-0.07202264171473835","0.3615640775905023","0.9349109817553991","0.014985909554535262","-0.9599286431308965","0.5853667537847222"
"-0.039950789903539355","-0.09227471675956218","-0.08197528393197934","0.044390151599520936","0.28141255921633046","0.7180203941148332","-0.40734609148877066","-1.0250476357568312","0.6255879764467563"
"0.00677098105576955","-0.07094984836384019","0.06006449909268365","-0.13584234991134375","-0.045451986079355314","0.021122323068010117","-0.7117026559405771","-1.0375278964991599","0.6718726178847406"
"0.10772066249544357","-0.13777988770686783","0.07587193917746281","-0.2077886274767365","-0.26411557151549175","-0.40269018512357957","-0.6109470634240768","-1.0314724634328503","0.5850725717416844"
"0.11472228468594134","0.09948186529917336","0.027006420708957132","0.17321952649762698","-0.06810693600261332","-0.3134051373525555","-0.41124702703974125","-0.9894538265783928","0.5637607170682623"
"0.0458287101233895","0.11146035445355555","-0.2527200068231625","-0.21636672640765645","0.3923658106892061","-0.07150066041120276","-0.36613549377530175","-0.9585038353505884","0.6222702567391606"
"0.07319203557085188","0.06717775389600952","-0.2181476855507294","0.09891451241363111","0.20400615256431975","-0.019026097760628247","-0.34403948026158904","-1.007963135057766","0.5601161284239575"
"-0.17276208871504395","-0.11329731838942178","0.3113416649765344","-0.3467422771624469","0.031928094305049684","0.49819327731408947","-0.3777547089521215","-1.0543881218994726","0.5426940140973715"
"0.07026987889481218","-0.22351562260130978","-0.09243785140904898","0.4349622600946205","0.14380515844118094","-0.24426322349018867","-0.40522844076110076","-1.0500609279000184","0.6169913234113115"
"-0.2016177841288528","0.05045024875013972","-0.045711521134927206","0.038419178583857","-0.37887416530592294","-0.6837718440754689","-0.1853828586385379","-0.9396515175907706","0.7412342062543756"
"-0.06520554101145418","-0.013602260242660891","-0.2047235464664513","-0.018638176426353112","-0.2591375136409538","-0.7412647166412628","0.11788701662406945","-0.8479624983950157","0.6827573534771482"
"-0.07049141915032002","0.00946775727101787","-0.07220044542645808","0.04026380681636459","-0.19492774695057885","-1.0943762809436277","0.3914261902232074","-0.6700594158259864","0.6922855829822133"
"-0.02932126446581999","0.10640803297879706","-0.0033881019552319414","-0.004639219600883422","-0.36906164738015085","-0.8338745949490171","0.7400862370038955","-0.42347532118025194","0.6765958740201846"
"0.011369406190782938","0.09688818793024409","-0.0615788535325439","0.05865424966467361","-0.2912794930904947","-0.5910163527515074","0.8166003014536495","-0.28065153386899416","0.6281702410467569"
"0.12233722279164085","0.21668242793074197","-0.12430469234295834","0.052155689868522113","-0.08106185296168744","-0.21862319821971107","0.7710708108087486","-0.19780687704285568","0.5829642670999117"
"0.0994794104135451","0.14949818595142886","-0.08067417506688777","-0.06460465605113135","0.1278442603809435","0.3517551206817548","0.7927488669419998","-0.24822396420235165","0.5747435133416822"
"0.013669581577622766","-0.008706785096580147","-0.0006667191750237533","-0.044425424447081675","0.1975897231596869","0.5514148347378067","0.8005507380439412","-0.38205035423425626","0.5757894939391507"
"-0.20115563084895194","-0.026241373668824806","-0.02693218318210557","0.17088004497101247","-0.08339053099626699","0.9968935889875805","0.6714297713068114","-0.6192808496555604","0.6211262154606795"
"-0.14579351919416356","0.01114320845086685","-0.13340006288559844","-0.06895917248935256","0.388105741931188","0.948865562475252","0.412742016626726","-0.7743078517518647","0.6650247136606887"
"-0.10204300869688379","-0.10357492344621874","-0.09562866600677355","-0.011190345525163785","0.3326051832241996","0.9509041447021522","-0.004240129946677501","-0.9411290960296085","0.6636845510201821"
"-0.03316291360499573","-0.05606191174835635","-0.025515420195672527","-0.044798971291660446","0.26219438386414773","0.5782318985559588","-0.4206928638381633","-0.99921639840643","0.698496092779683"
"0.044811010088274525","-0.08490397802911684","-0.0059777216471975265","-0.20614232566171142","-0.1270083698248511","0.08292679704369812","-0.6229563721559939","-1.016353669764025","0.6554801407087879"
"0.13139638989703048","-0.06785031561699001","0.13686090091558836","-0.20073167291291566","-0.24108487395458833","-0.21695107541693218","-0.6816375883727387","-1.0079499423931335","0.5958592466530791"
"0.11844839550514187","0.12109965200408163","-0.022927659230657076","0.1493048264477895","-0.13036137899899905","-0.16302814863181708","-0.5818850935693451","-0.9834907421645106","0.6019226654290297"
"0.07897280284694493","0.0347500351212387","0.06403391375729635","-0.2374894526191474","-0.09655366479913188","-0.03727189406810618","-0.49528432433779573","-1.022501451482762","0.5376765759188896"
"-0.042454120169668916","0.1851054187135014","-0.22601629630628314","-0.05772484741360563","0.20384819495868536","0.009867893045358664","-0.462182099805273","-1.0693486035927082","0.442557715336591"
"0.05493890665343486","-0.3282494988965191","-0.1057318796068179","0.2729507575025653","0.09373499075213798","0.19084788400563532","-0.5393091684130363","-1.1180691140804668","0.4098871651125333"
"-0.12525658281856983","0.025072305026599552","0.027361644081648796","0.2812881690336278","0.028792875162912773","-0.6689921229304421","-0.3525379469976323","-1.0123299070511178","0.661380125016384"
"-0.04340731130946441","-0.04049673138255538","-0.18868686339115603","-0.18549134675394116","-0.4265007767017431","-0.6368116463486595","-0.009339209988303477","-0.9383982144506847","0.6081004883328285"
"-0.0630199411252564","-0.04604140490892479","-0.2591016360186116","-0.029384387455189113","-0.03875075432516956","-0.9964272587082775","0.30226194905816284","-0.8153238460942536","0.5960226811214335"
"-0.06418495251833979","0.0878845854336967","-0.00856940659132992","0.06993960046919032","-0.2430186579750819","-1.0095081613308874","0.567051881492981","-0.5973546410363741","0.6192630625214385"
"-0.013473258242553592","0.07914170100667323","0.029583029312271795","0.09115186239342823","-0.24685989974846342","-0.6935036473253141","0.685946824321495","-0.4085939954748115","0.6079043669708032"
"0.06382476627886169","0.16965969084967358","-0.10983553566227339","0.1900580169916551","-0.11356761356359853","-0.4018650446984056","0.7193276871076585","-0.2515880936836348","0.5394906985176241"
"0.10716896701756194","0.2191545753628812","-0.10745429991393912","0.05055367453507085","0.03843546899777507","0.24352581950217914","0.7375784927211286","-0.2237515713090962","0.5401117494973712"
"0.04964628877923709","0.055401814636277406","0.037313681223082526","-0.07913254750652779","0.09384029582256091","0.4929269398945971","0.7482224740102057","-0.3143060213464575","0.5799080425416834"
"-0.1474880812204666","0.006438649564461393","-0.19668971553755257","-0.16893205364374772","0.21660925485629906","1.1253242692822965","0.7075970166293822","-0.514320009839528","0.5516665664100316"
"-0.10976481974856037","0.013620757213530078","-0.1268945185601406","-0.008736200521257153","0.375947792891451","0.7007895205303191","0.48694338357126155","-0.7130279245339826","0.5730601383176313"
"-0.1690359778958434","-0.09562561911926015","-0.15927354203141933","-0.24394950243132169","0.3749186751577725","0.8287348241043444","0.11746905924360836","-0.9707334354648999","0.4933368046543231"
"-0.009265737756789677","-0.07439527400770819","-0.2246325773545191","0.1255249113418722","0.04239158902979973","0.9737168505746076","-0.32297442828634726","-1.0679106031477674","0.4887933264340692"
"-0.0036139882713356283","-0.07810037900369164","0.06846594490727492","-0.09568702686872409","0.09067157052165306","0.08203370387762753","-0.6247675208046588","-1.0346782809385435","0.5936528813302939"
"0.11696469091279355","-0.14724260329795538","0.0029997229967176123","-0.17537284846393342","-0.0898045671038448","-0.17199062977936783","-0.6236529677900957","-1.0360239327310568","0.5373987373226868"
"0.1093555297230928","0.07258220057223658","0.06510577963187178","-0.010732076715835178","-0.1434263876226062","-0.18623886341523851","-0.502278144504179","-1.038213915060049","0.462692841837861"
"0.09800754849899425","0.03760754671191728","-0.14557265915678844","0.04363535591356793","0.10494519415806873","0.06708652776396248","-0.45273626300685105","-1.0082269883504158","0.5078824723378705"
"0.05803629644810363","0.13761525879862518","-0.21971727719750653","0.15088373579085446","0.3001042092163986","-0.02227108382680482","-0.4123894438796684","-1.0303247016098243","0.5060683497391361"
"-0.12878050157781376","-0.22482440653597174","0.31673197313191376","-0.28694589954185884","0.009692210696133796","0.51996242323706","-0.48608926196765045","-1.0890320592243723","0.4688216344011534"
"0.011801712071356853","-0.17696030835404916","-0.08451967460149172","0.47453126863118744","0.13802773935025078","-0.34252774059398766","-0.4755845998053938","-1.0761955965369665","0.5765412924935812"
"-0.1501743471598903","0.03581160431268672","-0.018049533612647103","-0.031156809467739466","-0.5047615904024125","-0.5864780804130509","-0.1532280041683939","-0.9671318380202321","0.6908146727670231"
"-0.0330570034783518","-0.025540239418113054","-0.3903277586978469","-0.2212574943727601","-0.15700595511305263","-0.7244949509414048","0.1417941787864471","-0.9194799333677045","0.5699712268657318"
"-0.08266145552104223","-0.022298402386303588","-0.03066615909970169","-0.010075481489024018","-0.14746148645744808","-1.1558249737830493","0.4112095062317016","-0.7611943431071769","0.5828498629720638"
"-0.04874133041498665","0.11744336672629586","0.04300964669915005","0.07158301403541709","-0.19698119582382576","-0.9147868942881294","0.6712347245292625","-0.5502700209630433","0.5784861626669995"
"0.012959983729108343","0.11812892021588069","-0.0840178183249564","0.3157931146771937","-0.19183321385837804","-0.5400517970790012","0.7351543399144539","-0.3648735048827638","0.5928193655416861"
"0.13208288008154986","0.2846249336182322","-0.11224981544527661","0.15181760290230142","-0.09833188451104617","0.15123628983008067","0.7407828326379974","-0.2658493641513485","0.6042107479859922"
"0.0738438642593787","0.09826552721386451","0.000771522433944132","0.005591631567377775","0.12930895817864413","0.5497160162153898","0.7141171517645764","-0.321205784949246","0.6239046014227052"
"0.003958585783706303","-0.016576108183087197","-0.09713010433204587","-0.05372751107677289","0.23020318212907592","0.7177534369184534","0.6768910810781702","-0.4719187857107285","0.6344134377378974"
"-0.14278952287480806","0.022592886572601088","-0.09207230177552327","0.049058524407156294","0.008427831861942243","0.8353844851778047","0.4971972713052417","-0.7273023876663288","0.6093262468454871"
"-0.15840645245812404","-0.042144137192375884","-0.12359631084974182","-0.11137888258983124","0.31295621440210486","0.9907293046348108","0.1137910342955503","-0.9001790650103823","0.6330242447568845"
"-0.06436788819163386","-0.08770124401010461","-0.0869050408541596","0.05234727703880866","0.26698097797428044","0.8451890949357536","-0.3572190696587972","-0.994572580455796","0.6479131248239761"
"-4.0002906769113606e-05","-0.056486747168417256","0.01837552537863305","-0.0711051413464817","0.1276886960723642","0.2537090231022666","-0.7534705301613275","-1.0047968955459703","0.7106556172252553"
"0.101673675673741","-0.15156366771715668","-0.05110182929030655","-0.23157817007864812","-0.18648658823735983","-0.3123130397310018","-0.787910218311326","-1.0054037581190645","0.6491388833366346"
"0.13180847657160874","0.040381960909918906","0.008972969228701324","-0.08742567255601653","-0.2074016112015846","-0.2727548369947231","-0.647476538476381","-0.9945593877911636","0.5682878518416807"
"0.09888409921987285","0.11719407454826501","-0.16987448140366537","-0.008453826063744379","0.054831947122034576","-0.13975190799110246","-0.5629655561471372","-0.9804960072929371","0.5592662691885144"
"0.05550023032464776","-0.007578737990990566","-0.010637343585958789","-0.055679967264416624","-0.2793369407857137","-0.01282079907496009","-0.5140088149824551","-1.0250212504275662","0.45090921666950406"
"-0.16173780735074259","0.18591561829210168","-0.2621375567038252","0.001717912279111826","0.516386464082744","0.29593679780234317","-0.43080743244532294","-1.050403937180463","0.4705376963188752"
"0.02730695461203012","-0.3009623925762261","0.009546221272643336","0.45776017060911944","0.12195196303137015","-0.1855690435406856","-0.5083245946081835","-1.0715385859217001","0.5224281400214179"
"-0.15528691781879336","0.07970676327687647","-0.08684721379348886","0.04345628448807398","-0.4649849933472099","-0.6523679702467912","-0.2808164605104996","-0.951168713814928","0.6842119202455028"
"-0.06242299313871783","-0.06152244916464036","-0.23407077975685","-0.13577495743938364","-0.2285511772772059","-0.7935397894596335","0.04075994801630588","-0.8778043057936916","0.5769989090049739"
"-0.06580248899799274","-0.003671290843838739","-0.04097383266426045","0.10098442405240528","-0.23812675879452636","-1.024870334540743","0.32798025986920554","-0.6839380990193581","0.6030667067075111"
"-0.050464777021283526","0.10986072964452429","0.013208470982486072","0.04634453328636354","-0.3390736352801696","-0.8524402545154302","0.6571077650696759","-0.43131176397194676","0.6051750113492836"
"0.024956712619867708","0.10556043957349216","-0.08626274743028108","0.11427999602053153","-0.3219376283658946","-0.49267902913960493","0.7222255249455225","-0.27294701772362423","0.5700202572062382"
"0.12872552906693688","0.24184016356368823","-0.14964327117757492","0.011607564989335083","-0.08203592486309945","-0.12514449558192078","0.6657176871071757","-0.19754302375020608","0.5507676768340822"
"0.09145951049633248","0.13171534391856182","-0.05354915310797879","-0.10540983507336615","0.14875210345400308","0.44137993215726223","0.6746341112236801","-0.272749127754137","0.5452599352505367"
"0.04152490770431291","0.0005110009295920949","0.003928879946566337","-0.04385451393461977","0.13068989057941738","0.5944677498630573","0.6949468399140916","-0.42740673524073186","0.5187508644834425"
"-0.3357866582000661","0.005635617135979529","-0.27543778065809466","-0.10108708937192613","0.5200721415475462","1.4961520838898656","0.6064513305577849","-0.6736478206060216","0.5343261693176231"
"-0.1293967059510149","0.019529708935047064","-0.09009585545188417","0.016297118288157886","0.6192982374505968","0.8186875259860503","0.3115127390790362","-0.835508622981952","0.6098982674847276"
"-0.1347403532498684","-0.1004172225244947","-0.11098381586702087","-0.08819779773475928","0.3083132181152761","0.9173888821384707","-0.10499572246317737","-0.9868284863165288","0.6072342856505498"
"-0.03714898564414049","-0.0686023470207164","-0.03789454168354373","-0.0007441272715101318","0.3187001273342641","0.5212001338748209","-0.5164886954398579","-1.0272112327565583","0.6455596684796718"
"0.016691871464307652","-0.08487697137649683","0.06920737043516044","-0.2760764565642958","-0.2036848208750666","-0.1655157043253561","-0.6690152754828121","-1.0256017276713953","0.6127910575746017"
"0.13545082210882725","-0.10899702831838967","0.18547487167017632","-0.11305406689283916","-0.2659105443067915","-0.3095463924230657","-0.6587335239234678","-1.0077256670943813","0.5490516149163603"
"0.13389875734382692","0.16557753143441845","-0.026845442591099465","0.30494292669161926","0.08887420443329823","-0.18092884209088406","-0.5179097505334258","-0.9578178167896992","0.5966927624416869"
"0.06537875668252827","0.05423014139953243","-0.04350376656860516","-0.13239570634538486","0.22343015146323816","-0.016933153341010653","-0.42038636175915844","-0.9634246992585044","0.6113201473594115"
"0.01912876719645146","0.11694478237023416","-0.10451338082839881","0.11323059895715298","0.10748448233349411","-0.12383397843605633","-0.33724070687275426","-0.99544329632154","0.5612274828087679"
"-0.022543016360607626","-0.36141574574870633","0.06083070764657091","-0.100663479548177","-0.11106901143810924","0.38594991065440304","-0.44331829003379325","-1.0719607511899396","0.4619410432834305"
"-0.07175271247671611","-0.07820528946194628","-0.023714520306212454","0.45493931428278994","0.08253196723737244","-0.5967437980556558","-0.3547670530267585","-0.9833588155181858","0.6886736812315798"
"-0.06170087863887274","0.010876777435596383","-0.17222473836949748","-0.13785449657415214","-0.5853199692759457","-0.7143020398069035","0.010165467766550019","-0.856141950467155","0.7076811099012041"
"-0.047431896121934235","-0.03932090327617655","-0.24030784130062224","-0.07431591126058025","-0.10260152645728453","-0.9283046359593609","0.3262248388712687","-0.7439647230971544","0.6548100593885346"
"-0.06009297035255108","0.07710477616867951","0.011159968010746904","0.025614608911439983","-0.24757788886498333","-1.0116923565739948","0.5656586902247773","-0.5385153567755012","0.6533064622796734"
"-0.0104403773432043","0.09936864510165103","0.008293377350690164","0.00044352063434653237","-0.22263734025413695","-0.7157339011329407","0.6910737681884852","-0.36021649426749736","0.6150627966847286"
"0.08687109868238363","0.2089855319340396","-0.09528583414708275","0.09213386698484669","-0.014924046163751075","-0.36631119990782385","0.7184081808706441","-0.23239276664337238","0.5503917775568669"
"0.10135661926734235","0.1960327258505202","-0.058063794344629854","0.0015987238787024103","0.017869867403589982","0.3688161124140272","0.7262657796233135","-0.2524851948786435","0.5442629849935745"
"0.039577124193397484","0.01570307400227357","-0.0005264885528972184","-0.007458342977933912","0.062356473063163165","0.6120383871520546","0.7347363825339929","-0.3615357607307456","0.5663593251150981"
"-0.2383782262676323","0.005177854374070387","-0.11815850189452579","-0.031167399713333193","0.35098570460710904","1.356217975314784","0.6337021517638516","-0.5829746365869679","0.5668005981796552"
"-0.12863607867784474","0.031927839922447826","-0.13130589718845107","-0.060155790152166","0.5446034363619763","0.9573596550873363","0.3390979261894719","-0.7795585322755928","0.6091954992708034"
"-0.12867459145116983","-0.10629636305638882","-0.1172167469064595","-0.00836525310059683","0.2916319376414638","1.020458628777106","-0.12196479210990031","-1.0213932676536335","0.561668755873325"
"-0.04620911556886325","-0.07305013496375008","-0.05268587770225137","0.047523901545665104","0.3816438398825089","0.5507595761648745","-0.5754764137356077","-1.0591902518256964","0.6288893527075164"
"0.032668895478213014","-0.08222304839787677","0.024799079193068452","-0.23720062773931844","-0.11337614979919321","-0.06274931813715239","-0.7917832900369327","-1.0319473993596198","0.6361131562087837"
"0.11630227121160235","-0.06546749788197849","0.22980550943079617","-0.27025182148774524","-0.2538004612081558","-0.35058499415745054","-0.7057955249633929","-1.0321716746583718","0.5535787496897789"
"0.10895788533851146","0.15334144036273775","-0.0020178071425521705","0.1726033667539919","-0.10549502259685974","-0.2168273043531561","-0.5701265592657049","-1.0059050793750988","0.5486920590859805"
"0.07078209878003562","0.016465492580084576","-0.0032121424706195584","-0.13219352892950462","0.0401466763921475","0.07754639609484353","-0.4925258056267522","-1.010232273374553","0.5086015839986302"
"0.011259644786806489","0.08645738771447012","-0.06852842707386632","0.2552457923690503","0.3210694914187798","0.0741681741188374","-0.4606774532356129","-1.0395463741879296","0.48013129961128237"
