"AccX","AccY","AccZ","GyroX","GyroY","GyroZ","MagX","MagY","MagZ"
"0.11720732138474149","-0.10853999265866648","0.0714874088273209","-0.037703506743862455","0.0914158859057787","0.27307555425781893","0.4472652962528167","0.8877700019714697","-0.4705833462534757"
"0.09165582935835705","-0.08223862915900369","-0.07647964791609257","0.003569087208895544","0.2895258362330054","-0.18940594651774426","0.5002901559206541","0.8774797235581332","-0.43647457270789897"
"0.06187794558727939","0.057012865336801756","0.11110101063894212","-0.07925000295765823","-0.11010929931902765","-0.01948890446380667","0.40332404365366803","0.9306329693624059","-0.34168258106230925"
"-0.29774566634822797","-0.021054018930966277","0.13359573723985857","0.29912791911106296","0.21676003257076829","-0.4246292128987918","0.40828380456847363","0.9258440321008147","-0.29118133034077953"
"0.017546855032124203","0.2504615180539217","-0.21098126053189167","-0.40266840139332694","-0.11460151789138719","0.4129853939968659","0.32015052494189983","0.9873878126113467","-0.289073025699007"
"-0.14839313139360577","-0.19156467511702296","-0.09224371770536866","-0.039631894191520446","-0.03377508974768663","0.9669943829930434","0.5964760810774458","0.9199337183454626","-0.11729032470099593"
"-0.04457232270254777","0.0005832956612210405","-0.18989297065657423","0.1906741767352902","0.22875763070781582","0.9170248495979528","0.8393929106014636","0.803627186945495","-0.21630219431949793"
"-0.05987152190593193","-0.012722466597693697","0.00803831870808888","0.01704036097891773","0.20565513423526044","0.9376776290633352","1.0931766320174718","0.6233626174072512","-0.23626734897367935"
"-0.0337983743648594","-0.11187427553982904","0.10209857644380857","-0.07728599377482134","-0.026691887783512284","0.7655145062344021","1.3957220478206134","0.4031242740325848","-0.2148557992745609"
"0.04678286408251812","-0.11350506187111416","0.005346055983432741","-0.13139444676197784","-0.01355125097296502","0.5832555476151059","1.5013259459504624","0.26398124015378965","-0.23551555041924882"
"0.13666493728790008","-0.20637678536168907","0.05562420693403783","-0.05945490844378107","-0.03623539912029484","0.0628127857382823","1.487951309775706","0.1959730539733413","-0.2415135954078577"
"0.08865655085373389","-0.09828058081528865","0.053538302245557695","0.14063045255692655","-0.14859351596449447","-0.4067430807413455","1.4375177858667278","0.2604587986969167","-0.2428537580483643"
"-0.02445902683352987","-0.0021165386268530264","-0.035670265099887195","0.12335872474315503","-0.24441634345524066","-0.5773044603919998","1.3391584823315377","0.36631673970795803","-0.25999803377874764"
"-0.09254961007225401","0.018743399856841435","0.03402166926918417","0.06917710278644189","-0.06008699757108601","-0.7927146490344597","1.1570683835772988","0.542649895185722","-0.3252410735458501"
"-0.15658672391851447","0.009830996748756982","-0.09732423803572621","-0.08500628281264931","-0.25679208252698876","-1.070714165809964","0.9002475051966063","0.7228353087361707","-0.34768062605091815"
"-0.07897385747516676","0.013920842672834709","-0.08646720739479544","-0.12053463128040912","-0.1288368487749218","-0.7109529404341389","0.6211634303500174","0.8514637889028772","-0.3979367250699162"
"-0.02424720658024198","0.04446619775999094","-0.052229456973385914","-0.02280014294468836","-0.05949585319848463","-0.4975085275104757","0.41700518190742975","0.9274271518567128","-0.4215366623003008"
"0.04535885428882364","0.11186545424285566","-0.10241921513125143","-0.08412536692917101","0.07952359283915404","0.0034405345099745876","0.3518874220315832","0.9334825849230223","-0.447604460002838"
"0.12120302161721754","0.03410810776280927","0.12670399075920688","0.015894688955596207","-0.13111766086840002","0.2570338536389968","0.34890599271762696","0.9250260868936009","-0.47347613634334984"
"0.13213005822887308","-0.146027303930055","-0.14601462312048621","0.1861011161379984","0.4185724134421826","0.16048028947563195","0.5052220530100957","0.8916090673795222","-0.43497097559903786"
"0.0977785900615767","0.03181461972492548","-0.0025178046921373602","-0.03424916118110814","-0.2771590404656033","-0.2541891774283101","0.4567668607019665","0.9174271120652908","-0.39068023467497787"
"0.03413238086456569","-0.3457830487513553","-0.06208070980907921","0.22535241730675346","0.6612766677964604","0.21302231949038244","0.41706090955815767","0.933284694953535","-0.3163338950205317"
"-0.028483611645999714","0.47826263290369225","-0.07412526044592686","-0.06549231118180567","-0.25226875109291336","-0.4650853625683479","0.22819990124044795","0.9815566548437893","-0.3590066347078825"
"-0.11090094656164995","-0.04451345160107739","0.009875360510468166","-0.3732082636507735","0.0021162288683212863","1.067079062799432","0.4381538253587634","0.9674405036870327","-0.07403248961693615"
"-0.05746447357311504","-0.030808614113831605","-0.21552481529887813","0.2417191604970609","-0.03372961710364037","0.7719700166195862","0.7697333471912728","0.8396431613921728","-0.11266186055719747"
"-0.046420935822151156","-0.021376021327589454","-0.05153553224533708","0.1829336699558742","0.19876483201372444","1.011746116640711","1.074006320166987","0.6576371601224412","-0.17291688035012165"
"-0.044225707742622154","-0.0782322961145663","0.06487447138918884","-0.015764368872055005","0.00730609353223265","0.908555025821903","1.2814803638278998","0.44878408632560746","-0.19824922294506372"
"0.04586914853538082","-0.06641376944108725","0.05709466647680798","-0.16258753378350502","0.016551400055953937","0.5605884547588578","1.4015734511470694","0.2997861319663477","-0.20078409154924146"
"0.10108414139606749","-0.16359201530714507","0.007662649338945776","-0.27297640285413166","-0.10134983209748483","0.2365849323963045","1.4653816112308042","0.17981203979854993","-0.2334072457774762"
"0.11134278882666643","-0.16731062362943852","0.06386249782745095","0.09404588768931436","-0.1033578083266855","-0.2610087203540121","1.4483846777587175","0.2084401220510374","-0.2277033828319054"
"0.03049099814668029","-0.012526149007494405","-0.009822395080934767","0.14434666601072577","-0.1433330490374586","-0.4463255523136587","1.3962793243278948","0.2950631580279189","-0.19238846290987258"
"-0.15255251091271335","0.02638005024385303","0.010906065909359035","0.1357493120878172","-0.5381002183794867","-0.7785659176263305","1.2309075207921012","0.4644173939150995","-0.2569418092205191"
"-0.15043430837983449","-0.02937518409015424","-0.0581236866574674","-0.09253498468019075","-0.24757788886498333","-1.0644770749490906","1.0137368659044899","0.6454339453373946","-0.27328525605596565"
"-0.1198070253930724","0.021496000989265365","-0.1295628243596617","-0.12562757666139301","-0.19393452867272634","-0.8579978179673368","0.6921604573776842","0.8369914358010437","-0.34426484566230986"
"-0.04459157908921031","0.04147676905843771","-0.0588465249158516","-0.12027468888856306","0.023879436308861572","-0.6119846270853386","0.4654325103901944","0.9332715022889025","-0.3322033818977503"
"0.027626610630628202","0.11816008173813454","-0.10364390966617096","-0.0864022697318226","0.1502742403810253","-0.14162303524936445","0.36381313928740777","0.96391806223016","-0.3006114991648322"
"0.11959222487289646","0.02000232535589721","0.12194151926253838","0.09879898246169952","0.06204055785189441","0.1713648624371172","0.34258090435998134","0.9586541890417993","-0.35420166133826125"
"0.1385077734915047","-0.08705620049944979","-0.11893090620491348","0.301322988197763","0.3385884258618654","0.1011502660220243","0.45147273388279224","0.9054085945850991","-0.40040458554206854"
"0.0919229154413664","0.030029064499779545","-0.029276244391437205","-0.01246598874440834","-0.24317182898660614","-0.2200162294080929","0.42363677234407976","0.8966486652691305","-0.39577939008763713"
"0.09111048848807404","-0.14377328715369272","-0.11601683539754173","-0.11305406689283916","0.6473237459654236","0.3131676713868572","0.41616926714650726","0.9167674788336666","-0.3183441389812916"
"-0.053449516953976456","0.36484507907374175","-0.016702989199885672","0.051522200632097274","-0.1668759121681462","-0.6632889464623283","0.3173362785801286","0.9607650153829964","-0.27304010435343395"
"-0.09088393262594471","0.012138507471655005","-0.09770837493875324","-0.3677205909340233","-0.07849384522160124","1.0695059464028847","0.49686290540087275","0.9421501655865634","-0.1394307921289753"
"-0.05620318024671899","-0.04535065783229765","-0.24487204858927683","0.3383792202798179","-0.0008887949140200143","0.8773938403535706","0.8704053482316811","0.7793131060278293","-0.18507477045101028"
"-0.05602987276675617","0.0043878474618906345","-0.025827273272861145","0.11499243072410961","0.29766304622023093","1.0098531474300179","1.153947635136522","0.565473204999917","-0.23595682348380587"
"-0.04991597000140127","-0.08308414512949165","0.1047544907303288","-0.08186194262091143","0.03495322178265354","0.8521542508776627","1.3441739708970715","0.3646016933057352","-0.23170752730658978"
"0.03860275102827321","-0.10004328425744845","0.05248502364048357","-0.20351401925526796","0.04903059506055377","0.5385523516395075","1.4690039085281343","0.22115785075675073","-0.23643078344203378"
"0.13254310772278444","-0.21115488544061367","0.04711743325893915","-0.18334441514721259","-0.07661750033042923","-0.013032423325181161","1.5107996465742486","0.1719887896714877","-0.21625643266835864"
"0.1019851477280075","-0.11125104509475192","0.06968650893786081","0.03561565175031727","-0.17193294884550142","-0.468725687973527","1.4701184615426972","0.2592318808860959","-0.21577756967608008"
"-0.004018372391248863","-0.028529668119666285","-0.03183302657395048","0.1125181642535749","-0.19740002280846236","-0.6162074045553463","1.3397157588388198","0.3859474246810923","-0.20884631387316724"
"-0.09053731766601907","0.024000348661066907","-0.004601644128450681","0.12773923542056084","-0.19529392140000398","-0.7180879782282897","1.154170545739435","0.5383622791801651","-0.2755406517192573"
"-0.15963886120452628","-0.0019401644108962036","-0.10150843892568735","-0.027282705079633745","-0.16149817368541217","-1.0203320622022864","0.9618544230765794","0.6946425844165551","-0.307410373048378"
"-0.0840094025874197","0.03082472203466133","-0.1097012942714306","-0.13279043368115112","-0.07451857881313606","-0.7583257083735351","0.7077084719308389","0.8243792484123903","-0.32542085146103994"
"-0.03220009427186896","0.04247497648796955","-0.08878442032595853","-0.08696932924588678","0.14982908712878293","-0.4828744193816561","0.5155316683948038","0.9073347236214415","-0.30423974436230133"
"0.03504898486970236","0.11260294360286359","-0.09723336694038646","-0.06880416980384435","0.17308236131580754","-0.015220016205333406","0.3973611850257559","0.9384694121541006","-0.3082275453901503"
"0.12269250312556462","0.00983889100106129","0.15686699865549633","0.2217998712848573","-0.1861180204908796","0.24441405890104284","0.38894630976580474","0.9086407974200573","-0.43861556424334236"
"0.12489543375975863","-0.11752489824186156","-0.13532487790506723","0.285196932407313","0.3094859336722587","0.1385509692348335","0.5409434771268414","0.8411603178249082","-0.48691044964208685"
"0.10054688820818274","0.05573835907661905","-0.02512302228397825","-0.15200691568577093","-0.18079293454335701","-0.23948468967499031","0.48465854989140716","0.8672290231386941","-0.46103877330157506"
"0.07218203809040193","-0.2413400133305153","-0.17492608820368757","-0.18156332838826736","0.7542801913563385","0.2777351707764481","0.49064927234468353","0.9153030930594611","-0.2780085121914097"
"-0.03645575572428924","0.3472492061743978","-0.030684746369202993","-0.03035580180101383","-0.1422680318479541","-0.4845489690680384","0.42160271309250213","0.9465301302445477","-0.2591645179901399"
"-0.08713856542008164","-0.04035234966277918","-0.08582078346658328","-0.2365267030197175","-0.032868030163816495","1.0823926983372185","0.6497238513481957","0.8962660779947885","-0.14649933288530592"
"-0.06015073951253869","-0.0019727801375219053","-0.19186115597154607","0.2707749434078538","0.07479922445245307","0.8655991860407906","0.8851731756746416","0.7786270874669402","-0.1757557370654387"
"-0.05568325780683054","-0.0033767105867989564","-0.023695933036711147","0.06031210447489181","0.12841625837710438","0.9594467749863057","1.1343593659055764","0.5853941285949659","-0.21765052868342227"
"-0.0508884175278593","-0.09191324310141745","0.05376134947957339","-0.13845140132579864","-0.075526156873319","0.8746029242096001","1.3168674220402772","0.39072316927805106","-0.21819639980772612"
"0.04489188691225717","-0.12669677295857978","0.01508062207170116","-0.15004290650293403","0.07718294831929916","0.6134459796420573","1.5283538565536168","0.18533976627956023","-0.2454687095420357"
"0.13388624069249627","-0.21698209010208466","0.005479471273408797","-0.09768858328593874","-0.027662369739341688","0.10923664218872861","1.567084573809683","0.09735788584553301","-0.21371829537481385"
"0.08537940268957035","-0.11750412389369233","0.04961225787644806","0.16252337844796136","-0.10761548378764851","-0.4921451147468453","1.4528428898169699","0.1902210521935788","-0.17583418561024883"
"-0.07175271247671611","-0.009594888480815036","0.028760645899447254","0.1337467929210031","-0.2712715297101401","-0.7583257083735351","1.3411089501070235","0.32833505823104026","-0.18901680982771998"
"-0.12736515715811744","0.03604012214254833","0.005236391093375022","-0.03400847378125068","-0.19452806634238276","-0.8953475566244734","1.1366999272361589","0.5185337042375436","-0.2580041332648232"
"-0.16137193600415445","-0.006901494240673434","-0.0988215458566649","-0.05122243661905641","-0.2553082383528476","-1.0993756611667402","0.878485857587263","0.7469910776782466","-0.2927503012369824"
"-0.09562100374492832","0.06730551613725033","-0.08369976949126735","-0.12685989614866325","-0.06540490362744342","-0.8014514300068892","0.6007392463581492","0.8682976289739252","-0.3544304695939575"
"0.0042994238276331835","0.04827309706200366","-0.09298514323325417","-0.04297070980234317","0.06905531152029386","-0.5183554576641343","0.3684106704724805","0.9340498695022189","-0.3647595279939597"
"0.07357620048476947","0.1719448691482897","-0.1075534320179461","-0.18345031760314987","0.1382479226793169","-0.06023992049118234","0.27863342514942624","0.9536145911521908","-0.3408817521673724"
"0.12494453754574811","-0.05508240123217682","0.09334603776085926","0.1021300960757268","0.018657262134706813","0.35918138450832","0.3369802754618024","0.9156592950045381","-0.4178103564218191"
"0.10735960524552103","-0.16677049057703835","-0.14856727479866588","0.2652776431951094","0.543622184569399","0.020212241716715363","0.4922375103904358","0.8319386452468027","-0.45513878899397886"
"0.0983498307719208","0.07089532350089452","0.010363214377312498","-0.0037156539101503667","-0.3108087970598361","-0.2562034908191758","0.39323733887187245","0.8724401256685247","-0.40030652486105583"
"-0.04301255538288245","-0.40080390987758","-0.14246445464573637","0.18439704934700757","0.6749184610103386","0.19760190107404413","0.37362120581556285","0.9023478963903632","-0.2766683495509031"
"-0.037514856990728665","0.4054693169186851","-0.17497152375135744","-0.19780491413064893","-0.2478411515410406","0.07523842978796004","0.253751029099306","0.9540895270789602","-0.27191240652178816"
"-0.20506467734144657","-0.19356939971535436","-0.06977790463478759","-0.23515959858852714","0.043971165086143515","1.1072197176005394","0.6078166580006249","0.8637065816818212","-0.0917210021269399"
"-0.00816812371702517","-0.03249549118517367","-0.2800845980334217","0.26732829984189493","0.15755704331959214","0.9551754598442289","0.8665044126807102","0.7442601960993228","-0.17102104051720984"
"-0.07608539947578649","-0.018473844888347014","0.06002938980584785","0.04082412708323277","0.08857025570730483","0.9345226803788467","1.1051580769240246","0.5599322858542743","-0.18644598564050424"
"-0.02670239587971521","-0.09096385539008331","0.10647897628961683","-0.06026361810730214","0.00962783100535251","0.7747852015995913","1.3188178898157623","0.362543637623068","-0.25082936010406215"
"0.0544546085288721","-0.09935980820268055","0.015265255615414157","-0.19487815534838218","0.028814414836408366","0.5359798550198478","1.4249790644528935","0.2225826585370589","-0.2503880870395051"
"0.14424232543960763","-0.24096607506346904","0.026091100948626045","-0.10739309924819164","-0.055941807071711105","-0.01917850605092507","1.4584156548897853","0.17328167080547097","-0.24069642306608538"
"0.08434244626779283","-0.0931597039915717","0.06605992613293893","0.1468594424652377","-0.1510633985253229","-0.4695265595626663","1.3617281808764403","0.24870413450937465","-0.18359405416771882"
"-0.06614910395791838","-0.016886684688217295","0.011645426185077738","0.10434442015441547","-0.2956831596718168","-0.7203935176515698","1.2580747505220757","0.3829131118156213","-0.19804492985962063"
"-0.10414195484310015","0.03527770356473733","0.01918778905584021","-0.04424442752238886","-0.16424807200168337","-0.8266182129746935","1.1136286798347037","0.5450641528134662","-0.27817194665976414"
"-0.15993733519779557","-0.009393377303573433","-0.09785707309476371","-0.06966294244653579","-0.23933537380733486","-1.0106973342965793","0.851207172555832","0.724998905735898","-0.2923253716192608"
"-0.09466781260513286","0.033692620799424526","-0.07767336366850991","-0.09525956604657723","-0.044324743166419066","-0.7911614435282499","0.5851633679796309","0.8468595489461407","-0.3249959218433184"
"-0.0161691523753085","0.05473391934263643","-0.09014335625172085","0.008573555901691851","0.0946588034153936","-0.4704245064959438","0.33725891371544314","0.9291421982589354","-0.34738644400788005"
"0.07110368043729995","0.15658223867713872","-0.10062864150262543","-0.15044726133469458","0.05186425877375232","-0.06296045701065278","0.27690586797685335","0.9385485681418956","-0.35496980333952727"
"0.1151276316251877","-0.060933496394042476","0.09542781194500576","-0.03749073908238846","0.05256549481088676","0.28246759380318087","0.32251895009784637","0.9150788177607089","-0.4189217108066294"
"0.1089203353845195","-0.10283743408621084","-0.10373478076151069","0.1279510403324354","0.3946155099209685","-0.11435699796457362","0.4109030041526969","0.8828491380635537","-0.42728955558637804"
"0.08303782607140608","0.07966936945017185","0.09501682676381017","-0.07596317582520472","-0.18723329691854057","-0.15902621756972365","0.32979140851787064","0.9322160891183039","-0.3478113736256017"
"-0.23548976826825205","-0.22564499328865661","-0.09990373799207442","0.2368091375399687","0.5222739748382073","-0.058332389978868526","0.37094627858061135","0.9289838862833456","-0.24486400200912423"
"-0.01061368482316714","0.3106759662224557","-0.17805287998424096","-0.23565060088423634","-0.13286237442154336","0.23035026841903455","0.28877585758195","0.9742215333081288","-0.24571386124456743"
"-0.16000473255111441","-0.15503298386141934","-0.054207968549191826","-0.12017841392862007","-0.08291187158525373","1.107074104584332","0.5504450415759913","0.9109099357368443","-0.08763350607339472"
"-0.05123503248778493","-0.01314834073516306","-0.21581395060223182","0.23830139941908496","0.050401954273106786","0.9599321517069962","0.833179277545275","0.7751706093332298","-0.1839552443427822"
"-0.06671716736446315","-0.011922654193178063","0.014428415437421929","0.054130289296952745","0.1681425961941506","0.9941269416796444","1.093399542620384","0.5844838347353246","-0.21345026284671248"
"-0.030476647665572086","-0.10582894022258099","0.09808579148369283","-0.08573123326101999","-0.016035732645829394","0.7884242874509954","1.3723164345147887","0.36117160050128977","-0.21261838140278824"
"0.05209570116271155","-0.1279536210228186","0.0005243117495767344","-0.19403093570088392","0.01372300159627653","0.5727956792842248","1.4834930977174536","0.2174902899889206","-0.21887628719608074"
"0.14711826678765727","-0.2544590141993886","0.053121121307861674","-0.02876533946275572","-0.03769770362094037","-0.14862944821253235","1.4623165904407556","0.173664258079813","-0.2171929121720297"
"0.07268462978229408","-0.06868440569598488","0.03583909117597874","0.17490433829662924","-0.15163778981853884","-0.526679668423977","1.3929356652842055","0.2752609684145624","-0.22145038007266357"
"-0.16534837984996792","-0.03276867386359914","-0.026593481826748398","0.12690164326905687","-0.30099627913406407","-0.8816356642649658","1.2577403846177067","0.4197338388048806","-0.24898255061165672"
"-0.13203483092378224","0.00362648837583626","0.007362155148674628","0.02504273564937865","-0.1306916539925982","-0.9066082965444939","1.0523839916844635","0.607505034519007","-0.2899719152749565"
"-0.14388713691457256","0.021130372461486788","-0.11747696867947784","-0.014518570890392782","-0.1870873057981815","-0.9711876692323697","0.7683401559230688","0.7800650879118808","-0.3232798599255965"
"-0.06823842191080343","0.04782021627191428","-0.06830951034418424","-0.15925642016947772","0.01346356819550734","-0.7366779066307374","0.5013489812844888","0.8801446418138947","-0.3417152679559801"
"0.0006541898324152837","0.0662740697506477","-0.08206615502731905","-0.06156910656412903","0.19300655929923485","-0.3299079458560337","0.3355034927175063","0.9370973750323225","-0.327398408528129"
"0.0815521958403915","0.13743867683918667","0.12088411015313062","0.02455847260086544","-0.11709294012571123","0.03044786600263738","0.3108440072702986","0.9371765310201174","-0.3306507544483829"
"0.12023923946475763","-0.10349182605354179","0.06036189540470459","0.048694605058571795","0.03122685826791525","0.41917394718567025","0.39641381496337724","0.8786011000518943","-0.42058874238384497"
"0.08541695264356229","-0.1125182803330754","-0.05033149023208568","0.028716588120802963","0.3090790731728974","-0.11579128617421415","0.4851879625733247","0.8435086121294902","-0.4116815638585266"
"0.05631670111913925","0.050592553035099","0.11580152457060627","-0.05446208902113787","-0.13639727417187636","-0.1453094714430091","0.41232405924626486","0.8838122025817249","-0.38902954654459776"
"-0.22020982545153042","0.10615666336594928","0.02091537249337846","0.17418227609705683","0.27672169698840043","-0.3155893325956629","0.3611939397031844","0.9159627262910853","-0.2877492065053358"
"-0.01169204247626909","0.16544249817131843","-0.14060985819993918","-0.3749797229137244","-0.11003989370443071","0.5976712362196147","0.37141996361180063","0.9501053423599506","-0.20987595102380036"
"-0.10860943654880825","-0.11562404538437632","-0.10520730555644767","0.018746353269107428","-0.17842117716178627","0.7787652907092537","0.6456835966704046","0.8765826223631243","-0.05906516100503425"
"-0.03371172062487799","-0.0168347488177942","-0.19945715344108064","0.1732965464655814","0.13362885936303887","0.9971605461839603","0.9195014085231834","0.7418591311362109","-0.1618098738807522"
"-0.08541511881378473","-0.0354932296259946","0.058057073986542376","-0.03168920999622417","0.0241618453613594","0.9930591128941253","1.2178672505217136","0.5395232336678235","-0.1974222445351901"
"-0.016188408761971043","-0.09822552879264018","0.1025013006163369","-0.1256757141413645","-0.05434069134187173","0.677612782117346","1.3907065592550796","0.3614222611293069","-0.21163450590329438"
"0.06682106004355214","-0.1636231768293989","-0.007155741483147098","-0.2224127938920759","0.004181883556549046","0.4893594209975217","1.4818212681956093","0.2336908821576093","-0.22335602597367663"
"0.1495956009317924","-0.23544009845045194","0.04482913385811144","0.020572689259225854","-0.005914958059364841","-0.13669403465075208","1.4439264657004651","0.18923160234614256","-0.21509931663240905"
"0.07297925249823087","-0.0619161230624474","0.02477698099488356","0.21175839296280397","-0.15763778553559013","-0.5115844524105013","1.3790037526021675","0.2747068764999981","-0.22664105878760138"
"-0.21536684420590285","-0.050340656262548425","-0.03899119058412091","0.18119109318090618","-0.2983875853440418","-0.9441521858899068","1.2915113409589674","0.41390268103732314","-0.25401633223697423"
"-0.14457073864109254","0.007091171840457133","0.014485829447659302","0.024394805168962364","-0.20327796037570534","-1.000455885490009","1.0686564656970845","0.5805788060041098","-0.3187200382585069"
"-0.14983736039329593","0.04031756043059427","-0.11296232744282676","-0.04965026652318747","-0.3276815412980538","-0.9521123641092316","0.7435970789997693","0.7611468068289006","-0.36974427927877085"
"-0.06577360441799893","0.04743381339596648","-0.032120096625137345","-0.1922017114619672","0.01422367934019641","-0.7242037249089904","0.42497423596155554","0.9151052030899739","-0.3748924650319365"
"0.008669660780695516","0.06650362629791777","-0.05925131434054676","-0.046456826101878665","0.037683973722484235","-0.30347918341443403","0.2684909927169025","0.9662267785408443","-0.3811193182762417"
