"AccX","AccY","AccZ","GyroX","GyroY","GyroZ","MagX","MagY","MagZ"
"0.07266633621496468","-0.04552723979173617","0.012887324270546804","0.027108796289755113","0.023889009497081833","-0.14257680050552138","0.0506237421951892","0.7336796790640716","-0.4229748856218201"
"0.07959574695547793","-0.04152713905174954","0.012697114545983417","0.0049537136827955556","0.019260372992583527","-0.029508293420661053","0.04154013512650018","0.7421097917642281","-0.4261455143078968"
"0.07952160986682717","-0.04190834834065505","0.00898961516116583","-0.026453777674524642","-0.010021855805858685","0.08573227448928943","0.04240391371278664","0.7375715151306541","-0.41718930544207206"
"0.07540363157904405","-0.044201836378538834","0.0009596669063407064","-0.06107232777082322","-0.025413149166990338","0.1877414729932159","0.057199604981111","0.7264764841747361","-0.39854143260282765"
"0.06428499392009628","-0.04878154143244717","-0.010267663448099438","-0.08792533959812061","-0.03790352716767608","0.26785775451039573","0.08486838356763884","0.7098537267378078","-0.3722121397509233"
"0.04970116948122531","-0.05348069898832863","-0.03149432521859331","-0.10567940496120651","-0.05566179131626834","0.33627160329172673","0.12766721932686032","0.6856583798018346","-0.3357172229673713"
"0.04016540680593793","-0.06016172935955531","-0.04421834381832211","-0.1269754261005948","-0.06937059684768836","0.3858285664742304","0.17860229209239187","0.6533495441168843","-0.2947932320914133"
"0.027750814324601556","-0.06060526169296853","-0.06472836308693221","-0.12045761131245473","-0.09745833108594695","0.4313811717110372","0.23154356028413706","0.6130063756707522","-0.2631359755711534"
"0.01561447663053881","-0.07209555366537362","-0.07062878852751413","-0.10101969689996602","-0.1204650956762997","0.4470588397893415","0.2917572868959062","0.5631249106953351","-0.24622050809646628"
"0.0068037169130958685","-0.08027856940923615","-0.06898691305489858","-0.07817749990389337","-0.14916312066360024","0.45693625605539395","0.3396273388713894","0.5113964726713703","-0.24888448993064405"
"0.009606483991827855","-0.08345081237467869","-0.08217148288782648","-0.06281009079779411","-0.11854567143813652","0.43703581050708196","0.38953145009845014","0.4608026038057991","-0.2614526005471024"
"0.008513684048728985","-0.08668226223240354","-0.09456919164519897","-0.0513995825453515","-0.10825449410135124","0.3880855682254414","0.4372064552963851","0.41195016667171575","-0.27992069547115694"
"0.011944209332659605","-0.1076570828614739","-0.09208882379285775","-0.03176911821297685","-0.04452338682198957","0.3071732688863291","0.4732622453174998","0.37235898010963514","-0.2979638607774899"
"0.017726902247418897","-0.09977114029643142","-0.09060390748491991","0.001528828257783803","-0.018282320591420168","0.21245928249438142","0.5068381548812119","0.33775462077863294","-0.3139967821230629"
"0.02249382076572947","-0.09920088443918586","-0.07561637251036515","0.02764793606543583","0.007151725872180873","0.05964084886856966","0.5244759563366724","0.31629015542158356","-0.3189978768547095"
"0.021365396507304908","-0.08040113806343466","-0.08512272823420083","0.045223892752627184","0.033512456955503596","-0.06739194647055738","0.5323056912639778","0.30887587789812826","-0.31416021659141735"
"0.01865024598788746","-0.06417221727362656","-0.08420782152430312","0.03984115974221489","0.06508243840888374","-0.15954071689365562","0.5267886538418908","0.31979940421382397","-0.2998433571635662"
"0.013612775236968284","-0.05927258725791196","-0.07634127602091616","0.0517003093079918","0.08806048343457569","-0.19694142010646484","0.5115192775423768","0.33842744667488955","-0.28224146492179036"
"0.010001239918409828","-0.0673517312609283","-0.060316984458621756","0.05832402655206917","0.08452797698129777","-0.23778344426896997","0.49156877858169823","0.36461488597036773","-0.2620899949736848"
"0.009266608767234116","-0.07658696773956271","-0.05715301813906575","0.06763670342735413","0.05384112214123712","-0.26438208856281137","0.46468018710536435","0.3946545833385309","-0.25551992934583534"
"0.012217650023267617","-0.0786841381872472","-0.06461683946992436","0.07150503131786326","0.05695480160987843","-0.30260550531719105","0.44135816527563243","0.42834864880989165","-0.2519734013825434"
"0.015093591371317236","-0.08538074931960084","-0.059457839557227964","0.08826361359513868","0.0039911377812602575","-0.36191854058557454","0.4026831756702944","0.4693118724937505","-0.2605373675243174"
"0.016535894732341107","-0.08491748135542682","-0.062487564485941186","0.1055189746657199","-0.02081993345890701","-0.40875739413221124","0.34818153325816087","0.5156708960122949","-0.28869712642179174"
"0.026295994312247023","-0.07335136301220402","-0.048803203628644785","0.1157241204196763","-0.040706078019158765","-0.4384867182745066","0.289834682945785","0.5591539186409578","-0.32743109542179993"
"0.03221637039164344","-0.07231576175596754","-0.036857785095804105","0.08101892285942905","-0.038942218089574876","-0.4176883257929171","0.22831135654190438","0.6012253261539452","-0.36554401344206117"
"0.04175887280226271","-0.06332150771609629","-0.016562552052542454","0.06583828717561915","-0.016164970686802973","-0.4043890036459964","0.17464562889069307","0.644154256868044","-0.3964167845142196"
"0.05969812261708042","-0.03880154457194562","0.0195504473363324","0.0633043302299198","0.018396392755704576","-0.3512402527303828","0.11721828481533188","0.6789301208392684","-0.4239391489851115"
"0.06714456733948274","-0.029077072193925687","0.027895098716336338","0.0438827825606214","0.025760567794143714","-0.26115433337021926","0.07422440227856185","0.7088642768903717","-0.4400701310116972"
"0.08379941616390935","-0.03163751060578417","0.024627869788439737","0.01324135105956754","0.04797036446515938","-0.12885520061159994","0.04677853429494652","0.7308564488327203","-0.4428158300800522"
"0.08378401105457932","-0.04102647726087093","0.024577064585136157","-0.028384090621381496","0.0128525594573489","0.010340649971311245","0.03992403325538368","0.7387060842890475","-0.43385962121422744"
"0.07554516602101367","-0.0498129878190498","0.014511645099744452","-0.05568381826281435","-0.03623061252618471","0.11717740533922577","0.04388069645708246","0.7373868178257993","-0.4143455456927043"
"0.06911642133372634","-0.04833281551199165","-0.014410559294724339","-0.07422637554783328","-0.04264225533670744","0.20885050657604728","0.059818804565334324","0.7283630352171812","-0.3948805005116876"
"0.058650575182638505","-0.05222800579372363","-0.019592276981255676","-0.0973901309101155","-0.06282732269913698","0.27834189167731127","0.08673525986703214","0.7103286626645772","-0.36314152675725053"
"0.0497762693892092","-0.04990439495099444","-0.036101902802750906","-0.11598082567510591","-0.07580617262876176","0.3416835537274262","0.12984059770525827","0.6849195905824156","-0.32725131750660996"
"0.03871540089024904","-0.06238666204848062","-0.05384861467216653","-0.12803445065996766","-0.08262467593864575","0.3875031161606128","0.18308836797600817","0.6529933421718073","-0.28845197471926004"
"0.0252840711931308","-0.06912170572494732","-0.06841070770035804","-0.12116041852003852","-0.11916074878128856","0.4286387932391357","0.23600177234238912","0.6109351273234525","-0.2602104985876085"
"0.016605217724326226","-0.07928347813192971","-0.08960845594051653","-0.09016180691759616","-0.13922615129096477","0.44730152814968677","0.29142292099153727","0.5650246544024126","-0.24842687341925154"
"0.009526569987178332","-0.08310595819506934","-0.10191942410688294","-0.05963301711967559","-0.1177367370335241","0.43240046282448735","0.3489338565429909","0.5142592808966191","-0.2563207582407722"
"0.009227133174575908","-0.09649294815532579","-0.07731814029581824","-0.0434848180884387","-0.10322378369160178","0.40082670714356794","0.3940453898074307","0.46449654990289435","-0.26877446472938243"
"0.013319115340364623","-0.10502912781806535","-0.09109956800495479","-0.032752085553994725","-0.04971444813442847","0.3273164027949863","0.43447580041070566","0.4204198573657696","-0.2851179115648289"
"0.012100186064626154","-0.10411505649861894","-0.07756184005150206","0.0007347523881740622","-0.03744880072721347","0.23940497114351653","0.4717018710971118","0.3852877914494682","-0.2956921216673628"
"0.02395056641675025","-0.090522400491487","-0.0733569866398728","0.03295076085909545","-0.015323008782830636","0.1347213469085852","0.4923211018665282","0.3568312138372029","-0.31103861824584705"
"0.02360587709549087","-0.08184183910897126","-0.0668431813057477","0.03977087902145652","0.012081678475912034","0.001401709594713992","0.5120486902242942","0.34246440205242923","-0.318540260343317"
"0.022040332859826765","-0.06942293377340125","-0.06436487870557331","0.04229039472316443","0.027253985156505116","-0.07752661239857575","0.509095124735702","0.344179448454652","-0.31819704795977266"
"0.0200983262649101","-0.06521716698653919","-0.06780765406764894","0.03515642019138924","0.04791053203878271","-0.13571600055856067","0.4963613565443192","0.35300534109378295","-0.3059231193863523"
"0.014890436492027486","-0.0745012231833713","-0.0682000519793432","0.037277357558933195","0.07711114940764717","-0.20087539842766164","0.48928394490184385","0.3713563375975664","-0.29074005727622254"
"0.01243717283122052","-0.07682483402610048","-0.06382791314220218","0.03918841551380146","0.08357783805043643","-0.23286172432116797","0.4693334459411653","0.3963300517468562","-0.2709808300521677"
"0.014594850956757577","-0.08087375448428481","-0.06176472622755698","0.050440070082338126","0.07832215771751073","-0.27469634387748526","0.4461507432382537","0.4297998419194648","-0.2575301733065952"
"0.014012345260215879","-0.0833469406338325","-0.06550283264948673","0.07133943838676134","0.06358902104652232","-0.3346161000467319","0.4136615228637403","0.4638105313420053","-0.2563207582407722"
"0.02087435864741027","-0.07936449808978972","-0.05582093049147201","0.07710727123694557","0.02765845235881132","-0.38283827724733666","0.36824348752029584","0.5086919764217114","-0.26207365152684936"
"0.025416940261102302","-0.08094646470287714","-0.05134552904599037","0.09002929636049303","-0.026151481308478303","-0.4072527262980706","0.3162774532162935","0.5518979530930923","-0.28235586904963844"
"0.026861169260792427","-0.07690066039691819","-0.06207038354824516","0.10105181652436539","-0.03836304020224881","-0.4221295227872355","0.2551999480182379","0.5989957658310556","-0.32166185868888725"
"0.04037145014322706","-0.06988308558534986","-0.031921832417123396","0.06876600870748534","-0.0005458354460290073","-0.40866031878807313","0.19105742203013423","0.6422413204963339","-0.35683295627876815"
"0.05194453852741065","-0.053527441271709414","-0.011358116592176181","0.05888242131973848","0.0231518740041214","-0.3620398847657472","0.1342988097635103","0.6792335521258155","-0.378569740569912"
"0.0636562728955645","-0.03933544531989502","0.0030286365270529806","0.05536357153382238","0.036954018120689","-0.2878743218442333","0.09152783782965311","0.7098669194024404","-0.39558326872561184"
"0.0758628964009455","-0.029867536141765162","0.011390099059694767","0.053270553904661885","0.033988723069461796","-0.17389330652447474","0.06062685550089257","0.7314369260765495","-0.41714027510156576"
"0.08408055940918235","-0.03637406198837025","0.025846988142508867","0.01911797461448735","0.031037787800565007","-0.045593677944345413","0.04560825362965538","0.7407509473070822","-0.42625991843574484"
"0.08038911008597438","-0.042780870963763006","0.017501923712071564","-0.011252924249126727","0.0065708726769162715","0.07257128470776554","0.04321196464834488","0.7384554236610303","-0.41934664042435105"
"0.07425209965662444","-0.044673414081980514","0.007703747857065334","-0.051024110201573866","-0.008969044431335001","0.1794633730218388","0.06040394489797974","0.7239434925652993","-0.405765236104095"
"0.062484521767149234","-0.04956369564101896","-0.0010799761336028387","-0.08043514771455637","-0.03470368900505238","0.2632466756638356","0.09113774427455627","0.7085476529391921","-0.37830824542054486"
"0.05324915872379741","-0.049811949101641335","-0.010364523774722918","-0.10388869070626698","-0.06457203625228033","0.32100650542600934","0.12176008834967608","0.6830990028631329","-0.34526179591927203"
"0.04103964676041702","-0.05762725888290838","-0.03152323874892867","-0.136689569558842","-0.08340489077859739","0.37568419301179823","0.16695521309020803","0.6556318750983039","-0.30778627232559325"
"0.029048694785656415","-0.06310753192995315","-0.05775194126744124","-0.14688508781680415","-0.10708177854436873","0.4136891902418672","0.22115035342333683","0.6212649837306865","-0.26782654481292656"
"0.017118400428882786","-0.07713644924863904","-0.07661801981126896","-0.13595787986327532","-0.14432626731531117","0.4286630620751702","0.2766272297232126","0.578890144931152","-0.23996096795849026"
"0.010318007479008528","-0.0881780153005886","-0.08741515813936217","-0.09039864331905591","-0.15944711810922033","0.42089703454412164","0.3311288721353461","0.5323332314431204","-0.23549920697241336"
"0.01284059413180063","-0.08560822843205397","-0.10042418153811104","-0.05449000875952133","-0.13361865629094433","0.4093936062637559","0.38225899167842653","0.4839953082297038","-0.24983240984709992"
"0.010807119700236907","-0.09334771184250329","-0.10547785359030003","-0.04450148166543663","-0.09566575159170226","0.371437146705756","0.4281507120530603","0.43601358696136416","-0.27050687009393976"
"0.013673432854955264","-0.1068780448051275","-0.09911894216868584","-0.023103409068508763","-0.07515040923567357","0.2737308128307512","0.46796811849832526","0.3966070977041383","-0.287830923739513"
"0.02372526669279859","-0.09220096782356138","-0.08880300759545984","0.02677761042755124","-0.03176232692437584","0.1513333651742188","0.4885316216170138","0.36887611664665965","-0.3092244956471125"
"0.02641923518688725","-0.07865505409981027","-0.07752466551249944","0.024836707235100664","0.0199233162768369","0.03619229949200987","0.5005130665235665","0.3520554692402442","-0.31422559037875913"
"0.022385022181086144","-0.0759201111633302","-0.07703933125329863","0.046649724909382795","0.050806421475412984","-0.03920126653285107","0.5091787162117944","0.3480976698504994","-0.310744436202809"
"0.02022156713955033","-0.07575080022575091","-0.07896827677710105","0.05695692212087878","0.07763049486859656","-0.1079840016219069","0.5019898492678627","0.35057789080140617","-0.2997289530357181"
"0.014676690600073348","-0.07497903319126376","-0.06095927788250029","0.057989952441067014","0.08512869454211941","-0.17416511748806146","0.4872777494756302","0.3678602814699585","-0.28703009484457614"
"0.013598332946971381","-0.07342511194820481","-0.05852228032566212","0.05738342019342621","0.08800065100819902","-0.22330222980716782","0.4684696673548788","0.3894170954794352","-0.2706212742217879"
"0.012513235558537526","-0.07731095377326062","-0.05241119916406537","0.05256870944667753","0.06338080420273157","-0.27236653561817065","0.4405501143400742","0.4182034897075126","-0.25757920364710163"
"0.015031008114663989","-0.07979764324911832","-0.05711584360006314","0.06285183791818776","0.05539437192997517","-0.31092971607703374","0.41728382016107046","0.45362579424572863","-0.2532155033420374"
"0.01660714336299249","-0.08530388423137465","-0.06310507488381797","0.08653162706576437","0.0263732518402407","-0.35694342919849653","0.37624040539978587","0.49370510939921114","-0.2605046806306465"
"0.01804944672401636","-0.08742286774463685","-0.05380730962883029","0.09613601706967656","-0.036048721949999654","-0.41429068874808334","0.3260855197444483","0.5384942058264899","-0.2835979710091324"
"0.02454751440328884","-0.08123418942502107","-0.0615602662630426","0.10457548005827863","-0.05531236994622865","-0.4356229956224324","0.2692154521763686","0.5832173389306063","-0.32793774227369876"
"0.038573866448279405","-0.06521093468208841","-0.03597179191624175","0.0687130574795167","0.0004268004771499549","-0.4143392264201524","0.19757755716532815","0.6254074804252859","-0.3643019114825672"
"0.05000349475182711","-0.05033961754513997","-0.009867830628604633","0.04540777792611829","0.025518844791582018","-0.37730498263146456","0.14257436589664138","0.6691147783527012","-0.38227970300155834"
"0.06299963011037206","-0.04453110979702124","0.003285553896604395","0.0495716699436524","0.026555142416425745","-0.31204608253462196","0.09932970893159457","0.7049064775006268","-0.3961879762585233"
"0.07044414919410813","-0.03596792348166167","0.010235313310621831","0.05244740299714937","0.02456631256366561","-0.21734665744429496","0.060571127850164365","0.7297086870096943","-0.41516271803447663"
"0.08162729574837539","-0.03494998042136904","0.0171258412924951","0.015182254252018119","0.015082872982965227","-0.09174815031480847","0.03699833159215567","0.7437984528371858","-0.42367765383574435"
"0.08349035115797566","-0.04225216380285592","0.016537244424953676","-0.005785276724044716","0.0002650135962274694","0.02416709123690185","0.029558690219947406","0.7489435920438541","-0.4232854111116936"
"0.07611611788555785","-0.05057332896204388","0.004345647833829003","-0.039548134976370046","-0.0074866362354269085","0.13109315592142345","0.03797356547989823","0.7428485809836471","-0.41027602743067826"
"0.06904420988374182","-0.051924700310452765","-0.0011636188463587252","-0.06397212956430592","-0.02559288577582582","0.20978728364698004","0.061128404357445834","0.7305530175461731","-0.38670877709396434"
"0.06009191572432925","-0.05730733392110213","-0.0033682755344305467","-0.09026770937353346","-0.06067335534957727","0.27654599781075634","0.08539779624955636","0.7109882958962014","-0.3588595436863635"
"0.04962221829590892","-0.05876569316258257","-0.026281628749559787","-0.11120558766193386","-0.08859834538809136","0.32226848489980475","0.12655266631229736","0.6874921601857495","-0.32651586239901487"
"0.03820799510169124","-0.06456173630179975","-0.05110182929030655","-0.12990218488286157","-0.09563703202704148","0.35978810540918316","0.17007596153098462","0.6555395264458765","-0.2917696944268557"
"0.029748664440839567","-0.07286524326504387","-0.07073824689235517","-0.12231571803935433","-0.11858396419101756","0.38471220001664225","0.22204199583498727","0.6221093142671653","-0.2633157534863433"
"0.02194597656518035","-0.07791964217461927","-0.08601285191809681","-0.10840398632759297","-0.12730274536262426","0.4000258355544286","0.2759306340891108","0.5808030813028621","-0.24216733328127557"
"0.017039449243566405","-0.07569782563791937","-0.09975710508823075","-0.07807737394555267","-0.12499321370448523","0.40274394519029566","0.33007004677151136","0.5366736181072073","-0.24015708932051563"
"0.011915324752665803","-0.08018716227729152","-0.09132674574330411","-0.04359938529077086","-0.1124523371359376","0.3903911076487215","0.3804478430297615","0.48692407977811497","-0.25185899725469535"
"0.010238093474359004","-0.09259775787359381","-0.0892945376111611","-0.03744548985121525","-0.08228722105388141","0.3512940127970988","0.417506730763983","0.4425043779605457","-0.26869274749520516"
"0.013981535041555826","-0.09899210224008502","-0.08194017464514353","-0.004730584537869315","-0.050327132180525466","0.28455471370215013","0.4571012266063354","0.4055121463310642","-0.28434976956356295"
"0.02134902857864176","-0.09345366101816642","-0.07562669877119921","0.023923057865241733","-0.03080357212411626","0.17860668310982","0.4866090176668926","0.3715938055609511","-0.30329182444584546"
"0.025400572332439142","-0.08743740978835532","-0.06634545553354602","0.02071228795114318","0.013642347485520793","0.05639125172354652","0.5032994490599741","0.3544697268679885","-0.3120682553964802"
"0.022389836277751783","-0.0756261541367355","-0.06808852836233537","0.033151975525376284","0.025322594433066573","-0.04148253712009658","0.510181813924901","0.3508417440940558","-0.3079823936876186"
"0.01943879502171827","-0.07079300203516246","-0.07202696424444587","0.04036874652270245","0.04003179813350431","-0.10373938219946814","0.503215857583882","0.35473358016063816","-0.30087299431419934"
"0.016920059646258676","-0.07080235049183861","-0.05931327190555112","0.044692454973741906","0.06119093739734586","-0.1630791131874896","0.492293238041164","0.3680845567687107","-0.2910342393192606"
"0.014888510853361236","-0.07668045230632428","-0.06466227501759422","0.05083768566690265","0.06427589730132638","-0.20543551271854923","0.4754077598705338","0.3889949302111958","-0.2799697258116633"
"0.014032564466211546","-0.07312180646493395","-0.05572592889179865","0.05311073747115653","0.06612830922194772","-0.24229744777139198","0.4580764604940783","0.4136915984032034","-0.26879080817621787"
"0.017640248507437502","-0.07174031231167967","-0.05774781076310761","0.052932628795262004","0.05556668931793995","-0.27557002197472824","0.43227455820694344","0.44530122286263196","-0.26202462118634307"
"0.02008195833624695","-0.07795599728391545","-0.05985436797325587","0.060552791874749275","0.0384905148300416","-0.3062700995584046","0.39875437629395954","0.4808686467118054","-0.26280910663444446"
"0.022672905161691046","-0.08208593769995981","-0.05731410780807709","0.07462722826881427","-0.0006178736873865041","-0.3474785831450311","0.35556544697964126","0.5206313379141082","-0.27552430827242186"
"0.024822880732563092","-0.09071144705982707","-0.056200936890165414","0.08474861480762029","-0.03366978467726372","-0.3951911147889108","0.3060792931330413","0.565446819670652","-0.3020497224863515"
"0.03125355105851668","-0.08128716401285263","-0.05511461425042229","0.08379356720498587","-0.02846412425278891","-0.4114512349320437","0.2418253118434815","0.608349365055486","-0.3383648613547136"
"0.04362385385052924","-0.06214152474008362","-0.03497014461533792","0.05345925282615015","0.020141106308847943","-0.38562919339130725","0.1785744282670279","0.6491410840991224","-0.36376257773699744"
"0.053890396399659826","-0.052615447387079906","-0.010016322259398415","0.05008096448175079","0.028201730790311387","-0.3413385676282958","0.11950311849518595","0.685750728454262","-0.3803675197218111"
"0.06240942185916535","-0.05082158242266627","0.004495998191572916","0.05937438636504714","0.051366452986298515","-0.28865092459733815","0.08319655404579444","0.7174395089014853","-0.39558326872561184"
"0.06819404041259089","-0.043571334911602484","0.012150029246994917","0.04398483401816097","0.04001983164822898","-0.1930050149016646","0.046109802486208634","0.7401572773986206","-0.41037408811169085"
"0.07815440641378718","-0.04099843189084246","0.02116464842991267","0.012866841465389326","0.013102658999603334","-0.08423209179491552","0.027663950095190175","0.7532048227201461","-0.4133812823294131"
"0.08073957632323252","-0.045650847163343125","0.01197640349733103","-0.017793845027653136","-0.010747742802660307","0.024206406751277786","0.01955557691424403","0.7564502182197368","-0.4127438879028307"
"0.07769899286921823","-0.05027313963099841","0.0016587547648065737","-0.049578060303230226","-0.023721806138174952","0.11742494746677795","0.02239768710137988","0.7548011351406765","-0.3962696934927005"
"0.0717064053398373","-0.0511529332759656","-0.010750932455133451","-0.07196872773717027","-0.04179742147626902","0.2075060130597345","0.042877598743975946","0.7419778651179032","-0.3736013327319363"
"0.058489784354006334","-0.05936711054208199","-0.022845049143984594","-0.08989416252895466","-0.055939413774656034","0.2752840183369609","0.0750324532141201","0.7225714554435211","-0.3417316114028156"
"0.05135047899887144","-0.05644000488503647","-0.03404284639243933","-0.10209797645132747","-0.07723975756474649","0.3279716613679186","0.1166610083080501","0.6975449706357014","-0.31192116437496115"
"0.04023472979792306","-0.05712971324425514","-0.05157477203650651","-0.11914827185723013","-0.09300440526646848","0.37925171190887363","0.17286234406739226","0.6640883731277254","-0.27624341993318147"
"0.027450414692666007","-0.0644786389091228","-0.0715168469592433","-0.10116410933988051","-0.12077622429345834","0.4245373599493007","0.2273918503048897","0.6223995528890799","-0.2529213212989993"
"0.017195425975532936","-0.0724913049979976","-0.07455483289662378","-0.08606915837041987","-0.13156281412064233","0.44271471813916125","0.28693684510792095","0.573916510364706","-0.24121941336481964"
"0.010972724625534717","-0.08276422016768539","-0.08362955091759575","-0.06857118440078233","-0.1297175820911862","0.43851620950518805","0.33923724531629224","0.5206841085726384","-0.2472174583534285"
"0.008942138651970384","-0.09090776465002638","-0.0797344853309883","-0.054986787552827134","-0.10709374502964406","0.4048067962532304","0.3846552806597367","0.4721087173958369","-0.2599163165445704"
"0.0102275024616946","-0.09835744590351483","-0.08312356413672681","-0.04047430009102156","-0.09867651928697573","0.3264184558617088","0.4282343035291525","0.429285327998798","-0.2805417464509039"
"0.017151136286209106","-0.09807803092063862","-0.0850297918866943","-0.02262588526719156","-0.05227048938923933","0.21787851358089128","0.45632103949614145","0.3987838873684979","-0.29549600030533746"
