"AccX","AccY","AccZ","GyroX","GyroY","GyroZ","MagX","MagY","MagZ"
"0.008809269583998894","0.07215528771735875","-0.0516429253580113","0.11596480781953378","-0.0323199651382063","-0.41399946271566906","0.18205740643753737","-0.4105465098404189","0.4875512244745751"
"0.004507392803588557","0.06601335168112377","-0.06669035264540363","0.12426370936661908","-0.06938017003590863","-0.4123734507013558","0.19919365903644434","-0.3407045432760555","0.4839556661707769"
"-0.0052315247509885695","0.08314180174665983","-0.0814032090817724","0.08873536089885932","-0.08031275098345167","-0.40531121941530845","0.21348780144821575","-0.27296021038825674","0.4721066672150782"
"-0.004605692184456184","0.10369905797752854","-0.07553169717152586","0.015460488886253346","-0.10511448836510418","-0.3531332219410758","0.22151258315306943","-0.22187821293128365","0.4450909495960851"
"0.009396589377206215","0.12239804876465894","-0.08302649728488663","-0.01710836731285908","-0.10467172840991691","-0.21258511181432083","0.2412680353361997","-0.1909031556406775","0.41157054013658445"
"0.02161476671458474","0.10974647072959348","-0.07999470710400661","-0.04249511150022482","-0.033861248441669024","-0.04769535914493544","0.25121542099117516","-0.18206011253752433","0.3926775155948081"
"0.017963755803368092","0.07800534416181595","-0.07341894420487717","-0.04782970703066562","0.013430540696147422","0.03751009728868467","0.24826185550258292","-0.18980552594325495","0.39650188215430265"
"0.013502051013658709","0.06905263881828318","-0.048334391386778454","-0.06296220523450402","0.013568873265930259","0.08373737616725131","0.2422989968746705","-0.20592960065707533","0.40261433127075963"
"0.008610928801374783","0.06995943911587038","-0.045137381032553464","-0.07255600499282247","0.02379567091193425","0.1247201595787567","0.24196463097030185","-0.23376480376515058","0.40720683983152006"
"0.006744022114442012","0.0741122313149009","-0.023222990290511194","-0.05407506368216705","0.021067312269158617","0.17998757988018457","0.2333825727581661","-0.25913429785341485","0.421441982025194"
"0.0064176263605120335","0.08144038263159932","-0.026351847323231398","-0.055275612432656086","-0.0037490242245298007","0.23616750841651066","0.23226801974360314","-0.29499196032450287","0.4273256228859548"
"0.011454134292098085","0.07752130184947272","-0.04193210966966122","-0.05843054286998771","-0.02000022921754679","0.28676317778129207","0.23382839396399144","-0.33673355122167814","0.42513560101000497"
"0.016328888575718858","0.08027494169930512","-0.04482759320753166","-0.055093652758363844","-0.036905522295713415","0.31491502758134315","0.23527731288292333","-0.3831189600694873","0.42423671143405534"
"0.01383133522558806","0.09024455138572204","-0.04867515799430244","-0.07298924231256591","-0.03321266493974605","0.3537694340726205","0.2240481912612006","-0.43747273835531614","0.4146104212479775"
"0.018821627829184024","0.08712528300811108","-0.03698789598231326","-0.0885472758393523","-0.0428935515274894","0.37959147561335704","0.21078501038790026","-0.4937922236713848","0.3974334586239232"
"0.0203428823755243","0.08618420503604464","-0.031031708733227418","-0.07281017088707195","-0.04357324789112824","0.4100003271646191","0.19512554053328915","-0.5543993249930105","0.38234845719480604"
"0.024933604955872657","0.0762852281334031","-0.019344446721238234","-0.0695994009729734","-0.04447073428677811","0.4255809198987853","0.1623576819051356","-0.6131726459307208","0.36010502605176337"
"0.03264289935621859","0.07652413313734933","-0.005841828054621296","-0.0536601186048128","-0.045451986079355314","0.42084849687205256","0.13349075882795236","-0.6728166827341753","0.3384172721011258"
"0.04696483693647908","0.06299899376176746","0.009060659835704163","-0.05004499385895371","-0.054079821962869486","0.38925047235509874","0.09679410082346371","-0.725996313867713","0.3121860399302342"
"0.06297941090437639","0.05309274583726669","0.010237172037571962","-0.0411559268074179","-0.047179946553113215","0.32435560479877407","0.06787145009555226","-0.7752313382761385","0.2831437349036458"
"0.0781120423631296","0.04769972505253271","0.012450523437266063","-0.035665365841869454","-0.04616518860176509","0.24443832773707735","0.0356608679746799","-0.8163132959416898","0.2662609543226296"
"0.08953079080821298","0.050866774430932925","0.011541234213262072","-0.006687084273830658","-0.011069401926861224","0.1316392047322003","0.009942557163637494","-0.8433450657736467","0.2550983801340196"
"0.09175365180260273","0.05119708656682379","0.006832624493104027","0.022619494907613717","0.026650874298628394","0.002137298014920499","-0.0022060706950999005","-0.8493741135106913","0.26036097001503333"
"0.08429623093980274","0.05990569331936803","-0.00017085212977218956","0.04671711738134289","0.04176454520137235","-0.11291785598772618","-0.0074166060381819846","-0.8361682562135763","0.2799567627707337"
"0.07573869270697216","0.0611022957739161","0.006120938596420608","0.06654783363039897","0.04511994767257537","-0.2105246876349895","0.007685587309147369","-0.8073158986623364","0.3110419986517529"
"0.06350607307959673","0.06445839172065637","0.015503792240680943","0.09165826868272832","0.022816812416412112","-0.2886023869252691","0.02944723491849099","-0.7637932980397759","0.3448402467074563"
"0.049684801552562156","0.06519588108066429","0.00684873346000516","0.10907152068761604","-0.004493578938360941","-0.3435955693795068","0.058955025979047865","-0.7107851715464604","0.3839828018783507"
"0.03928346429679383","0.06855717061444687","-0.01963977778109235","0.11660022255515748","-0.030555387219505886","-0.3921575102845949","0.09470431392115791","-0.6514973366880832","0.41598327078215486"
"0.03351617649136456","0.06554800628213286","-0.045449234109742075","0.11528125560393858","-0.04189076006141661","-0.42397395432585955","0.1398715748363256","-0.5816025994651898","0.4441103427859584"
"0.022141428889805068","0.06428596463085169","-0.06143222062870025","0.12098073323256328","-0.04390591618178247","-0.4571737220210922","0.17328030144785336","-0.507380668242842","0.4605191634087466"
"0.009568934037835913","0.07198701549718793","-0.08136190403843617","0.11891082159378911","-0.05408221525992456","-0.46557073928903847","0.19785619541896887","-0.4302563508013481","0.4730055567910277"
"0.002622192549326368","0.08014302458843045","-0.08400336155978873","0.10517238480992515","-0.057526169722165024","-0.45227141714211777","0.22000793658340964","-0.3560871902375303","0.47168173759735654"
"-0.0014091319984753496","0.08213840073008569","-0.0781380454060426","0.08071469398600922","-0.059488673307319426","-0.4263523002572432","0.22856213097018085","-0.2856383611000726","0.4613853660910253"
"-0.0016787214117508456","0.09435891104063948","-0.07352633731755139","0.02762483007504951","-0.06393302593857762","-0.40812640439531356","0.23580672556484084","-0.2297014630583459","0.44206741193152765"
"-0.005433716810945179","0.12129700831168935","-0.038107262656725364","-0.013386377361463276","-0.07672280540085216","-0.29158745375751594","0.23753428273741345","-0.1887527513055828","0.41425086541759765"
"0.014052783672207211","0.12692685666555265","-0.07973655058315511","-0.02913214706013849","-0.051933034504474986","-0.06550625791067465","0.25480985446314075","-0.1712421275388885","0.39382155687328946"
"0.022686384632354815","0.09325994802248681","-0.09385874489981565","-0.034584198041709736","0.005141356345925143","0.08783395568987944","0.25834856028437875","-0.18085562225657867","0.39073264542139013"
"0.01714535937021034","0.054157431180940095","-0.07107901349987916","-0.06510721134203372","0.034587047333228385","0.09429189295866701","0.25327734406811675","-0.19938603899936388","0.4031046346758231"
"0.009147219169926385","0.061407678692003885","-0.052535114294074085","-0.07073544550030063","0.03093008943308702","0.10630982056296467","0.24176958419275327","-0.2241341585834382","0.41447967367329375"
"0.0013791927902597337","0.09368374472513927","-0.04240092191152754","-0.07120141630642468","0.03445541599519973","0.17974003775263242","0.23733923595986486","-0.2541738559516013","0.42520097479734664"
"0.00855893655738594","0.07123186794123616","-0.02066001235149749","-0.06690562759376868","-0.0043705634697305306","0.23696838000565004","0.2374506912613213","-0.2909154269530657","0.43175469697836083"
"0.010155291011710109","0.08169279096185554","-0.027431974206474075","-0.05316815355950414","-0.030525231676612044","0.2873698986821553","0.2338562577893554","-0.3323799718929588","0.43284970791633565"
"0.01084563247356199","0.08614992736156538","-0.03407382517494151","-0.06449490259679634","-0.04058641316640545","0.3295005980380938","0.23483149167709796","-0.38057277579541815","0.43023475642266434"
"0.01529963470860636","0.08440488211534947","-0.04735959236404319","-0.07951379634790202","-0.04942485919076545","0.36602519627005653","0.23263024947333605","-0.4360611232396405","0.4169965644859527"
"0.016603292085659978","0.0830805174195606","-0.04482139745103123","-0.06797716789793411","-0.04355888810879784","0.3983998235401153","0.21958997920294823","-0.49314578310439316","0.39702487245303697"
"0.019638098623675507","0.080904404448833","-0.04096763690776001","-0.06477698822942927","-0.025892765896825633","0.4259206836032687","0.20039180352709973","-0.5526974712554201","0.3865650664783513"
"0.02340272221620112","0.08102801182043996","-0.017562134101279468","-0.06723777620557199","-0.03664943951082131","0.4485635076234822","0.1674567619467613","-0.6177636932228249","0.3703687106644237"
"0.037727548254460994","0.06695546837059868","-0.00203804661378693","-0.05905536736001768","-0.028216418007589547","0.43485161526397453","0.1279179937551371","-0.6794130150504166","0.34387598334416497"
"0.04726042247174899","0.06159568654293548","0.010161129452789944","-0.045117641409071735","-0.047354657238133056","0.39444400326648743","0.08826777026205616","-0.7357984636896477","0.3231688362036543"
"0.06674307167756889","0.047969791578732796","0.009170799733760247","-0.043598422541171425","-0.06997131440851001","0.3293064473498175","0.05586214136363523","-0.7880282229696467","0.29855560526947184"
"0.08343547045598743","0.044786122721797196","0.0010645817164147574","-0.038967596967913846","-0.04939374632904959","0.23283782411257356","0.029753736997495672","-0.8282790427633515","0.2700036036479468"
"0.09764851316967128","0.051073479195216834","0.003832845720809579","-0.009761625119609886","-0.015813634679119237","0.10182979343099104","-0.0024289812980124253","-0.8512870498824013","0.25627510830617173"
"0.09548060027462309","0.05370766654307611","0.006058154930549522","0.030990602674656274","0.02002622805020476","-0.03687388515713994","-0.010537354478958568","-0.852725050327342","0.26057343482389417"
"0.08278749304479313","0.0595089032693356","-7.998103443246182e-05","0.05105622982597323","0.03247137273654974","-0.1603100389959501","-0.0014816112356338083","-0.8315904015861048","0.28441852375681065"
"0.07011293934351252","0.06296056121765436","-1.3892965094476669e-05","0.06522790392958064","0.051694334682842596","-0.25501431785348405","0.01952771308887977","-0.7976192901574617","0.31413091010365235"
"0.06120397205409066","0.0605902080915444","-0.0022522132634853354","0.07496996712621129","0.048142681853124154","-0.3321406787712102","0.048115997912422284","-0.7522497164863536","0.34725907683910245"
"0.04656622973256459","0.06615877211830842","-0.012812054117611838","0.09145031476925149","0.03389777778136928","-0.3985887518337445","0.07678787421205696","-0.6918536977988478","0.38334540745176826"
"0.036473957482729955","0.06724111565792569","-0.029365050234610123","0.08693694464712434","0.02304178233958835","-0.44962611401435437","0.11476626818329287","-0.628014393642264","0.4162447659315221"
"0.025874279444337504","0.07010485955305504","-0.04207048156483763","0.10261147087544174","0.013195518925339909","-0.4800835032376855","0.14658675674906807","-0.5572621332182591","0.44143001750494504"
"0.01824971314530674","0.06799106962683515","-0.052776748797591096","0.10618327188932648","0.01220708724159751","-0.4959310531682315","0.1766518243169064","-0.47871300799645716","0.46159783089988604"
"0.004188699604323608","0.0766446243567309","-0.047202633199365476","0.11047713510278362","0.008586028797282132","-0.48093291249889397","0.18757444385962477","-0.40210320447562997","0.4769443274783703"
"-0.0034021680180477396","0.0830098846357852","-0.0518824946093615","0.11815987690623383","-0.031771900112596105","-0.4434860984976191","0.19785619541896887","-0.3245303364366316","0.4832202110631817"
"-0.00956421175005896","0.10359830238890771","-0.07450526684462029","0.07581622402411015","-0.07387956849943335","-0.3923031233008021","0.20546301974336176","-0.2556778197197044","0.4699003018922928"
"-0.0025837715848899896","0.10517299798013591","-0.0680100487799965","0.01834681218534404","-0.0680303504968512","-0.2890392259738906","0.21482526506569122","-0.21088740402596232","0.44809814381380736"
"0.014092259264865402","0.10402002165674323","-0.07875555580391941","-0.012149244126195917","-0.05541288842254145","-0.1433703914438504","0.22956522868328766","-0.1870706865649413","0.4275871180353219"
"0.016213350255743643","0.09500707070351969","-0.08608307049176843","-0.01710547906406079","-0.007533544857706209","-0.016736575769130985","0.23257452182260815","-0.18003108071704851","0.4190394953403834"
"0.014408064006130978","0.08476427833867728","-0.07188239659276903","-0.04383237069383288","0.011796876126359136","0.06794321767598129","0.2311534667290399","-0.18844008515379299","0.42203034611127016"
"0.01601019537645389","0.0666116529083978","-0.06805548432766637","-0.06046098177518525","0.01226883430561822","0.10533421335437669","0.23143210498268096","-0.2071644340666757","0.4285513813986132"
"0.008907477155977834","0.06539012123604665","-0.05735747810358014","-0.0597880198051838","0.033864271622598356","0.13697106800898584","0.22680670997224398","-0.23493895091744155","0.4375402771581089"
"0.005546274864032333","0.07998617825975271","-0.040643392317570526","-0.062413437962829","0.009950926107786466","0.20433892995722877","0.22062094074141902","-0.2665617680415026","0.44455161585051545"
"0.007280312482993614","0.08237211214698961","-0.02290907196115577","-0.06763346629093765","-0.019505295386559072","0.257689112211929","0.21906056652103104","-0.3069181291522672","0.44785299211127566"
"0.007987984692841772","0.08224227247093187","-0.03403458538377209","-0.06600449396870235","-0.03972003963247143","0.30722180655839815","0.21925561329857962","-0.3535937766219911","0.4456302833416549"
"0.01014566281837883","0.08225162092760803","-0.033941649036265543","-0.07418401456545837","-0.052749148800252596","0.3615111927676346","0.22184694905743868","-0.40599504054221236","0.43618377107076683"
"0.009517904613180195","0.08975947035597034","-0.04886103068931552","-0.08199191381683445","-0.04678983913313741","0.41427164230669583","0.2123175207829243","-0.46933302344276184","0.4197586070011431"
"0.018188092707986617","0.08539789595783902","-0.032051943303632556","-0.07759503639623833","-0.07680417750072442","0.43630774542604617","0.19766114864142031","-0.5328952816420636","0.39547224500366956"
"0.024830583287228106","0.08128457502033004","-0.026023472228708287","-0.07121489480081669","-0.06508420182206454","0.47191012788869696","0.1746177650653291","-0.6021567709625979","0.36987840725936033"
"0.03134501889516372","0.075443867032549","-0.01348945682832618","-0.0537766113063438","-0.05889274234060791","0.47450689334439133","0.14098612785088885","-0.6659037264667543","0.3442028522808739"
"0.052409580265310875","0.061826281807614014","-0.015339922769789743","-0.052787867467729344","-0.05160275951087582","0.4241490585727482","0.10409442306885161","-0.7268670297334568","0.31690929606567825"
"0.07275876687094485","0.04928065294821166","-0.009477704494293845","-0.050616867121015034","-0.044951786994846456","0.34425605034708606","0.06196431911836834","-0.7835163316653376","0.2888149109555457"
"0.08118343603580394","0.04937413751497323","0.00049271339142451","-0.05226220618644065","-0.015618341639425822","0.22795978806963368","0.027608222444461965","-0.823318600861538","0.26369503316946447"
"0.0875293782604424","0.046202933266939174","0.0021676328987090526","-0.029857097508509164","0.026088449490687806","0.11517037259917041","0.008995187101258878","-0.8492949575228964","0.24991750748718305"
"0.08862073397454158","0.047573001528700365","0.020031857616416283","0.004586713535492896","0.06255751001578874","-0.008754555597375124","-0.008531159052744918","-0.8539519681381629","0.25589920902895646"
"0.08544680004288922","0.05143703028817848","0.028254246068144948","0.0416251347499584","0.05271627252535594","-0.13899229342322178","-0.00635778067434695","-0.8396511196765515","0.2769985988935179"
"0.0703026147521385","0.058087937854559776","0.02061425872745727","0.07338816953434806","0.052737812198851534","-0.24045058934916447","0.009775374211453178","-0.8067354214185073","0.30829629958339794"
"0.060778405908848636","0.06320050493900906","0.015079176395184395","0.0869706408831044","0.027481348376736416","-0.3198363789017051","0.03613455300586952","-0.7581996082356034","0.3441538219403676"
"0.05026249315243821","0.06287850254238588","-0.0011791082376098137","0.09920333729346006","0.0005553205290070173","-0.38812888350286345","0.06859590955501835","-0.7041492612363216","0.37605623016315914"
"0.03850550627562741","0.06312467856819134","-0.03112877558506758","0.11483839078820085","-0.003611888303274499","-0.4404039563212342","0.10668575882771099","-0.639360085226199","0.41111292362519186"
"0.025737559099033507","0.0670801144596141","-0.04873298505497318","0.11716824481882109","-0.011923330316108897","-0.4811270631871702","0.15115642410877653","-0.5629613643394917","0.43791617643532404"
"0.016505084513681052","0.07002487831260347","-0.060294266684786824","0.11409707359663986","0.0018862330213294098","-0.4810057190069975","0.1777385135061057","-0.48556000094071555","0.45734853472267006"
"0.004911776923501792","0.08380346473585004","-0.07879892609942245","0.14244042180385466","0.015432294353004914","-0.4517375027493582","0.19133606028377498","-0.4052694439874258","0.4796246527593835"
"0.0003749722258085256","0.08719072220484418","-0.06877419208171695","0.11152653216616217","-0.020417141564539346","-0.42584265470051813","0.19445680872455157","-0.3319050359661895","0.486374496302423"
"-0.00030092694604645474","0.09141103103542474","-0.07656019275059824","0.08428842049909281","-0.02367058958119653","-0.3838818371968213","0.1964630041507649","-0.2666145387000325","0.47936315761001647"
"-0.0038258085246235165","0.10766591976044436","-0.07054824369300847","0.025963124266433588","-0.06214523303844306","-0.2986254162075287","0.2017849947953037","-0.21685180770630774","0.4570053223391256"
"0.008568564750717203","0.1146803784197873","-0.08428630110664195","0.0020122248316575314","-0.06973198470300337","-0.1712552840475217","0.21660854988899234","-0.18990315166153532","0.43948514733152705"
"0.01496361076134512","0.10315788620771987","-0.07468700903529975","-0.03298218270825846","-0.03885605939559248","-0.028692860529900957","0.22842281184336047","-0.18254428332953646","0.42430208522139723"
"0.01358581629564073","0.07696454931853716","-0.06942268126209591","-0.0356056753667048","-0.0031787015363074914","0.06716176115566952","0.23101414760221956","-0.18972768922192326","0.42526634858468854"
"0.014901027504691872","0.07036973249221282","-0.07957752616631059","-0.0576497529448501","0.009952840745430519","0.10747229780901851","0.2349986746292826","-0.2068966229746363","0.4301530391884871"
"0.011036270701521089","0.06985348994020726","-0.06393737150704322","-0.07305856028372486","0.021033806110387687","0.14610343100877826","0.23157142410950132","-0.2358756301063478","0.4391746218416535"
"0.009154921724591399","0.07750779852316271","-0.040172514823537384","-0.0630103427144755","-0.0031530932578182815","0.20358902292376185","0.2287014500970012","-0.2706251087483073","0.4426394325707682"
"0.008420290573415685","0.08178004322416635","-0.03556493723937978","-0.06276387881702146","-0.012171275891013768","0.2517432473834699","0.2255528378308607","-0.30777565235337856","0.4467416377264653"
"0.010135071805714442","0.0838159293447516","-0.037198551703328094","-0.0684864624360325","-0.03342327508059188","0.29785403584907083","0.22719680352734112","-0.35524285970105135","0.4426394325707682"
"0.010552935396291456","0.08538750878375438","-0.04229765930318694","-0.07699909439419124","-0.043061082321344035","0.3517551206817548","0.22552497400549673","-0.4054541412922806","0.4343533050251968"
"0.015305411624605109","0.0855505874168829","-0.03651495323611331","-0.08066717036801897","-0.04728525162353613","0.40866554118272014","0.21281906963947786","-0.46887128018062496","0.4212785475568396"
"0.018068703110678902","0.08179977885492712","-0.025230415396652474","-0.08100798372621713","-0.060778660420000186","0.4364048207701843","0.19320293658316795","-0.5331063642761833","0.3977112972201257"
"0.02165905640390857","0.08421895169923478","-0.01981325896310456","-0.06813120783384288","-0.06759237713577407","0.4496556052450359","0.17247225051229512","-0.5973546410363741","0.368734365980879"
"0.03493922346572591","0.0730714364716221","-0.02634565156673096","-0.054972346308835685","-0.03915761482453083","0.43907439273398224","0.1441904677677576","-0.6574208431080678","0.34962887663024217"
"0.05060814529303072","0.06151778273730084","-0.020531966717155143","-0.04291775857437452","-0.01602831342495869","0.39526914369166133","0.10629566527261353","-0.715613686801949","0.32617603042137644"
"0.061782626473299844","0.060278592869005845","-0.0009868332608796145","-0.050496523421086306","-0.027329701448687464","0.3371695502250042","0.07057424115586775","-0.7648619038750072","0.31029020009732244"
"0.07236112248636349","0.047206334283513326","0.012823507978592313","-0.04976387097592019","-0.023293884624729092","0.2538303672824392","0.035605140323952","-0.8065639167782849","0.28644511116440596"
"0.0876471310648838","0.04094390702789678","0.02124374758790157","-0.02357515637222939","-0.018140637405760243","0.15531588116748463","0.00966391890999676","-0.836682770134243","0.27075540220237737"
"0.09301629307606514","0.0481931158215521","0.030602024731376843","0.015738723520488572","-0.007658953623391684","0.019879758663042348","-0.002568300424832792","-0.8481999663584003","0.2665878232593385"
"0.08685453818985385","0.05443476872899942","0.013432550842585175","0.04196305985935828","0.014795677336357265","-0.10049463882165191","-0.004574495851046133","-0.8387672111461753","0.2806922178783288"
"0.07732349332929879","0.05925130135203706","0.00045987588197219937","0.07568143908018996","0.044234427762200816","-0.19640750571370527","0.009134506228079244","-0.8091232937169865","0.30872122920111955"
"0.06579469463443903","0.06233213718553493","-0.0063969678370603645","0.08289821007751612","0.02406850677621181","-0.290762313332342","0.03493640851521412","-0.7667220695881871","0.3450036811758108"
"0.05152667493683364","0.06541193430162436","-0.018020620082311735","0.09844276510991047","0.011929704112915319","-0.3565551278219441","0.06268877857783413","-0.7146110442898804","0.38024015255303345"
"0.03941729618409844","0.06757246651122502","-0.03280369509235213","0.0977303304063324","-0.005658157285356222","-0.41298017160221895","0.09640400726836656","-0.6535817777000155","0.411521509796078"
"0.030345612427378158","0.06817076773849905","-0.039548808669160156","0.09710454316670299","-0.01906062079372774","-0.4601830576893735","0.13390871620841346","-0.586008949452439","0.43384665817329787"
"0.02028703885420294","0.06270607545258121","-0.05453634364371493","0.10921593312753052","-0.025536164635620747","-0.4911015547973607","0.16865490643741668","-0.5107052197302278","0.45350782471634"
"0.008294161240776084","0.07093998834945837","-0.06762178137263584","0.12713270317292003","-0.014703623504979465","-0.484112130019417","0.19548777026302233","-0.42753866188705664","0.46820058342140647"
"-0.003729526591310843","0.09057174736938754","-0.054701563817059894","0.11681202746703204","-0.030922279658047547","-0.4477331448036613","0.20451564968098285","-0.3522613174941103","0.47209032376824267"
"0.00044814649512615943","0.0861852437534531","-0.07233262156513404","0.08230515632426733","-0.05613327083611642","-0.4140965380598071","0.2133484823213954","-0.28361988341130273","0.4648338333733044"
"-8.236695742667762e-05","0.10628650304200701","-0.07410254267209195","0.04338215276891788","-0.06776469452373884","-0.3631319823873009","0.22276645529445305","-0.22745871007082383","0.44384884763659116"
"0.0035330196384642763","0.11828472782714997","-0.06932561441025575","0.021238911982031313","-0.08620265503596994","-0.252296208217617","0.23497081080391832","-0.18426328753114896","0.4180425450834212"
"0.011949023429325245","0.14082489559077233","-0.1012420213961686","-0.014894043234170425","-0.061417670733702884","-0.030610098576628577","0.2496550467707866","-0.17030412908351897","0.40313732156949394"
"0.022099064839147496","0.0922773213540819","-0.10968683750626292","-0.05762760970406321","-0.000454172168819966","0.12246801159475262","0.2577076923010048","-0.18173557298756526","0.40297388710113946"
