"AccX","AccY","AccZ","GyroX","GyroY","GyroZ","MagX","MagY","MagZ"
"0.03237908685894186","-0.06384709872477799","-0.050523558683599194","-0.07225466436820094","-0.12911207793625443","0.4578099341526369","0.22048162161459864","0.604417950995006","-0.28575530599141136"
"0.016643730497651308","-0.07199375935934436","-0.04974908912104469","-0.08264754629404619","-0.1323837150105301","0.4650663161269604","0.2823114500974843","0.552109035727212","-0.28099936296229644"
"0.005519315922704778","-0.08412390125536195","-0.04790275368391475","-0.11419011142016638","-0.11258875506807638","0.43611359473776995","0.3327449740064626","0.504800140355129","-0.276995218487612"
"0.008247945912786004","-0.08869529657000262","-0.05924718383621313","-0.08464236346406483","-0.09570404434458332","0.409442143935825","0.3775500051918974","0.4585070801597472","-0.2733506298433075"
"0.009671955706480474","-0.09284497261680774","-0.08668199362014391","-0.07129576576716881","-0.06689353439569469","0.3636711191747075","0.4205438877286674","0.41403460768364797","-0.28085227194077744"
"0.01484518398337053","-0.10325292104959558","-0.0945733221495326","-0.06118015572595936","-0.06683848856342817","0.24589445789914896","0.4633148596625246","0.3787706151210217","-0.2879289844205257"
"0.020628839717462946","-0.09795130739680627","-0.08199180594931384","-0.06039070105442688","-0.025839395372497652","0.12186371757749291","0.4837947713051207","0.36183123373291387","-0.29106692621293145"
"0.022658462871694145","-0.08980256932742296","-0.08866257044811661","-0.01885575783582426","0.007927872107138887","0.03334071125795298","0.502129168394683","0.3521346252280391","-0.28614754871546205"
"0.02643464029621728","-0.07423115665717121","-0.0852032730687065","0.02488677021427102","0.015784587679510676","-0.021152775862333828","0.5028536278541491","0.3489683857162433","-0.281277201558499"
"0.027175048363391754","-0.06018146499031609","-0.09050064487657931","0.05237423402759269","0.034675599324265845","-0.0541435888793092","0.5044697297252654","0.3463694307836442","-0.2807542112597647"
"0.01830844512462747","-0.061170323963171784","-0.07601496617855988","0.05166276207361403","0.06345020981732849","-0.09730328688311164","0.5046926403281782","0.348031706527337","-0.2697060411990029"
"0.014749864869390982","-0.07862077642533104","-0.07037476251099627","0.05977585294800939","0.07674258166116694","-0.16635055228494383","0.492599740120169","0.36270194959865776","-0.2591972048838108"
"0.012452577940550545","-0.07428101509277739","-0.06071351287464966","0.0602697434925169","0.07797752294158118","-0.2121992373213718","0.476578040535825","0.3820423959498774","-0.2466781246078588"
"0.01332778071436276","-0.06885994893801493","-0.05756813382459497","0.049614030926027314","0.06371586579044085","-0.25482016716520783","0.4559588097664085","0.4107760195194248","-0.23598951037747679"
"0.015554781831884938","-0.07351963523237483","-0.061368197811529065","0.06283835942379574","0.07562969853056109","-0.28646672935423073","0.4291816735915311","0.44282100191172524","-0.23223051760532407"
"0.017931019946041772","-0.08023286584326385","-0.045271622423396246","0.07762426777183941","0.0221778021027094","-0.33697017714208105","0.3960237214082801","0.48115888533372003","-0.23657787446355283"
"0.025135797015829284","-0.08398679055744501","-0.04966028327787177","0.07757420479266905","-0.012990022813551964","-0.3662626622357548","0.3484044438610737","0.5253015411940072","-0.2602268420344439"
"0.024117134161381174","-0.08427867014922279","-0.06077753569182084","0.07703313951778946","-0.01827298673290541","-0.3954823408213251","0.2915065124676297","0.5699323256456962","-0.28673591280153815"
"0.03711423233925924","-0.07550566291735392","-0.05701877674822297","0.07173705397132586","0.025640902941390396","-0.40167089401012945","0.2294816372071955","0.6142201008169407","-0.3154513488914176"
"0.047668657868994734","-0.06144662279382263","-0.05146944417599909","0.06485628258420072","0.05259660767260262","-0.3765526487143942","0.1708004209904504","0.6539300213607137","-0.33334742317623156"
"0.05807192076342932","-0.05626134549078103","-0.0291543945135953","0.07398507428599456","0.08020089590573781","-0.32604920092654394","0.12560529624991876","0.6850119392348428","-0.3523058215053495"
"0.06913375208172261","-0.04869844403977022","0.007082520005288281","0.08193257222928799","0.10705368886358219","-0.26899316740937146","0.08684671516848855","0.7127956909508515","-0.3710680984724421"
"0.0695650951429634","-0.05424207884873117","0.02527491329230194","0.04932905704459608","0.09060455820411122","-0.1753785592897878","0.05987453221606253","0.7292733290768224","-0.38108663138257076"
"0.07499250772379892","-0.044580968232627416","0.031694130077187035","0.015135079521646057","0.022017451200019952","-0.06989649034932054","0.04413147088535924","0.7386269283012528","-0.38312956223700156"
"0.07555960831101058","-0.049151324829859594","0.02551943914885248","-0.030771709627967526","-0.012396245814190004","0.0102712411002525","0.042877598743975946","0.7437984528371858","-0.377180547588899"
"0.07396325385668641","-0.05207012074763743","0.012793974872606903","-0.05869529900983092","-0.04745278241739079","0.09188199754043852","0.03878161641545679","0.7447219393614597","-0.3622753240749718"
"0.07157642472986518","-0.04984622677612058","-0.009344289204317785","-0.07646476836650767","-0.06713286410120133","0.16497730479282974","0.043657785854169934","0.7393789101853042","-0.3394435288458531"
"0.06586305480709102","-0.05412366506416653","-0.03179172153061424","-0.08620779431273777","-0.09470125287851054","0.2461371462594942","0.06483429313086814","0.726423713516206","-0.3126566194825563"
"0.056907872189679076","-0.06043283460316386","-0.036316689028099355","-0.091227570724165","-0.11940007848679518","0.3180942451018661","0.0986609771228567","0.7032573944215664","-0.288010701654703"
"0.04563999753409666","-0.06475493773977366","-0.06174407370588886","-0.08157215499148303","-0.13466213380695324","0.3817271331843954","0.14887159042892245","0.6703021181696246","-0.2708664259243196"
"0.03199299630635804","-0.07180471279100431","-0.07276838977233138","-0.06423110920655256","-0.14004465888379747","0.42082422803601804","0.20518438148972104","0.6254074804252859","-0.26115841850406435"
"0.02513675983516241","-0.07589206579330172","-0.06748340947745944","-0.07953979058708661","-0.12417231281459747","0.42570226407895795","0.2645064656898395","0.5777687684373909","-0.2546046963230503"
"0.017069296642893333","-0.07237704608306679","-0.057419435668584505","-0.07992777867565685","-0.10627045084270123","0.4177906235317022","0.31014741163619675","0.5323596167723854","-0.2531174426610247"
"0.008982577063961716","-0.07831227735501786","-0.0572810637734081","-0.06773648049807664","-0.09166894550974146","0.4315267847272444","0.3605809355451748","0.4808686467118054","-0.25011024844330254"
"0.011849853038013199","-0.08551578258270086","-0.07279936855483356","-0.04345497285085639","-0.08796412166849878","0.4129368563247969","0.41282560810281815","0.4279132908770198","-0.2626947025065963"
"0.008357707316762455","-0.10435396150256517","-0.07487907748681326","-0.0470614328503206","-0.07586839835219347","0.31081359429150807","0.45696190747951504","0.38398171765085237","-0.27562236895343456"
"0.020558553906144687","-0.09712241090485368","-0.0720827260529498","-0.04897056530598999","-0.04348708919714586","0.15592260206834782","0.48265235446519383","0.35598688330072403","-0.28732427688761425"
"0.019188461995105318","-0.09399275535315813","-0.0826072510950238","-0.040639893022123494","-0.016203981428800557","0.0362165683280444","0.5005687941742948","0.34943012897838016","-0.28488910330913264"
"0.025688455313044044","-0.0825055795329784","-0.10329488204997973","0.00015344418003831827","0.008732498577052192","-0.042101392438977016","0.5073675675631294","0.3480448991919694","-0.2814569794736889"
"0.028467151908447858","-0.06026040751335919","-0.09721271441871836","0.03960432334075514","0.03638441342158321","-0.07030663367830403","0.5074511590392219","0.351857579270757","-0.2769788750407766"
"0.020976417496721706","-0.05846861998376248","-0.07957546091414378","0.04626655056880972","0.0633209717763549","-0.07973750336132114","0.5046647765028143","0.3529921484291505","-0.2664046649382427"
"0.018135137644664647","-0.07731406992548602","-0.0773119445393178","0.05425640949447805","0.06534330778788595","-0.14381936491048913","0.49705795217842136","0.36470723462279514","-0.2533462509167209"
"0.014328150001481453","-0.06884852304652185","-0.07061433176234645","0.06213555221621196","0.06709998782630466","-0.18903948709362292","0.4827916735920142","0.3816466160109029","-0.24486400200912423"
"0.014190466836844324","-0.06777864411580614","-0.06104808372567321","0.05539149127220585","0.0780541084473433","-0.22755412988041696","0.46192166839432064","0.4051559443859872","-0.23450225671545114"
"0.013896806940240664","-0.07416156259080427","-0.04874950707230768","0.06269683523267956","0.06898111931158679","-0.26583821872488295","0.43737363824856973","0.43684472483321063","-0.22482693618886682"
"0.019942349532943573","-0.07882644247220648","-0.06058959774464094","0.07109104899010843","0.05994881622576642","-0.29061670031613485","0.4065283835705368","0.47101372623134086","-0.22641225053190508"
"0.020085809613579458","-0.08092984522434175","-0.056430179880681546","0.07312052514570655","0.048183367903060284","-0.33240763596759","0.3729246101814607","0.5083357744766345","-0.2344205394812739"
"0.02383887937410754","-0.07791652602239389","-0.05982751969508731","0.07726805042005036","0.02136647440104191","-0.3655831348267881","0.3210143035281863","0.5480720803496724","-0.25176093657368265"
"0.036246732120112035","-0.07806921748143779","-0.0525888108504112","0.08854088547977447","-0.004720702828886736","-0.38354207349233793","0.26169221932806785","0.5911725157039932","-0.2827807986673601"
"0.04086633928045421","-0.0764675152375896","-0.04994528807689183","0.07050088348565793","0.013048570486158834","-0.3857748064075144","0.2017849947953037","0.6334022351925706","-0.31293445807875886"
"0.041539349994309804","-0.0668863858619374","-0.029038740392253824","0.060046385585449176","0.0119758947460781","-0.36927199790403614","0.15310689188426196","0.6726504124742065","-0.3341155651774975"
"0.0653797195018614","-0.045151224089872974","-0.013710438810175066","0.07765411300942172","0.039758962269226754","-0.30932797289875497","0.09802010913948306","0.7063576706101999","-0.3633213046724404"
"0.0755538313950118","-0.047724127110633","0.008091808739209312","0.05623967366930355","0.08051202452289644","-0.23088138730075056","0.06402624219530989","0.7282706865647538","-0.38381598700409036"
"0.08074342760056502","-0.05078107244373625","0.01073223363447847","0.038865894397992456","0.034445842806979474","-0.1121679489542593","0.039506075874922573","0.7431652049348266","-0.389405445821813"
"0.0789978361496062","-0.052820074716546886","-0.01634363532286038","0.01685743855502606","0.047544357589357565","-0.017537690046630715","0.03312525986654904","0.7459752425015456","-0.3982799374534605"
"0.08030630762332548","-0.05146454849850416","0.0031525516570617015","-0.017737042801286775","0.042453814753231456","0.07701733546929085","0.04524602389992249","0.7412522685631167","-0.38554839236864763"
"0.07135979037991168","-0.05921545780044656","0.0240789257625011","-0.039860065846585316","-0.008762502895482777","0.15089409924199385","0.0641376974967663","0.7299065769791815","-0.3677667222116819"
"0.06096711849814147","-0.05757116814285143","0.0014931215410282498","-0.05678712930376096","-0.049312374229177336","0.20681192434914705","0.08219345633268763","0.7140489940909374","-0.3516193967382607"
"0.05923211805984706","-0.05629562316526027","-0.012911186221618817","-0.06861258263355781","-0.0825863831857647","0.2523256994482986","0.10281268710210405","0.695566070940829","-0.3334127969635733"
"0.05590654008322725","-0.0551509565811353","-0.03647984394927751","-0.07933087392401035","-0.09685282693101517","0.32433133596273955","0.14257436589664138","0.670368081492787","-0.3120845988433157"
"0.041169627370389136","-0.06606476039184407","-0.05373502580299187","-0.08434294833864213","-0.09897328812180395","0.3859984483264721","0.1805527598678773","0.6366608233567937","-0.29515278792179306"
"0.031351758630495614","-0.07253908599878685","-0.0505772552399363","-0.07680461897510642","-0.10890547090032927","0.418470150940669","0.23329898128207394","0.5934680393500453","-0.2807705547066002"
"0.018509674365250955","-0.07745429677562836","-0.0424277701896961","-0.08607108386961872","-0.12072357175824688","0.40674830313599253","0.28785635134493565","0.5482040069959971","-0.2702126880509017"
"0.016064113259109003","-0.07153360754739577","-0.049119187210167024","-0.09563215014155658","-0.10848903721274772","0.37859645333594144","0.33188119542017613","0.5067790400500014","-0.2660451091078629"
"0.010354594613667344","-0.07895212727863037","-0.05013735652840534","-0.1038501807222898","-0.08959156366594388","0.3602006756217701","0.36919085758267445","0.467029541512331","-0.25854346701039294"
"0.00795236037751608","-0.08618991018079261","-0.07525908388550667","-0.07362561979778905","-0.07135703340339343","0.35532263957883026","0.41065222972442017","0.429997731888952","-0.2616977522496341"
"0.012408288251226715","-0.09145620744169422","-0.09363982817013358","-0.05681986279014156","-0.06869568707815965","0.28889883535233046","0.44935508315512246","0.39192370175960695","-0.26942820260280026"
"0.01665143305231632","-0.0977539510891985","-0.0986129553878169","-0.043457861099654674","-0.03361952543910732","0.17245938694227436","0.4803117931346112","0.3642850693545557","-0.28039465542938485"
"0.021276817128657248","-0.09555290890066781","-0.08423880030680528","-0.029295814492041564","-0.009158114898685241","0.06207258623922925","0.4971972713052417","0.3542718368985013","-0.28114645398381544"
"0.02698537295476578","-0.08726913756818448","-0.08954030261901173","0.0073744512756019715","-0.015316786210487463","-0.003244316375735817","0.507256112261673","0.35048554214897876","-0.28173481806989153"
"0.025289848109129567","-0.06639818867996032","-0.08347259175291803","0.03494654077871353","-0.006708096703413827","-0.0573543558866771","0.5141942047773282","0.35019530352706413","-0.28573896254457587"
"0.023716601318800445","-0.05754416149023143","-0.08379064058660708","0.043462060985670556","0.016419050728808764","-0.084899484785865","0.5117979157960175","0.35105282672817556","-0.28384312271166406"
"0.019954866184274216","-0.06731953102126599","-0.07379688535140377","0.047510423051273086","0.0379855291514226","-0.12445526063854023","0.4992870582075472","0.36191038972070877","-0.27758358257368815"
"0.01634333086571576","-0.07134040610942186","-0.0714817376724075","0.058279740070495405","0.06868913707086871","-0.18221994416792087","0.48443563928849465","0.3781637525479275","-0.27106254728634493"
"0.017293633547511858","-0.06874257387085875","-0.05137444257632574","0.05008288998094964","0.08196714913237678","-0.2104057703384203","0.4657668762945633","0.39924563063063484","-0.25842906288254475"
"0.019085440326460756","-0.07448148755261051","-0.05812988241396783","0.04228558097516728","0.06545100615536395","-0.24911699069709403","0.44375445425694293","0.4278077495599599","-0.24993047052811262"
"0.01699130827691006","-0.07649244445539267","-0.05605636923848857","0.05684428041774549","0.06604215052796533","-0.2911020770368254","0.4126584251506335","0.4624253015555945","-0.24152993885469312"
"0.022250227474448405","-0.08024325301734846","-0.05588495330864318","0.08554865972474651","0.05119174230127867","-0.31580775211997364","0.3816181236950526","0.4985204319900673","-0.2442592944762127"
"0.024550402861288213","-0.08100151672552562","-0.07246892820814364","0.07303772868015558","0.037557128978565724","-0.34789115335761805","0.3372867775408071","0.5367000034364722","-0.25770995122178514"
"0.029174824118296024","-0.07715722359680827","-0.06580022896150764","0.09131938082372903","0.04248492761494732","-0.3866727533407919","0.28401114344469297","0.5757634834132536","-0.2800514430458405"
"0.0345107688624845","-0.07717903666238597","-0.06869364724721129","0.0896095375351416","0.07510795977255663","-0.3829838902635438","0.22675098232151608","0.6177689276030784","-0.30102008533571833"
"0.04565058854676106","-0.06300366018910697","-0.04260125137170832","0.08967115350950511","0.10981316036807368","-0.3587393230650515","0.17740414760173676","0.6535210487571067","-0.31929205889774753"
"0.06255191912046812","-0.05428985984952042","-0.01586656207232681","0.10232264599561278","0.0865814258545447","-0.29704794186528444","0.13315639292358344","0.6797348733818497","-0.3407346611458534"
"0.06993385494755094","-0.048496932862528624","0.022541758574742922","0.09505966301751399","0.11850082867796449","-0.23826154033885016","0.10409442306885161","0.6964763648004704","-0.36449803284459253"
"0.07470173628519464","-0.0537102555355987","0.0611053861847569","0.04992692454584201","0.07440433043836714","-0.13559465637838802","0.0917786122579299","0.7107508279328166","-0.37353595894459446"
"0.06444000783272968","-0.059196760887094246","0.03339383261047332","0.00815033117778249","0.0199735755149933","-0.06534365670924332","0.07845970373390136","0.7185476927306139","-0.3774420427382662"
"0.07266537339563156","-0.051909119549325845","0.01351929143359128","-0.028377351374185487","-0.01808463425467169","0.0021295319873894506","0.0706578326319599","0.724207345857949","-0.370332643364847"
"0.07553553782768241","-0.057799685972713045","0.0010941148224001677","-0.046015886785339785","-0.051674558422527814","0.07881080245224238","0.06915318606230013","0.7251967957053852","-0.361474495180035"
"0.07293496280890704","-0.05761167812178145","-0.01010822598082155","-0.06455651857115985","-0.07016517146997038","0.14775371185912609","0.07636991683159586","0.7188643166817935","-0.3466183020066141"
"0.06601036616505943","-0.05600997587793326","-0.01837377820283659","-0.08049291269052217","-0.0737479371614047","0.21946326857394585","0.085258477122736","0.707096459829619","-0.3257477203977489"
"0.060233450166298885","-0.05712348093980437","-0.030624854056365447","-0.08442285655539482","-0.10839569862760015","0.2983394125697614","0.12178795217504033","0.6858826551005868","-0.3028342079344529"
"0.04781211794963062","-0.06128873774773644","-0.05300599178810723","-0.07938863889997613","-0.11696848867884778","0.3657825079097113","0.159571299368728","0.6558297650677911","-0.2864253873116646"
"0.03777857767911671","-0.06620083237235257","-0.055246790389098265","-0.07968612852619997","-0.13603827961361642","0.41648010638583777","0.2081936746290412","0.613850706207231","-0.27518109588887746"
"0.022266595403111555","-0.07000149936991452","-0.05582919150013926","-0.08418409465473621","-0.14696128737293918","0.42451309111326613","0.25840428793510695","0.5689560684628925","-0.26950991983697753"
"0.015197575859294923","-0.07105475882209485","-0.054086118671349916","-0.09116788024900037","-0.1381563475073501","0.41526666458411143","0.31003595633474035","0.5235733021271519","-0.2677121406850784"
"0.010568340505621481","-0.07706893261708901","-0.062462781459939436","-0.08587949669933219","-0.10233826378122723","0.41092254293393116","0.3553425363767284","0.47763644387684717","-0.26601242221419197"
"0.007238911251669157","-0.08309245486875934","-0.06971388181761641","-0.060107652672194506","-0.08930915461344606","0.4056319366784043","0.40468937109650804","0.4293249059926954","-0.2709154562648259"
"0.006283794473207418","-0.09504185993570459","-0.06672752718440625","-0.046483783090662686","-0.08428323079780674","0.36102581604694406","0.44408882016131185","0.38522182812630573","-0.2863436700774874"
"0.01716846703420538","-0.10178832950366437","-0.05633930878534182","-0.0320771980847944","-0.057935423518581365","0.23961853690062032","0.4809247972926209","0.3457889535398149","-0.300382690909136"
"0.023788812768784955","-0.10160136037014122","-0.09204751874952152","-0.05576661472836531","-0.03889674544552861","0.06771751750086018","0.5011817983323045","0.3295619760418612","-0.30811314126230216"
"0.026254593080922574","-0.08847612719681716","-0.10731799327092954","-0.017277811242358734","0.011380921098188605","-0.030343141380248784","0.509819584195168","0.3293904714016389","-0.3014286715066045"
"0.028468114727780984","-0.05854756250680558","-0.10028787489510145","0.022841890065082016","0.04947096171868597","-0.05189629466251202","0.5117421881452893","0.33366489474256333","-0.2882231664635638"
"0.019971234112937365","-0.05496814231724601","-0.08175430195013045","0.06612133555785155","0.08469311447809735","-0.05029455148423326","0.5150858471889787","0.3315012977428361","-0.2737592160141936"
"0.016493530681683525","-0.0673029115427306","-0.07361307790855749","0.06635817195931128","0.0816320875446675","-0.09701934150150769","0.5120486902242942","0.33384959204741804","-0.26213902531419114"
"0.010871628595556404","-0.06916221570387733","-0.058706087768508386","0.0726189326044036","0.10228624112989003","-0.16204283388881532","0.49519107587902805","0.34654093542386644","-0.2455667702230484"
"0.012031825891974142","-0.0684143391697848","-0.04631664001980312","0.06398884519511443","0.10168791686612344","-0.20832350420665793","0.4809247972926209","0.36656740033597524","-0.2306452032622858"
"0.015340073120597675","-0.07667214256705658","-0.037293553303001443","0.04888522947925892","0.06544143296714368","-0.2532912304950326","0.46033343034856844","0.3944303080397787","-0.21993534255101765"
"0.01360507268230327","-0.07773890534554691","-0.04307006361357464","0.056634401005069786","0.04489497774939912","-0.3087697896699609","0.4355346257745404","0.4294700253036527","-0.217514878074688"
"0.015767564904505968","-0.07993267651221837","-0.03729561855516825","0.05595277428867345","0.01634749114686228","-0.3513373280745209","0.3968874999945666","0.47180528610928985","-0.22312721771798036"
"0.02066927812945427","-0.08111785307527333","-0.03928445639180822","0.05344673708135755","-0.05129641748782734","-0.38475551529406427","0.34885026506689876","0.5183753922619538","-0.24358921315595938"
"0.028812804049040363","-0.08120926020721798","-0.054726346843061636","0.06317435903399676","-0.051801403166446325","-0.412155031177045","0.29735791579408577","0.5665550034997806","-0.27328525605596565"
"0.038570977990280024","-0.06854106269361715","-0.050602038265938044","0.029675486721835093","-0.010544073223274162","-0.41045621265462817","0.23424635134445254","0.6165683951215225","-0.2978004263091354"
"0.040301164331908806","-0.06760933317822684","-0.055779625448135764","0.029348151858028942","0.019561928421521886","-0.4058936714801371","0.17208215695719795","0.665961731505538","-0.30881590947622634"
"0.054026153925630704","-0.06199298815067358","-0.023468755298361822","0.03211509420679034","0.04161137418984811","-0.37123777362283283","0.10568266111460385","0.7106584792803894","-0.3219723841787608"
"0.06602962255172196","-0.0489061875214626","0.0017229841071944262","0.04098683176553641","0.03545820746127254","-0.31352648153272816","0.04814386173778624","0.7492734086596662","-0.3311083709597754"
"0.08696083344423106","-0.03673865179874037","-0.0057850336200339645","0.0406383164105428","0.03434532433066669","-0.2123618385228032","0.002753690219706018","0.7782313075279658","-0.34611165515471526"
"0.0992294625146654","-0.02933675154604115","-0.014557192198567988","0.013937419019955322","0.037777312307631816","-0.05734950211947019","-0.018060587327258987","0.7924398073371496","-0.35206066980281775"
"0.08966760743545028","-0.0584790071578471","-0.00580341436431859","-0.025288850659214525","0.039553138722491055","0.04577363595844105","-0.017754085248254302","0.7932049818858335","-0.3346712423699027"
"0.0701947789868283","-0.054474751548226626","-0.020682730125332418","-0.03993612306494027","0.03245701295421934","0.11890777334848754","-0.0047138149778665","0.783376446734634","-0.312901771185088"
"0.05872471227128926","-0.05956238941487282","-0.00693062899696459","-0.0497802377191105","-0.02775331502743421","0.1867464507158003","0.013843492714608378","0.7667668819623381","-0.289988258721792"
"0.05620019997983091","-0.05704765456898665","-0.01780996436129691","-0.05182800611709779","-0.08567612968385534","0.24960758981243153","0.04599834718475253","0.747492398934281","-0.2748051966116622"
"0.05980403274372435","-0.054088348672278824","-0.03432578593929258","-0.06885519553261414","-0.11518069577871323","0.2946990871645824","0.07932348232018782","0.7221360975106492","-0.26032490271545655"
"0.0512734534522213","-0.061460126120132644","-0.053652415716319395","-0.06398464530909852","-0.14461346296191913","0.37160702855799777","0.12855886173851072","0.6895634085330494","-0.24800194380152996"
"0.042033276312203834","-0.06317400984409471","-0.06741938666028827","-0.04711245857909038","-0.16032306483137457","0.43208496795603846","0.1879088097639934","0.6431911923498727","-0.24994681397494808"
"0.025718302712370973","-0.07154087856925499","-0.07283860834600299","-0.05579838546514649","-0.13853448844205063","0.4684882220078287","0.2515776507209081","0.5899192125639073","-0.257301365050899"
