"AccX","AccY","AccZ","GyroX","GyroY","GyroZ","MagX","MagY","MagZ"
"0.013477980530330527","0.005553973947674427","0.0129653908024523","0.026051697229581137","-0.0481205122957543","0.1731073648643962","1.0148235550936886","-0.2997281269275641","0.028553691824477978"
"0.002970733147918262","-0.03657868931783724","0.04752428793580112","0.007943243738945128","-0.10403032479915914","0.2568639717867551","1.001058825363835","-0.3458232971534588","0.021864319034729716"
"-0.005481857777601524","-0.07717072692311827","-0.006056201229536384","0.0072040445965028885","-0.03609419459404592","0.2600917269793471","0.9735015020787636","-0.39484723892776447","-0.00281755437616158"
"-0.0029592711248094213","-0.07702946135556746","-0.005038651486948104","0.0348069420867962","-0.002134745360887552","0.2732697049460952","0.932179449063838","-0.46689238048575255","-0.013986665943505717"
"0.0016699642288640032","-0.03093845378988934","0.019899681477740315","0.14507835570629246","0.023573094285813074","0.22395057635672982","0.8972939397080147","-0.5125258074495103","-0.004499295055529028"
"-0.04395611832934666","-0.061960787911011256","0.01329913555260912","0.16522870482235924","0.07211633845372371","0.36189949414418704","0.8511235810797398","-0.5527238565846851","0.05726749356967393"
"-0.007985188043731085","0.05288292492075739","0.07120653453263447","0.33708913581658195","0.2392905310471628","0.13228718265432218","0.8034485758818053","-0.5806659202762835","0.17133821510235633"
"0.03426524993253718","0.07978882195214496","-0.04233483384218956","0.007510295244081523","0.04841791101445678","0.29516019504923835","0.7387487733864199","-0.6042280193098976","0.2626490525719959"
"-0.00474048689109394","-0.03695678245451736","-0.11285493433015253","-0.02472756764274692","0.05128986748053639","0.18002883690144325","0.6864483731780485","-0.6630936889000354","0.2542975512390827"
"0.001437924769580466","-0.034853379702382094","-0.003111151639662452","-0.017866051247610377","0.12120525435018946","0.07635722312915172","0.648330660079992","-0.6832916584523665","0.27807726638465735"
"0.003667814345102033","0.00952062798710858","-0.008807736691380028","-0.05921325829432418","0.11367833511200581","0.16978738809487298","0.6206340176681001","-0.70350282066933","0.28237559290237985"
"0.008422216212081935","0.007018461621864803","-0.011271376001170076","-0.13986664323696052","0.06751163491977606","0.1310688870853889","0.5746587058173739","-0.7440306864203169","0.262763456699844"
"0.011069969378180515","-0.008214433044969223","-0.0030820315841104022","-0.05207639551375069","0.08195518264710144","0.09548591969156574","0.5433676299335162","-0.7725532273557446","0.24419730109477678"
"0.008647515936033601","0.01197470173634057","-0.006917617908313673","0.01789817087200973","0.06216022270464773","0.10195113761116367","0.5102654054009934","-0.7861416719272017","0.2728963937378208"
"0.00865233003269924","0.015080882274604916","-0.008597287495581885","-0.01802971867951345","0.07675694144349735","0.12970740538385198","0.47479475571252416","-0.8026325027178052","0.28711519248465933"
"0.005185217614109786","0.011843719471133527","-0.010744736698633016","-0.06836996973450149","0.05727550341525733","0.1960025847793688","0.4234417255665315","-0.8354426596587896","0.27469417288972"
"0.005452881388719032","0.0013085281558091113","-0.020354355030809308","-0.07435730949335574","0.04087902529099781","0.22556688083662935","0.3637295478113156","-0.8766961219645631","0.25589920902895646"
"0.00228039168606638","0.0013215121234148846","-0.01861954321068722","-0.0582659126884852","0.00811550659625609","0.23033085335020695","0.29758082639699796","-0.9163005011912762","0.23404802060996452"
"-0.01169204247626909","-0.003584142453268789","0.03190065529386824","-0.11711687020243314","-0.10282170978635063","0.2303332802338104","0.22265499999299662","-0.9584774500213232","0.19178386709349987"
"0.0014851029169036696","-0.162667556813614","0.06838953057710287","-0.2095023217637216","-0.3304816988524814","-0.014943108786179457","0.20415341995125025","-0.9830553842316386","0.0793425872103115"
"-0.00050504464466933","-0.12694606513661058","0.006196113775292565","-0.30289866040441144","-0.1907346905101026","-0.395385265477187","0.2707200987460287","-0.9592822025639048","-0.0968348666417511"
"-0.016178780568639778","-0.0038881750387255755","-0.002966583987985611","-0.20468857376657232","0.07799427602096665","-0.5525987853088516","0.42174203221932255","-0.8727251299101857","-0.20578191759152098"
"-0.07340876172969409","0.014423374155048558","-0.016971471981571232","-0.05959354438609898","0.12764083013126284","-0.5279416478977723","0.5595286486446803","-0.7828435057690811","-0.2206103269053216"
"-0.041481672643210905","0.04944684773356556","0.0033435874824918124","-0.059244066281505935","0.2470448135055778","-0.5508028914422965","0.7283834303509835","-0.6732520406670471","-0.23799975433823667"
"-0.028464355259337173","0.023451905869399048","0.013546965812626561","-0.03822339152755457","0.1958952688446999","-0.5610443402488668","0.8492567047803465","-0.5708769631189814","-0.19583856453683535"
"-0.023736912333684808","0.036081670838886803","0.053116990803528046","0.11415483857260565","0.09099466562408702","-0.42644937560138124","0.9149596049888392","-0.486826496745434","-0.1265129317502384"
"0.02225889284844654","0.039007737778523864","0.022100001136261833","0.2211740840452279","0.23881187163614953","-0.341484180644503","0.9650587629934482","-0.4218130454365591","-0.04358628250718287"
"0.025583508005733224","0.038334648897840586","0.04257594374411953","0.17837986435057102","0.06309839515023373","-0.31192473835444934","0.9968792515592237","-0.354767923774282","0.017636269338399707"
"0.02501833305718782","0.03844371422572907","0.0703184761009053","0.15163468047840975","-0.0545058288386713","-0.15317985496900613","1.0193096309773053","-0.29734025462908475","0.022161769767134843"
"0.025732745002367875","0.04268271996966192","0.03951937053723775","0.1312436439624855","-0.08280177992072067","0.06931926067913895","1.0171083887735433","-0.2956647862207595","0.015872811424855037"
"0.012276382002588349","0.011549450829316283","0.04811908055984298","0.0685647940412045","-0.07909934937653304","0.23498561610162919","1.0113963045739076","-0.32175987686381025","0.02462636154992018"
"-0.0014283883851378913","-0.07411689774224041","0.010610197883941548","-0.11247641713318125","-0.1404826322448746","0.2881707702712946","0.9817213305611662","-0.38082343642343536","-0.013953979049834819"
"-0.002603027971552531","-0.05155803306526572","-0.10915400244722541","-0.11500844857968176","-0.04078266352492089","0.20849132780273627","0.9572011642407788","-0.425797230155569","-0.04778164530984198"
"0.007949471919516705","-0.09886122384661884","0.11415551859365708","-0.008390477140101894","-0.05365142179001261","0.25642713273813356","0.9193899532217272","-0.48709035003808365","-0.08086895342820342"
"-0.04266594042295681","0.013825072927774526","0.05863534459324975","0.16858870092436942","0.03695641141774406","0.33149064259292493","0.8760895686059526","-0.5388055953974159","-0.05669372686921096"
"-0.06991372755044398","-0.0618153674738266","0.005418546334487843","0.24402013203969827","0.04707287806950951","0.21204428539819103","0.8356870218280416","-0.5802041770141466","-0.012399717255783857"
"0.026530922229529953","0.11076441378988611","-0.03134356181041603","0.1935720530295741","0.2002534627819757","0.20686288890481958","0.8016095634077759","-0.6022095416211278","0.0891519240009465"
"0.014545747170768107","0.011226721330507184","-0.03971402884250512","-0.009301430811082418","0.005982839590486469","0.27596354574592763","0.7442658108085068","-0.6454287109571412","0.12199734910614334"
"0.0012723198442826566","0.008191900678204167","-0.0405194771875618","-0.01601853476630449","0.06239955241015436","0.17885179835376872","0.6877579729701601","-0.6964711304202166","0.133699257040323"
"0.0016535963002008523","-0.03821051436653083","0.008909256199355174","-0.00822815755763802","0.04984670935633139","0.10742618702055291","0.6559932120551127","-0.7201651561001556","0.13572584444791838"
"0.003432886427819105","0.001478670067315164","-0.023049509108498987","0.013610084156149171","0.07840592311443804","0.13069029324325027","0.6308321777513518","-0.7329620407936638","0.1508762196643773"
"0.008628259549371076","0.0007357793767832413","-0.012531179822925407","-0.11573051077925416","0.0626460620068262","0.1339617323407045","0.5915163201626401","-0.7626059582228526","0.14502526569728746"
"0.006154776682568426","-0.015791876539698494","-0.003146467451714937","-0.09644663630267425","0.046675590758368496","0.09821859062905346","0.5581911850272049","-0.788094186292809","0.11599930411753445"
"0.011530197019415109","0.011810792129285288","-0.010207151559611848","-0.04223998285637592","0.04740793965721878","0.0688241764240346","0.5448165488524481","-0.8040573104981131","0.11341703951753392"
"0.00851946096472775","0.02127787033348837","-0.0031706309020666378","0.009276748209115414","0.09240671088657615","0.12766639627334825","0.5119093710974739","-0.8187143609048015","0.12868181886184094"
"0.01104589889485235","0.017193633483416338","0.018183663452336213","0.017933792607188633","0.03799749563669793","0.1818781222072742","0.46746656964177197","-0.842012606645766","0.13750728015298205"
"0.005526055658036667","-0.0033797228672834945","-0.0014060794507424527","0.031031038157832327","0.027253985156505116","0.2041933169410216","0.4131878378325513","-0.8716961020688522","0.1545698386491882"
"0.003297128901848224","0.007535223532574578","-0.025798359742525773","-0.026112001566727047","0.027388009791588827","0.23550982295997497","0.3456180613246661","-0.9022503133576821","0.16728504028716554"
"-0.0033540270513913945","-0.005002718818005151","-0.023638105976040408","-0.07329635943478403","-0.04917834959409362","0.23361685374928187","0.26832380976471787","-0.9450868954193533","0.14945433978969344"
"-0.002208272044970558","-0.05261752482189682","-0.03711594161665561","-0.007911220389505714","-0.1837582295945842","0.13398842806034247","0.21892124739421068","-0.9737281703364734","0.10983782466057111"
"0.0063945186965169935","-0.14773080047993245","0.029161924395458828","-0.2071628402371071","-0.16765612700809787","-0.16319560360045535","0.22683457379760824","-0.9786226489151245","0.023946474161565607"
"-0.015543319808776114","-0.07552539854811469","0.05805913923870919","-0.15201654318176525","-0.048781062282952606","-0.5971806371042773","0.3542001195368015","-0.921432447733312","-0.07276750683187258"
"-0.09366648049868101","0.06269361084367966","-0.012820315126279085","-0.12106414356009554","0.09185864586096597","-0.6645994636081927","0.5462097401206517","-0.8101127435644229","-0.10987203418238678"
"-0.045525513842343275","0.04342851906893754","-0.0037761628373759203","-0.17951267174148178","0.26520993815353133","-0.5751202651488925","0.707875654883023","-0.7001386911880468","-0.1400371340065704"
"-0.029350149045813793","0.011509875696053886","0.013450931586869804","-0.1367377070388135","0.08955390079693708","-0.6208427522379408","0.8318696777531631","-0.5838981231112418","-0.13953702453340572"
"-0.007465265603842652","0.029452576338083215","0.026524597378439888","-0.061787650723199604","0.20689964870389493","-0.5070704489080793","0.9247119438662658","-0.47999269646580794","-0.12358908911137702"
"0.0005030271971143763","0.025754742363958992","0.12149542479450698","0.1408807674527783","0.03861975287101518","-0.3446876670010605","0.9761764293137145","-0.40548052662154555","-0.07729300726060773"
"0.02752358896198364","0.05068915375408595","-0.01836551719416934","0.29778006967186116","0.1308023755410055","-0.28656380469836884","1.0091671985447814","-0.3433694615318169","-0.01946172063338029"
"0.03499025289038163","0.05579548853408445","0.05627476136658361","0.12800880530840122","-0.05475951832650833","-0.15184992275431408","1.0169969334720865","-0.28953019716665496","0.01635657745118425"
"0.027027737005423363","0.03964551026731945","0.04248094214444618","0.08709291008223198","-0.09969127723832386","0.08219873196266231","1.0224303794180816","-0.2828019382040888","0.003881624481687948"
"0.01702404413423638","0.011885891397917079","0.019605796094402963","0.04030713054833894","-0.09780775245598664","0.2569367782948586","1.0144334615385917","-0.3162321503828","-0.007952665371858868"
"-0.017208997255085418","-0.07658385158733733","0.047195912841278005","-0.0630036034672795","-0.07033509556088008","0.33658709816017557","0.9854550831599524","-0.37658859107640835","-0.026198489418951337"
"-0.002362323138270839","-0.062272403133549814","-0.19372401342601053","-0.10153958168365815","-0.03293264918430328","0.16301638284123998","0.9549441943862887","-0.4226573759730381","-0.04809870817844965"
"-0.0022275284316330825","-0.1517298625025106","0.12352969817881683","-0.07626836744822399","-0.009714795793693673","0.18663724095364492","0.9283899688143235","-0.4733699788203017","-0.06775497168744114"
"-0.0004973420900043168","0.062108812942715634","0.008751966594330772","0.17305585906572393","0.028728256142425978","0.12540696763853384","0.9143466008308292","-0.4947948661834535","-0.044756473300600834"
"-0.056058757346749984","-0.04702922516437201","-0.01667201041738349","0.017228097150806553","-0.04796973458128512","0.45759151462832615","0.8714920374208798","-0.543673688646802","-0.025191733093887832"
"-0.008360687583650517","0.034222366677740076","0.09592347246504064","0.21840136519886993","0.0862104648110094","0.31836120229824594","0.8028355717237956","-0.6096370118092155","0.03259542622688389"
"0.019937535436277933","0.03439167761531936","0.006721720451746222","0.12130806809636945","-0.029623916005674062","0.30467357877477286","0.739138866941517","-0.654307374254802","0.106977721464368"
"0.002029095840120284","-0.05710166787422668","-0.05811749090096696","0.061798589856411505","-0.04132115536231082","0.16784102744490392","0.6749127494773208","-0.710719208223298","0.12405662340740957"
"0.008613817259374157","-0.0005315597332810744","-0.04184330382648831","0.10439255763438696","0.07550524708369764","0.07385267925038856","0.6526216891860597","-0.7192152842466168","0.16712160581881108"
"-0.006916458583960398","0.022309316720091003","-0.01575503845531896","-0.012130951883806753","0.08236922303762793","0.2297532550525852","0.6179869542585129","-0.7276849749406707","0.19877886233907094"
"0.007625964623586117","0.003363921389325271","-0.004224529082790806","-0.22300969864372241","-0.0045285210753649085","0.19169243949963685","0.5638754054014765","-0.7806799087693539","0.15300086775298533"
"0.010482649584973195","-0.016288383460943263","0.0016347978396715533","-0.17122339769039077","-0.009255282759120936","0.12591418631165543","0.5267886538418908","-0.813806689661518","0.07023111559955009"
"0.011491684246090043","-0.01855798099843243","0.009987937406081088","0.00034050642720753825","0.023372057333187507","0.0916975543865761","0.49691863305160067","-0.835943980914824","0.061897592058155905"
"0.016931613478256204","0.003927841070379215","0.0013597062510521934","0.023501373540691463","0.03375178666101023","0.08693115498939505","0.4697514033216264","-0.8498754347667257","0.07207138771322136"
"0.005311346946749404","0.00801448774483888","-0.039449676565153184","0.022067839387140412","0.0806915218020264","0.08057514683195248","0.4499402234877679","-0.8591630706679936","0.08517392904119883"
"0.021297999153986037","-0.019934281564644392","0.014654560549687844","-0.0016604723402474637","-0.03693424186037421","0.0622181992554364","0.4382095530094919","-0.8662607242402691","0.09837289670550543"
"0.002476806830024225","0.019688632698541726","0.036086921435996185","-0.09433821467992286","-0.002971681341044252","0.03905602214408403","0.42285658523388575","-0.876722507293828","0.06270822702119407"
"-0.00855325145027588","-0.006061483472450325","-0.02429485616508663","-0.014895005983769853","-0.06161870768632846","0.09823315193067417","0.4020423076869208","-0.8903637225238152","0.05766463932777527"
"-0.006203972277446583","0.05482636519198953","0.019611372275253357","-0.0021743880764231185","-0.07158439662362473","0.14344842034660105","0.37445712057648506","-0.9042951763757169","0.03759488661384698"
"-0.00628099782409675","-0.023108601964903837","-0.04250418451986815","0.0006519559226230951","-0.17626242321811642","0.22400396779600582","0.3183951039439633","-0.9349945069755041","0.004130044873586722"
"-0.021869042827418896","-0.1322331367456815","-0.01095539241964784","0.03461054116851251","-0.07010533904359373","-0.12751556086249405","0.3084477182889878","-0.9399681415419502","-0.002773427069705876"
"-0.0074556374105113725","-0.009791206071014327","0.020453582108879296","-0.14700061776873571","0.026076483005412474","-0.437491695997091","0.4034633627804884","-0.8950866964622439","-0.03497982340363675"
"-0.055192219946935905","0.041513124167733874","0.010361913268447409","-0.20982965662752776","0.03463251997727465","-0.5544189480114411","0.5362623544656766","-0.8173819017769207","-0.09394534524124416"
"-0.02491155192009945","0.031024155777086008","0.020656802922093598","-0.2471073211174516","0.1463181203490006","-0.41174246096445805","0.6559653482297488","-0.7347298578544165","-0.1602948363591063"
"-0.010883274236442619","-0.001700532304764051","0.06140071724461102","-0.11694357527453576","0.10223837518878871","-0.4604014772136843","0.7659438669417581","-0.6453759402986112","-0.19093389614151784"
"0.01576275080784033","0.005166740097799845","-0.038160959213062486","0.20538499061457835","0.1365702214437154","-0.4528296003709119","0.855665384614084","-0.5632516029614063","-0.16441501930632238"
"0.003339492952505805","0.026254365437429147","0.00561412571468494","0.1440770961228854","0.08375494203251134","-0.41931433780723043","0.926272318086654","-0.4873014326722033","-0.06769286658946645"
"0.01186622096667635","0.03136797123928688","0.02877758096721511","0.11430887850851443","0.03817938621288297","-0.37519359389646073","0.9516005353425996","-0.4138974466570695","-0.020808420652621087"
"0.007255279180332308","0.02895399198202152","0.04710504174593828","0.13873383584604976","0.010964726740312567","-0.22620478259689722","0.9847863513512145","-0.35524285970105135","0.005419542828903459"
"0.021397169545298095","0.035247580759891935","0.045492079803658096","0.12066302586475144","-0.08613803601548316","0.01366475244296038","1.015965971933616","-0.32677308942415373","0.008459423940296508"
"0.02687561155078933","0.038510192139870635","0.02720034788742078","0.06345837016582857","-0.06135305171321611","0.1431887438010316","1.0092507900208736","-0.3451636639218346","0.0017014086738393708"
"0.005202548362106078","-0.04040116938097689","0.05313764332519617","-0.0775979246450366","-0.057100162846363205","0.24187796553543478","0.9900247505196609","-0.3842667218925134","-0.01352251205337903"
"-0.0017557469584009776","-0.07271878411045074","-0.07808021834537188","-0.16644815967721868","-0.059407301207447166","0.18191695234492944","0.9406500519745173","-0.4430532354948563","-0.05660383791161601"
"0.0025259106160136946","-0.13953532012716838","0.05744575934516603","0.02693068761386059","0.05627749854329465","0.15651476166759026","0.9187769490637173","-0.4749267132469346","-0.06540805272187103"
"0.014840369886704891","-0.0026978048886282836","0.0253094030034877","0.19419784026920348","0.07372942066883843","0.03415371726510962","0.9214797401240328","-0.4773673562039438","-0.043354205562119524"
"-0.03270076032509489","0.018794297009856065","0.07151632235765626","0.20467255591100025","-0.017602863557486834","0.44271471813916125","0.8870957796247627","-0.5241353523260951","0.017525133899918676"
"-0.04913608634156861","-0.05728552085552442","0.016683877328797326","0.3851688508121087","0.09660934051527267","0.3144296508606526","0.8138139189172419","-0.5915234832688168","0.08664974229043963"
"0.013291193579703944","0.1773981355427144","-0.037636385162692236","0.26496956332329186","0.26011221542624","0.2235938244670223","0.7501450779603271","-0.6050459645171116","0.24215437024034597"
"0.012843482589800004","-0.06261725731315915","-0.04078795996924737","0.010274156794124741","-0.07044518722541315","0.30481919179098","0.6909623128870288","-0.6528957591391263","0.2705102504998456"
"0.0046787746448851125","-0.026812668243478832","-0.04089328782975477","0.17200646200234537","0.14139510830672916","0.054194922062421845","0.6517021829490454","-0.6632783862048902","0.3135262025707408"
"-0.004451641091155902","0.030217072350711142","-0.019941304597446908","0.04411095421568628","0.09668831931808985","0.180735060030048","0.6215813877304784","-0.6671174516129426","0.37519002748088043"
"0.00865040439403299","0.018446326678021343","-0.025391505065663806","-0.2179456357507214","0.06738957676996768","0.16051183896247684","0.5620642567528115","-0.7189514309539672","0.35270144463530606"
"0.011846964580013808","-0.01986572621568591","0.0030532130278380443","-0.12031319887254024","0.0704027377622962","0.09671149591130934","0.5319434615342449","-0.7594529113756893","0.28781796069858345"
"0.0087409094113469","0.023600442458809094","-0.0008366894283523812","0.017557357513811562","0.08859658197491055","0.10519345410537645","0.504330410598445","-0.7769068066844638","0.3023963152758018"
"0.00234297494271961","0.03432623841858626","0.005929696245773816","-0.046406763122708306","0.044526410002918904","0.15957506189154408","0.4601662473963838","-0.8035032185835489","0.3098652704796008"
"0.007491169916948377","0.008246017855185028","-0.0008100476754005081","-0.042046470186890506","0.04433255294145854","0.19199822683367188","0.40533023907988164","-0.836682770134243","0.30090906161377606"
"0.006732468282444484","-0.010647109215586899","-0.01883019893170204","-0.034520656568147366","0.04517499350484188","0.18671247434535193","0.35096791579456854","-0.8703504502763388","0.29280271198339464"
"0.007873409192199698","-0.01700302103796502","-0.025608356543179073","-0.049046622524344954","0.04825277351765721","0.17584003580188395","0.2950730821142314","-0.8988070278886041","0.29677416956440816"
"0.004727878430874583","-0.003279382765626079","-0.012076824346226764","-0.0881698779963758","-0.0038088566509064596","0.16412061488081095","0.23906679313243778","-0.9283981746592628","0.2701180077757949"
"-0.003979859617923798","-0.040024114961705236","-0.0024095854785964126","-0.14222537975556365","-0.19882882115033698","0.08688019043372254","0.20462710498243925","-0.965575103593599","0.19949797399983063"
"0.011584114902070201","-0.2024192720354494","0.053734501201404834","-0.2805917521856218","-0.25207728732850804","-0.2827293286049136","0.2599925259808592","-0.9544009166498862","0.09566151887550484"
"-0.01785408620828033","-0.07588791092366788","0.04995302448397204","-0.15539579427576403","-0.044391755483960925","-0.6451601259445368","0.4038255925102216","-0.8917489523102259","-0.013511071640594223"
"-0.12264734242579635","0.06381334821000155","0.007420395259778726","-0.21990964493355827","0.16754187863332895","-0.6618085474642221","0.6015751611190717","-0.7737273745080354","-0.08400035784187497"
"-0.04061513524339683","0.03680669558999318","0.04232811348410209","-0.19188400409415537","0.22379871920971842","-0.6203573755172503","0.738024313926954","-0.671167599655115","-0.11300343859605833"
"-0.022783721193889318","0.009927285852521396","0.0122919120708549","-0.1555979716916443","0.12564242709028245","-0.6284631667527822","0.8710462162150545","-0.5466024601952131","-0.11231864817365311"
"-0.0074556374105113725","0.022006011236820135","0.06997977474554813","-0.06129183467949322","0.2417077610727798","-0.43834110525829945","0.9528265436586186","-0.4459292363847376","-0.09173407688440824"
"0.008105448651483235","0.017221678853444812","0.05509343712716714","0.2830403733045901","0.07437561087370634","-0.33840203846811806","0.9922259927234228","-0.37629835245449383","-0.04078665006427088"
"0.019670834481001827","0.05288707979039124","-0.01092647888931247","0.20394086621543359","0.09219610074573031","-0.33114565649379457","1.0030928846154126","-0.30467537616474516","0.04211875269789856"
"0.03778242895644922","0.048684429155754556","0.033201764158959805","0.07447318833290549","-0.024323720347524138","-0.2347522666482576","1.023739979210193","-0.2397015028497678","0.05680007099018017"
"0.029455967363569032","0.02638005024385303","0.03540332296878141","0.045946917701799005","-0.07714402568254383","0.04966393037477569","1.0446378482332506","-0.21921329467552217","0.05527522740043301"
"0.01901419169580938","-0.003464066720850598","0.007873511585177281","0.03828535638953625","-0.1122249739157063","0.24497224212983693","1.0380062577966005","-0.2542793972686612","0.03956754064688536"
"0.004340825058957623","-0.037755556141624534","0.05127065536639811","-0.013837906923595877","-0.0792453404968921","0.30542591269184316","1.0212043711020622","-0.30927961612148164","0.02349376068422374"
"-0.013877642362466826","-0.058247373175760106","0.021195214161981488","0.00453944253016089","-0.09439969744957218","0.2823947872950772","0.9803560031183262","-0.37814532550304136","-0.018799811036544708"
"0.0013917094415903696","-0.09666849139735587","-0.055267442910766386","-0.006551529130230934","-0.01220597869831223","0.21767465535820124","0.9535510031180847","-0.4266019826981504","-0.02815643434983783"
