"AccX","AccY","AccZ","GyroX","GyroY","GyroZ","MagX","MagY","MagZ"
"-0.005895870090846039","0.02288268872956195","0.010477154339355518","0.06065965708028599","0.009262613874749385","-0.15762833261413486","0.16890568086569346","0.8262526067902027","0.22324500225173438"
"-0.014436077575680344","0.05973326622956336","0.05990753992800594","0.15302103990158872","-0.10842920478637105","-0.1381040540243581","0.13349075882795236","0.8539835878476815","0.16695817135045662"
"-0.00942941704342122","0.09656930168584629","0.0688748648363037","0.19560345468437104","-0.22059585786616537","0.0034793646476298304","0.11732974011678798","0.8748411906316367","0.04405381680321545"
"-0.02539296158666283","0.06768360927393044","-0.0034715381427711475","0.14640695015350566","-0.22349414059985073","0.29001520180991863","0.1810264448990666","0.8500653664518341","-0.07947976044719046"
"-0.027905920046123654","-0.025457142025436103","-0.08082906897939866","0.006897601399004367","0.04032138707716735","0.4327159576929362","0.30326504677127","0.793270945208996","-0.11488130063745111"
"-0.07059732927696398","-0.03937283914659964","-0.0674586264514577","0.03320011300534778","0.14888373479203174","0.5304708292400101","0.440494386689346","0.7310279534729426","-0.10376448809998041"
"-0.027097151806297168","-0.045207314829929915","-0.018790959140532616","0.10903301070363884","0.033995902960627","0.5934484587496072","0.5920457328445576","0.6348798136314087","-0.1301264678455556"
"-0.007994816237062365","-0.04568824099004776","0.02679989549227593","0.034299573047896666","0.08729462837695445","0.5428479356176188","0.7232286226586294","0.539127453728849","-0.1321318087722649"
"0.012543082957864455","-0.06682406281742968","0.0467828624079156","-0.0778751965296724","0.023738231782612657","0.4669107476655845","0.8456901351337449","0.4257760792065576","-0.06902649185123888"
"0.04225568757815612","-0.03976962919663207","0.05497571775365886","-0.26275200210818667","-0.061226206969297585","0.30234377051545824","0.8968759823275536","0.36684444629325735","-0.010391107639707492"
"0.03965511255938075","-0.05702272535118357","0.03305926175944977","-0.08579092373618465","-0.23748774848082363","0.26890131445988036","0.9341299168393234","0.3136912004889844","-0.05394802780085595"
"0.03568059435223351","-0.0505348964179308","-0.024129635991741668","-0.006160075143102758","-0.12983006705277433","-0.03654140210346692","0.9467522297292504","0.2973454890093383","-0.09213285698719315"
"0.020832957416085814","-0.010281480687808325","-0.01370424305367463","0.04798987235178915","0.08473619382508853","-0.2564461791795211","0.9212846933464842","0.33184430702328066","-0.09534597863504192"
"-0.026721652266377755","0.0961288855046585","0.09523780874565906","-0.06136404089945046","0.1745709920840588","-0.04106996690750962","0.895287744281801","0.358335177605306","-0.043870658482119636"
"-0.001977195405020145","0.08815776811212217","-0.0638485656638703","-0.1342153030883073","-0.058179539818198144","-0.08142661434932422","0.8977954885645679","0.3583483702699385","-0.011567835811859637"
"0.005392223770732052","0.030016599890878005","0.04812527631634341","-0.09776560325389315","-0.13026086052268626","-0.20720956463267315","0.8738883264021906","0.39072316927805106","-0.0031035646957818966"
"-0.0465846151087827","-0.06681367564334506","0.14430406972477888","-0.1380181640060552","0.12063086305697354","-0.449286350309871","0.8243743087302267","0.4441798463688709","0.016055858029412028"
"-0.06730448715767046","0.10879085071380855","-0.012337046119245076","0.0022696640745450735","0.3275074604969082","-0.08812723997845708","0.7564144386672443","0.49716158753292156","0.07717054312588066"
"0.021502116852608912","-0.09541787563756779","-0.03982348720734616","-0.1775005250786734","0.08076571401073347","-0.25115557292399426","0.7294701195401823","0.5085204717814891","0.1457934076985534"
"-0.0013321064518252176","0.016017805377037512","-0.048483089542788925","-0.0025692116871493","0.01712315872240928","-0.23710391686000323","0.6671387422007433","0.5528346322819986","0.1666966762010895"
"0.004131893263669125","0.04579367860800519","-0.05079204146528476","-0.10029763470039366","0.03625278208355456","-0.026130071444654922","0.6394142359634872","0.5694441970542943","0.19856639753021016"
"0.017579590889450505","0.0010020026485720165","0.020675390191594905","-0.12349027255065875","0.16129537331960578","-0.0633390508527914","0.6240334043625172","0.5571750189460853","0.2700199470947823"
"0.0029206665425956678","-0.01818923631842847","0.006918538983243407","0.06426996807814793","0.11993202031689419","-0.16711744750363486","0.5782252754639758","0.5747344555719199","0.3060899342606127"
"0.010783049216908744","-0.0015727700635232425","-0.028096985404187542","0.13399710781685487","0.06336165782629102","-0.15867189256361955","0.5236400415757498","0.623085571449969","0.2578113923087037"
"0.009573748134501535","0.026757104663124687","-0.022944181247991576","-0.028302256905429958","0.10923876907485776","-0.09013912648571934","0.4868040644444412","0.6462255052153437","0.2661628936416169"
"0.011109444970838721","-0.021535983808492584","-0.014098706217535723","-0.051858814104279546","0.107984681418003","-0.14520026168085373","0.45069254677259796","0.6555659117751415","0.317415942917577"
"0.002526873435346819","-0.027057805551875827","0.001963792509844707","0.018631786066775274","0.10320048060492537","-0.20262275462214757","0.38822185030633866","0.6836135167837997","0.34467681223910185"
"0.0027415821466340814","-0.019046178180409504","-0.030263434927173344","0.08764649110190414","0.08018892942046248","-0.24516117042346616","0.30841985446362385","0.7271756954002577","0.33389013732770717"
"0.005629077326681229","0.009456539123006482","-0.024935084336798353","0.08145697392716963","0.05154355696837343","-0.23365774214310042","0.23775719334032597","0.7659225514258593","0.32622506076188273"
"-0.0023045539782832318","0.02182319697293085","0.0035086011306200934","0.05551183497213458","0.006248495563598835","-0.2146261209248245","0.16472610706108218","0.8066746924755983","0.3001082327188393"
"-0.009496814396740091","0.023792605179374537","0.015277234077981667","0.11076595998261259","-0.02099225084687179","-0.1860908235154279","0.09802010913948306","0.8476643014887223","0.25908618116186855"
"-0.030341852958934348","0.09986619074030427","0.08841215033434534","0.17089929996300107","-0.1821379674883043","-0.02126344175465127","0.07422440227856185","0.8769652096374664","0.16288865308843048"
"-0.00722456077056096","0.07582299888663757","0.08884172278504225","0.300485396046259","-0.3290696535899923","0.26048002835589956","0.12125853949312282","0.8748675759609016","0.00375904863042209"
"-0.042916273449569775","-0.014141354577652598","-0.08599219939642869","0.09591554741140713","-0.028865001509512527","0.45307751112590416","0.26637334198923246","0.8099200879751892","-0.11569193560048925"
"-0.08342208279421234","-0.020251090374225258","-0.07719215991364271","-0.00830912479895007","0.1021593963859715","0.47261392413369824","0.41084727650196873","0.7378353684233037","-0.11088532788618445"
"-0.04328214479615793","-0.07276968126346538","-0.01679592554739221","0.06384154450640166","0.07688617948447093","0.6047577363416966","0.5570209043619136","0.6613574915488013","-0.1209169355537815"
"-0.014166488162404848","-0.049898162646543676","0.01647425423386591","0.06377704028323986","0.0894103029736331","0.6015299811491046","0.7028044386667612","0.5593386159458127","-0.12639852762239026"
"0.008787124739336979","-0.06526183183510305","0.03670443183387297","-0.07313172925328154","0.048863064266699126","0.515909527619294","0.8199718243227029","0.45607962986737033","-0.10528769734504403"
"0.035260805122990235","-0.03844630321825166","0.040729608306989594","-0.24469081962288267","-0.023692368584397636","0.32746201581119355","0.8747242411631129","0.38305823112657855","-0.016117851410847938"
"0.030244516397399845","-0.04150740342098876","0.041915063050739686","-0.13410940063237","-0.16806298750745916","0.3542790796293456","0.9316221725565565","0.30733233613612787","-0.0007452053174269559"
"0.03619762833412258","-0.02766130036619217","0.024172688210874368","-0.10567940496120651","-0.15903068442163876","0.23276501760447","0.9746717827440544","0.2548123382342142","-0.039457927836549084"
"0.01310633226774361","0.016274368576927593","0.006973061640447244","-0.10424490805805603","-0.00215700302349967","-0.009173435707331057","0.983198113305462","0.23631622241947337","-0.03551098542578875"
"0.014109590012861677","0.04828660038831366","0.08037005839677937","-0.20290748700762715","0.03020252712834684","-0.029755835548213233","0.9803838669436904","0.24026082914458574","-0.004582646634389798"
"0.012541157319198205","0.03922794586911778","0.0524395880928137","-0.1483292122159489","-0.0858293006953796","-0.019916278666374687","0.977346709979006","0.2282555043290265","-0.0003447908699585245"
"0.015438280692576615","0.005269780864719261","-0.013658807506004766","0.12159689297619841","-0.010969122780253944","-0.09020707922661601","0.9742259615382294","0.24390200458315095","-0.012507584004897808"
"0.022264669764445296","0.0162442457720822","-0.03414610900077993","0.2547451625773468","0.14478641023375816","-0.17277694006688651","0.956198066527672","0.27417916991469876","-0.021429471632368056"
"0.01105745272684988","0.08616966299232616","0.019590513228368554","0.050868493654084405","0.23701689884484983","-0.2323909089020981","0.9276097817041296","0.316712320689823","0.004020543779789235"
"0.014992495341338924","0.006374664572100143","-0.021581114817895646","-0.05798575255505112","0.11125153189816855","-0.2851076745362972","0.8866499584189373","0.36483916126911997","0.04973806761258373"
"-0.081573469674609","-0.038811931746030245","0.08851954344701957","-0.17181067494604296","0.16699381360771876","-0.5745378130840638","0.792163726609354","0.45039359141077034","0.11333532228335667"
"-0.021349120387530462","-0.007230767659155842","0.07958319732122399","-0.20359103922322233","0.004032541820312907","-0.08542611852781423","0.7415072920974635","0.48373145493705416","0.17761409868716774"
"-0.02512337217338732","-0.01844787695313547","-0.0007949713345827803","-0.03844771218422172","0.17569105510582983","-0.32840327802189306","0.694723929311179","0.5074386732816255","0.2456845547568024"
"0.007322676533651195","0.005281726114916572","-0.0731814402056938","0.09077542730005116","0.12225591175736358","-0.22699351976801938","0.6168445374185854","0.5701566009444484","0.23980091389604166"
"-0.0065024462707159005","0.06022873443339967","-0.04942277927868839","-0.06436396865127389","-0.005466454191245408","-0.07238161915925607","0.5817361174598493","0.5890484966981637","0.2608512734200968"
"0.003392448015827773","-0.000706168129643513","-0.010757128211633887","-0.04170758232789121","0.09716219213499298","-0.039378429035903106","0.5783645945907963","0.5765682359558351","0.2816074509011138"
"0.012175285972610037","-0.028513048641130898","0.010127796282817599","0.13728008395091065","0.1002399721478083","-0.10669532642847351","0.5486338929273266","0.5946817644962338","0.28404262447959533"
"0.006943325716399248","0.005719649374324093","-0.02270048149230776","0.20945742142016663","0.047379220092557996","-0.1497361071357068","0.502463534299052","0.6444313028253261","0.24720449531249894"
"0.000236326241838271","-0.006132635614929963","-0.02900569635758483","0.0532099006798978","0.0681985111745801","-0.10727049784249179","0.4684696673548788","0.6740884129191472","0.21847271577578398"
"0.014923172349353787","-0.006267357262807466","-0.009009924878510923","-0.005321520241999357","0.047977544356324585","-0.13333765462717703","0.4283457588306086","0.6940621071727261","0.2255330848086969"
"0.013094778435746083","0.012902587997319546","-0.01904291990488368","-0.006516773869691517","0.08296994059844957","-0.14435327930324873","0.3819524895994215","0.7199593078462897","0.21260541836185873"
"0.001427333756916062","0.00642919723604439","-0.0009442890662432879","-0.021860499335644826","0.10971024859470582","-0.14032222563791386","0.32945704261350167","0.7422021404166553","0.23831366023401604"
"0.0026481886713207985","0.008289747858081273","0.005610201735567997","0.00753436398406727","0.08136643157155513","-0.15892186157477517","0.280444573798091","0.7584555032438741","0.2810517737087086"
"-0.002246784818295624","0.009753923917049113","0.002917732485695176","0.047373712608154046","0.07119013249341302","-0.1546942303375606","0.22544138252940427","0.784168006612583","0.2819833501783291"
"-0.0025741433915587274","0.003975061163767891","0.010041695919983204","0.05125551899305521","0.01809483732676622","-0.15252216951247044","0.17478494801751343","0.8095638860301122","0.26506788270364195"
"-0.00656984362403477","0.016620261473945394","0.02471275165249571","0.07680785611152288","-0.04258960280149598","-0.13959901432408492","0.11975389292346243","0.8422553089894044","0.22478128625426638"
"-0.02999523799900872","0.12334328160635921","0.11068382970124609","0.1589997149140481","-0.28048572337214556","-0.039181851464023434","0.11242570685271058","0.8625852051880601","0.12413834064158678"
"0.0013166095336064867","0.07317634692987676","-0.006050211998252626","0.21630257107211287","-0.28929305653478965","0.355953629315728","0.17261156963911548","0.8528094406953906","-0.017274967446797553"
"-0.0560202445734249","-0.007071843895661176","-0.06721079619144026","0.052353053536405236","0.09532892659081217","0.4788510149945716","0.313602525981342","0.7881126133376952","-0.08868438970491394"
"-0.07650903998236223","-0.055558133805252354","-0.0854924083720602","0.04390107480301057","0.07113987325525663","0.48101094140164447","0.4564603586229618","0.7135608654995356","-0.07044837172592273"
"-0.02444939864019859","-0.047178800471190524","-0.03865455448093055","0.08453488439654686","0.027328177365212168","0.6584646704861045","0.6420612993730745","0.6056580614704594","-0.1307736683402393"
"-0.005963267444164891","-0.04403771902800186","-0.013545218636830104","0.05387901165150155","0.07160895947804964","0.559860389677822","0.7772008523888453","0.5000639737520678","-0.14366537920403952"
"0.012126182186620565","-0.04698040544617431","0.015432334515709247","-0.18357547505107577","0.17356102072682078","0.33076257751188914","0.8498697089383566","0.41917974689031623","-0.07542821997668328"
"0.03357394565135217","-0.047708546349506074","0.035101796152426853","-0.2610383078212015","-0.09437097788491138","0.39371593818545164","0.9040927130968494","0.3533747357034925","0.009013466788018143"
"0.044813898546273906","-0.05187484187484659","0.039777527058089256","-0.1747663162162926","-0.21426319385845982","0.3337476443441359","0.9562259303530363","0.2754456657194171","0.012435784555360638"
"0.0429209957373467","-0.04890722623887106","0.03163423776434949","-0.09845878296548263","-0.1752333054844379","0.09335511588773428","0.9788513565486661","0.2299837433958817","-0.021324873572621195"
"0.02579436543968798","-0.018812466763505585","0.016734682532100906","-0.047843185525057653","-0.03293025588724821","-0.17273325616202437","0.9736686850309476","0.24223972883945816","-0.032716256016927396"
"-0.00787927791708715","0.043627952811362225","0.06611155743710923","-0.03286183900832973","0.053470161097701835","-0.10195319586732698","0.965643903326094","0.2665538097571238","-0.020752852933380563"
"-0.017208997255085418","0.05672514061465782","0.003100920352891401","0.007341043864501757","0.01469372288181144","-0.05635690672565805","0.9580092151763371","0.2716329856406296","-0.011785203654771072"
"-0.0022179002383018375","0.12228378984972811","0.0022110031942121043","0.20337284395176997","0.19668745016992686","-0.20206699827695687","0.9367769802489107","0.30396820665484475","-0.007741834907681601"
"0.024154684115373123","0.0011056666459365095","-0.015443185378130341","0.04805726482374924","-0.0614463902983637","-0.16084638027231313","0.8979348076913883","0.35923227880031483","-0.014423035974012132"
"-0.05565437322683674","-0.05822556011018241","0.041039396132011394","-0.21338220264942392","0.1890839454259811","-0.6214252043027695","0.826714870060809","0.43031435584013167","0.02798820856397152"
"-0.031863107505274615","0.015415349280129635","0.10262728099851244","-0.2768081462598625","-0.03396416021503687","-0.14468090858971483","0.7784825883555926","0.4733752132005552","0.09454526145664384"
"0.05745764202889445","-0.0369474339978412","-0.034683074564151053","2.7516532432893668e-05","0.08215382630267196","-0.18190202241586856","0.7464113253615409","0.4849056020893451","0.14713357033906002"
"-0.07934935701508618","0.06984518020093956","-0.029966038615152416","0.10756000381651117","0.4083530350170493","-0.5164382196174067","0.6409467463585116","0.5660668749083788","0.1649479273896967"
"0.004232026474314296","0.019771730091218676","-0.007513030108005578","-0.07264746620476831","-0.02238730370026996","-0.021501276347789634","0.5848568659006259","0.6059087220984766","0.20008633808590665"
"0.010939025948875273","0.04094286831048831","-0.026168039880385126","-0.09856468542141993","0.0689667595292564","-0.14776305076609975","0.5623707588318162","0.6130855316585472","0.23457101090869878"
"0.0006195283364227158","-0.02220907268917587","-0.011760840764704525","0.021797306749700627","0.09631017838338937","-0.1127115708814327","0.5358443970852155","0.6213837177123787","0.2477274856112332"
"0.02245723363107065","0.009593234333960062","-0.018633999975854902","0.013004514658107796","0.07144621527830514","-0.0956287371967293","0.5033551767107024","0.6405526594233761","0.24764576837705599"
"0.0036042682691156615","-0.013873365486269437","-0.007002706297586327","-0.040412684116658056","0.12407960411332415","-0.1047780883817459","0.46526532743800975","0.6523469016048158","0.2814930467732657"
"0.010149514095711343","-0.030115789602387543","-0.0094737805151769","-2.745646969455077e-05","0.0964561695037484","-0.14059889036870743","0.41371725051446856","0.6736926329801726","0.3321087016226435"
"0.0018837101208181407","-0.017053918190979653","-0.0165191817570394","0.042494497638243554","0.10101540039364978","-0.2107333996248864","0.3523332432374082","0.7060014686651229","0.33959400027327796"
"0.0029274062779275564","0.004757942474525595","-0.017915292221804324","0.033792204008997136","0.07407884203887811","-0.20246986095513003","0.2954074480186003","0.732545109905678","0.32864389089352886"
"0.005891927004624836","0.016910063630906254","-0.01378685314034711","0.0545096126391281","0.10095317467021808","-0.19493924113361638","0.227865535336079","0.7639304590663544","0.3308665996631495"
"-0.007320842703873633","0.01473706681240404","-0.00707044656865776","0.08038639637260363","0.07091011673797028","-0.19150034706752395","0.1571192827366893","0.8009622686897335","0.3101267656289679"
"0.00605368065259013","0.017185323744148644","0.004033794756640389","0.03608258530604075","0.022658854810777736","-0.18199181710919635","0.08511915799591563","0.8428621715624985","0.2942572787517494"
"-0.018691739028100604","0.06276112747522969","0.05569029500337581","0.13467103253645576","-0.11884004697590966","-0.11546608377135148","0.0388930717169129","0.8693134641506264","0.25665100758338705"
"-0.02463233431349269","0.12065300351844299","0.13988649533996797","0.2727870900706622","-0.316217648404286","0.05737899335015176","0.055444183983174126","0.8820180001917073","0.14198538458589438"
"-0.014609385055643166","0.04766233122582808","-0.0893998654716685","0.1395906829895423","-0.14391222692478467","0.47288088133007805","0.1623576819051356","0.8534954592562797","-0.016526437581734096"
"-0.09942414011077903","-0.021766579073171113","-0.05541614106677685","-0.04434647897992842","0.1695067755155384","0.5358585108396751","0.32583474531617185","0.7787985921071625","-0.008357982853377945"
"-0.04126985238992301","-0.07160735648339656","-0.010205086307445037","0.04394247303578606","-0.04208940371698711","0.6176444882760304","0.4959155353384938","0.6967534107577524","-0.014279213641860206"
"-0.02785777907946731","-0.05128588910424872","-0.018192036012157135","0.1273445080847946","0.041766938498427414","0.6358703841379599","0.6515907276475886","0.591818956270985","-0.054381129141995284"
"-0.0017557469584009776","-0.033149883152504646","0.0017923765799993106","-0.029147551053729365","0.08849845679565282","0.5964335255818539","0.7797085966716123","0.4858158959489864","-0.0352200720721178"
"0.022215565978455837","-0.05470015322586285","0.0036463534501464537","-0.27520035442881463","0.11306325776885377","0.35444896148158733","0.8614610602898125","0.39968098856350676","0.03449453474916278"
"0.03482272232641757","-0.055933110789707086","0.023245183462759094","-0.1554631867477241","-0.10948225549060026","0.38179993969249904","0.9159348388765818","0.3175698438909344","0.08226316115980581"
"0.04639292225260178","-0.06019600703403456","0.00036260250491535373","-0.13427306806427308","-0.21722609561263195","0.2420211516680385","0.9644736226608025","0.24026082914458574","0.04294736545245571"
"0.03731738721854899","-0.03444827991308197","0.03229098795339571","-0.1238464899024478","-0.13219943113729002","-0.06966350952338908","0.9748668295216033","0.22729243981085517","0.022444511397388067"
"0.01766720744876504","0.011310649697110901","0.08122300754167273","-0.07847017578212005","0.09031975585455831","-0.20229997910288836","0.9647801247398075","0.25123712611881127","0.0472081020424566"
"-0.013540655595872461","0.059587845792378705","0.01951760982688009","-0.11401681649226901","0.0011601066948222826","-0.02176386515368321","0.9568946621617742","0.262160652434507","0.06594586383929602"
"0.001614120707542662","0.050784715755664435","-0.09676248944635334","0.23577899546857872","0.16992320920311996","-0.19408497810520103","0.9349936954256098","0.28556443949253135","0.07836361474486825"
"0.008296086879442333","0.06580145332979755","0.0343872189027099","0.10747335635256249","0.047697528600881806","-0.21967403882000608","0.8804920530134763","0.36183123373291387","0.07692539142334898"
"-0.03648464030428303","-0.06497826198259296","-0.07941024074079882","-0.028512136318105667","0.2615721266298305","-0.5143510997184373","0.8277179677739158","0.41989215078047026","0.09333421204613725"
"-0.037226011190790644","0.007773505306075729","0.09637163218523885","-0.22754424925703703","-0.0749780918477088","-0.22123452497702617","0.7529314604967348","0.47998473818142906","0.1436360727162745"
"0.026298882770246404","-0.035383125580697644","0.010131493084196192","-0.13778710410219205","0.09917256166124871","-0.24535532111174235","0.7235629885629979","0.4876496763329015","0.21262176180869413"
"-0.004730858697762661","0.022669751660827266","-0.10859225385785255","0.10402671278660362","0.15914140597004606","-0.35085195135383035","0.6357362110154295","0.5488504475629888","0.23300204001249594"
"0.00713492676369147","0.021104404526275242","-0.04317332622191524","-0.06107232777082322","0.10897071980469032","-0.03664818498201884","0.5699497193308448","0.5894574693017706","0.2658523681517434"
"-0.03535814168452475","0.013014042375247507","0.05198316736394824","-0.08759800473431446","-0.0012370196355321675","-0.10033931827103096","0.5404976559210161","0.5958691043131572","0.3113688675884619"
"0.01537377179725712","-0.007998379824009158","0.000617248097083275","0.10292917824325358","0.12410353708387481","-0.13556553377514657","0.5236957692264781","0.601027436184458","0.3200962681985903"
"0.010559675131623343","0.008146508727454383","-0.05864413020350403","0.1350561323762277","0.10422002515038364","-0.15578390107551085","0.4748226195378884","0.6479933222760964","0.2795154897061767"
"0.0014523670595773678","-0.0028765681546245704","-0.01951173214675001","-0.03378222762538467","0.1102032677880495","-0.06199941110368553","0.4374293658992976","0.6667796767127517","0.29397944015554683"
"0.018996860947813096","-0.015137484572367523","-0.00401325378612594","-0.012183903111775394","0.04373662197474702","-0.1301996941279127","0.3927915176660474","0.6850910952226378","0.33153668098340283"
"0.010750313359582441","-0.00982652246290203","-0.02839025121187485","0.01872806102671826","0.11322839526565334","-0.16309124760550686","0.3448100103891075","0.706608331238217","0.3422579821074558"
"-0.0033155142780663116","-0.009930394203748217","-0.007619184069379714","0.025753244853757885","0.09525952097621523","-0.1788247340066906","0.2896674999936004","0.7298538063206517","0.3509363523770779"
"0.006917329594404818","0.015952366180304416","-0.0007282636895947509","0.008204630255190333","0.07542626828088046","-0.13901898914285973","0.22839494801799654","0.753231208049411","0.3613144411175864"
"-0.0039028340712736484","-0.008365047069196193","-0.012605528900930637","0.05175807428395759","0.10802776076499418","-0.18579231683220324","0.1643360135059847","0.7794186473448892","0.3697640031315122"
"-0.006444677110728276","0.011946656366312099","-0.011519206261187518","0.04579769151388738","0.02822805705791711","-0.21238368047523423","0.08135754157176511","0.8253159276012966","0.35664021532264867"
"-0.0003355884420390227","0.0020366690591408754","0.010607038048126327","0.02797719642844084","0.02234533289656404","-0.1717819177894709","0.01752151766266643","0.8528358260246555","0.3524399494859389"
