"AccX","AccY","AccZ","GyroX","GyroY","GyroZ","MagX","MagY","MagZ"
"-0.10870571848212093","0.06546490888945591","-0.03253314705849975","-0.20731688017301586","0.21158333104065977","-0.5695141640249167","0.5545967515552389","-0.8025137687361128","-0.10220205458251173"
"-0.03621505089100755","0.017509403575588743","0.031068358670642997","-0.19223059394995012","0.29503041945965797","-0.6440194906509139","0.697956133053412","-0.7018933155841671","-0.10557534200934789"
"-0.016448369981915276","0.017534332793391828","0.048288431237521565","-0.1684025413640613","0.25944209225082143","-0.6257450571169153","0.8316189033248864","-0.5766553502280087","-0.0955568090992192"
"-0.0027185662915277463","0.02002933200851722","0.09044435846648838","-0.018687276655924037","0.285289700445538","-0.4481942526883173","0.9349658316002456","-0.45851503844412606","-0.03447644524110499"
"0.026138091941614237","0.02582641386514286","0.10786889099788133","0.26082974004574344","0.029494111200047208","-0.4236584594574107","0.9848142151765782","-0.37658859107640835","0.016688349421943815"
"0.02512809446116427","0.05456876327469099","0.0009447970907396612","0.1829625524438571","-0.016770953501145772","-0.3462651413433047","1.0061300415800967","-0.3052294680793094","0.06487700241625781"
"0.035398488287627365","0.06157179604254085","0.047935273116996704","0.07429507965701097","-0.105071409018113","-0.20253053304521637","1.0297028378381055","-0.24644295447696646","0.055293205191951994"
"0.024973080548530865","0.04626110144181304","0.004904918120601694","0.09063005211053725","-0.09764261495918707","0.13273372923735746","1.0330186330564306","-0.2397146955144003","0.04296370889929114"
"0.00858011858271473","-0.022906052070253775","0.03340002836697376","-0.06130627592348468","-0.08718151353149207","0.3337476443441359","1.0149907380458731","-0.28388373670395245","0.030957812853972158"
"-0.03902648334373767","-0.13974306360886074","0.08210280496473464","0.013962450509540496","-0.044911100944910326","0.35925419101642364","0.9833095686069184","-0.36446453227915687","0.015773116399158817"
"0.00011404818653116735","-0.06491905509031064","-0.050730083900280394","0.0868416324367808","-0.16560267813485094","0.2204777059201891","0.9581763981285217","-0.4140689512972918","-0.009104878373757848"
"-0.016448369981915276","0.016749062432594664","0.05383569855757862","0.07934277580682168","0.05342468845365557","0.42759523328965104","0.9209781912674798","-0.47463647462501996","-0.015493531741733882"
"-0.06384796575174542","-0.03723100385035129","0.004786785696660048","0.0897510617262578","0.10377965849225142","0.49782924477357154","0.8342102390837455","-0.5755867443927776","0.026868682455743448"
"0.024607209201942697","0.09579857336876763","-0.017979315038975492","0.1966528517477496","0.15527623122611392","0.2246203962312828","0.7826621621602039","-0.6108507369554039","0.10763145933778585"
"0.007388148248303816","-0.02039651081140992","-0.06703938026159485","0.0013707447735574216","-0.06628803024076291","0.27336678029023326","0.7305010810786533","-0.6560488059862898","0.12801173754158762"
"0.010443173992315005","-0.008343234003618494","-0.048047321335591586","-0.008474428905172176","0.08277129694287906","0.1624363576600148","0.6812099740096019","-0.6905608166648645","0.14200172803272984"
"0.0003576414778122502","-0.019576962776133515","0.01630800143443754","-0.00248535619703896","0.045845116680260464","0.15657786064128001","0.6514514085207682","-0.7184633023625654","0.14829395506437676"
"0.006159590779234066","0.011489516834848033","-0.02002391468411939","-0.03129640815965679","0.05850326480450635","0.16025216241690737","0.6063677390816931","-0.7473024672491726","0.1601592974669109"
"0.018822590648517146","-0.002825671001609939","-0.03321468027354771","-0.15347029507690432","0.07270269623221497","0.13726714780860708","0.5706741787903109","-0.7736218331909757","0.12067352991247218"
"0.012881032543791944","-0.02391360795646178","-0.023980937835731207","-0.075424036049524","0.05631339799912065","0.09505393441015116","0.5377948648607009","-0.8004689057180779","0.08955887582714912"
"0.005608858120685563","0.018565779179994458","0.016239848112932748","0.04872156204735584","0.0636057741259078","0.12248014601276988","0.507228248436309","-0.8201919393436397","0.11475720215804053"
"-0.0008603249785931127","0.031774109745995475","0.02332552177204808","0.03356499510353169","0.03765046756371331","0.20192418077179333","0.45581949063958815","-0.8451920388221944","0.14571169046437618"
"-0.0013898756118128253","0.02159467914306924","-0.00975548091073006","-0.06302574670806639","0.015055350066831964","0.2304764663664141","0.39412898128352286","-0.88098373797012","0.1420671018200716"
"0.006532201861154124","-0.02761767423503677","-0.016826904329894393","-0.08856171708334375","-0.02170042744546592","0.2404363966749839","0.32577901766544365","-0.9166171251424557","0.10967439019221664"
"-0.006887574003966594","-0.032984727084559205","-0.014257730634380248","-0.004563162382528465","-0.1095588409963624","0.1903091158456688","0.26648479729068886","-0.9495592087297651","0.07634519906069061"
"0.014717129012064662","-0.14871758201797122","0.0031800195108803012","0.002744203352104047","-0.18856875667526757","-0.08698417780123086","0.2494042723425101","-0.9611819462709822","0.06467597802018182"
"-0.004586435797793642","-0.14450038933961604","0.041679624303723115","-0.25697550451160756","-0.18590741035003377","-0.43766157784933263","0.34327749999408347","-0.9230947234770047","-0.038827070788700846"
"-0.04470711740918552","0.02875871310923069","0.010923909688080293","-0.023300772736391886","-0.07170884807048818","-0.8103338239955261","0.5395502858586378","-0.8133053684054836","-0.11447598315593203"
"-0.1169667083603485","0.05538623387515048","-0.10090745054514504","-0.23022069314345203","0.3676191191398201","-0.590628051374955","0.7106063097687026","-0.6876716231103507","-0.11250659781226076"
"-0.04343619588945821","0.01214214298258462","0.015816677943952962","-0.10070198953215419","0.1093632205217212","-0.6753990956435572","0.8432938461524344","-0.5704943758446394","-0.0886353593644076"
"-0.007195676190567156","0.04801341770988819","-0.016919840677400932","-0.11987996155279683","0.13463165082911166","-0.5822553029430433","0.9366933887728185","-0.4559820468346894","-0.09362664802795295"
"0.002598122065998204","0.01835076467644285","0.05885426132293181","-0.019967733623165736","0.27964151939558135","-0.36509775810609757","0.9911671673595881","-0.3670634872117559","-0.04066570855768858"
"0.028157124083181037","0.032999796287980464","0.08145225053218887","0.297260184888169","0.12461330935660393","-0.25404356441210296","1.0131517255718443","-0.3055592846951215","0.01687956774991854"
"0.03407942580124371","0.06010512706179271","0.003149660304028164","0.2879792787496653","0.05327869733329652","-0.19289337825590577","1.0174984823286402","-0.2452028440015131","0.08699458901866756"
"0.03133635352116558","0.05068292144963518","0.03138021174783161","0.13286106328952765","-0.09745593778889189","-0.034204313193341995","1.0279752806655331","-0.20865256663721973","0.09052804222449108"
"0.01975556258231698","0.03257184471569418","-0.003994873041841312","0.10958177797531386","-0.031436838524886816","0.2784389670214494","1.0276130509357997","-0.23273577592381692","0.09126022864271907"
"-0.006223228664109125","-0.03728501715559131","0.04713189002410684","-0.06263679586989672","0.10424635141798935","0.3462218260658827","1.0039287993763348","-0.29703682334253767","0.10759877244411495"
"-0.021368376774192968","-0.07863739590386642","0.003481959377668218","-0.07301042280375337","-0.05165062545197715","0.22777534491577128","0.9785448544696611","-0.35848825520064215","0.09273113885790928"
"0.0006368590844190083","-0.041569726465496476","-0.09515985376490721","-0.15855361296189394","0.009295402044403794","0.2731968984379916","0.9443280769225754","-0.42610066144211606","0.04754804573663388"
"-0.012471926136101773","-0.035403899928866875","0.09796807211018453","0.06126426382872795","-0.02588989394035955","0.41927102252980836","0.8930586382526748","-0.49772363773186473","0.04571431100169679"
"-0.0763453606957307","-0.1385589257632142","0.0011692900012721266","0.22587230209044556","-0.059215837443041854","0.3876729980128545","0.8378604002064396","-0.5579613444437808","0.07882613429031139"
"0.006445548121172713","0.10381435560986779","-0.024453880581931157","0.38697882005903683","0.15976844979847346","0.055306434752803176","0.8147612889796202","-0.5511011588348897","0.18676642891501777"
"0.014113441290194192","0.03899942803925617","-0.06956311840943914","-0.06763442904053708","-0.05926609668119824","0.3582106310669389","0.7637983523887246","-0.5878163445070892","0.23375383856692644"
"-0.001736490571738453","-0.05143546441106722","-0.03668843441812552","-0.08459807698249104","0.05240514390819731","0.21907739408099688","0.6877022453194318","-0.6680409381372164","0.20966359793147835"
"0.0032393597418606166","-0.01442700186497961","-0.008855237491216703","0.054052306579398926","0.06035807002218276","0.10579774812263618","0.654600020786909","-0.6902441927136849","0.23113888707325503"
"0.014083593890867264","0.013825176799515372","-0.04748763799838553","-0.04115496405781846","0.06890453380582467","0.19321409551900168","0.6267919230735609","-0.7081730239492289","0.23829731678718058"
"0.013367256307020951","0.0060001030746087945","-0.007145002171879674","-0.13124040682606905","0.04752521121291704","0.1752114729485897","0.5754946205782961","-0.7507853307121481","0.21610291598464423"
"0.0035436106511286805","-0.00980990298436664","0.011694248746301174","0.009134838918159456","0.05055751858168609","0.1305883641319053","0.5372097245280552","-0.7804160554767042","0.20155724830109686"
"0.005762909213985844","0.026880712034731646","0.008115352613910968","0.04563883782998145","0.025210109471478455","0.1553741263739675","0.4985625987480811","-0.7941628120237512","0.24638732297072663"
"0.005181366336777288","0.026356159743458406","-0.001008724933847823","-0.019019425267727336","0.022996309695542085","0.22381467087493653","0.4445346413671372","-0.8241893167272818","0.2574845233719948"
"0.00211960085743421","0.00870544256494771","-0.013398585732986454","-0.028912640151468483","0.010674419807533022","0.2539031737905428","0.3830113149632566","-0.864558870502679","0.24254661296439667"
"0.0032412853805268657","-0.008654849226157052","-0.02640760913173532","-0.015272403826746356","-0.004959553874982357","0.23791971837820347","0.31170778585658504","-0.9021711573698873","0.2323319586922426"
"-0.003094065831447178","-0.002418597649233735","-0.025368787291828877","-0.04586569784782873","-0.022219533576709808","0.2341070842371793","0.2412680353361997","-0.938622489749437","0.22066273765173383"
"-0.005828472737527169","-0.0038552476968773345","0.005371458585084528","-0.10273339118695117","-0.08878262926133146","0.20331478507657175","0.17177565487819327","-0.9799551080430052","0.16867423326817851"
"0.0006089373237583291","-0.03027471336588221","-0.03278923832718444","-0.06772492750288349","-0.19342236310294209","0.09302020595045782","0.12867031703996712","-1.005825923387304","0.10601345810107667"
"0.016596552350328087","-0.15545885799888867","0.03961230688474429","-0.19427162310074136","-0.19630628605429704","-0.18723873945986103","0.15391494281982024","-1.0016174633695418","0.03605043088789728"
"-0.0017653751517322568","-0.0912661221559457","0.026026458555804828","-0.17839588220614316","-0.11366334544580117","-0.5387170110971021","0.27581917878765466","-0.952316475637954","-0.08607597558997668"
"-0.0797537411349994","0.03939829552410553","-0.027305993824298543","-0.0649454694093295","0.05559540888260075","-0.7241066495648524","0.480562567562888","-0.8427118178712875","-0.12671395614631437"
"-0.0598233809392756","0.0574553589528065","-0.029881363276313123","-0.20485224119847545","0.33578826830743774","-0.6056747297163616","0.6574978586247732","-0.7289250854161242","-0.14056012430530465"
"-0.0454292319090306","0.02291177281699888","0.029683607092795543","-0.14526766848976197","0.19363120983060716","-0.6773891401983883","0.8030027546759799","-0.6071172128644113","-0.1302539467308721"
"0.00044044394046114624","0.031609992395458496","0.024759839401899023","-0.13271341371319673","0.29053102099613326","-0.5416778090933144","0.9050400831592277","-0.49885820689025817","-0.10922646803238663"
"0.004794312964860328","0.01710949737333093","0.1412908668134001","0.07834729272101121","0.20683024308929804","-0.35830248401643006","0.958315717255342","-0.4173407321261475","-0.044091295014398166"
"0.020572033376808463","0.04129499351195689","0.018137608329016303","0.3677527105584227","0.17733046358855029","-0.31486126751462706","0.9932848180872579","-0.34807924280561325","0.03135822730144059"
"0.0285586197450949","0.06804196677984979","0.04988074065813362","0.18909526739222524","-0.030291406554332066","-0.27180835238937656","1.006547998960558","-0.27348791697355607","0.08721359120626254"
"0.032797913268852","0.06418001545518859","0.027649127183269027","0.12714233066891434","-0.019153720049169824","-0.05144974807947673","1.0207306860708731","-0.235743703460023","0.08954253238031365"
"0.019881691914956583","0.01820015065221588","0.0070379105584851415","-0.022069415998721104","-0.058404509741374365","0.3208123547377332","1.0202848648650478","-0.2630789045785272","0.07976261379398249"
"-0.01692015145514738","-0.0847710222008337","-0.006569209867772484","-0.15338364761295561","-0.029350362152279978","0.41495116971566254","0.9845355769229375","-0.34945127992739144","0.058823389708408426"
"-0.014031693455767125","-0.07120745028113873","-0.05143020438482967","-0.07100694088733984","-0.08362028751355337","0.24807865314225636","0.9524921777542498","-0.41087632645623096","0.03304487101485867"
"0.005893852643291085","-0.08474920913525602","0.04854865301053987","0.033710370293045605","-0.07195775096421507","0.27848750469351846","0.9101391632008536","-0.48586343222726275","-0.007557153958441064"
"-0.04180903121647401","0.023685617286302967","0.0643684846083199","0.19293663829395036","0.0029574727831771053","0.4382492523088083","0.8588418607055892","-0.5484098552498632","0.027751228584857558"
"-0.01846066238815019","-0.07596581472930251","0.06437261511265352","0.32437121360811366","-0.016176697842372797","0.20181982477684487","0.8062628222435768","-0.5904548774335857","0.07482362416031056"
"0.01802922751802071","0.13870591207751015","-0.044362911469998954","0.23770449466743843","0.12245934200704423","0.27729833172782664","0.7621822505176078","-0.6010090091395719","0.1908522906238794"
"0.006963544922394914","-0.01597780695581317","-0.06394563251571046","-0.062401884967635844","-0.042355059690099464","0.27698283685937775","0.7062874168372707","-0.6553759800900331","0.18980631002641088"
"0.00650813137782596","-0.037041957282011234","-0.039550873921326966","0.034879148306753434","0.09277288533600131","0.1480400841243335","0.6492501663170063","-0.700442122474594","0.2109383867846432"
"-0.0012165681318500028","-0.00822897508868769","0.008908285530836772","0.07142897409950831","0.05928108634740291","0.15007138570042342","0.6180148180838765","-0.7157588061129064","0.2492964565074361"
"0.011151809021496286","0.019828859548684078","-0.011932256694549922","-0.06206684810703425","0.05754833927953487","0.19308061692081177","0.5757175311812089","-0.7364053262627419","0.2535620961314876"
"0.015309262901937622","0.0038234084221324596","-0.010171009646692637","-0.10281041115490556","0.06089177526546256","0.14481232893174142","0.5362344906403124","-0.7734635212153859","0.2304197754124954"
"0.003853638476395491","0.006183228953720621","0.004233504641171109","-0.01355967228936065","0.04515824042545643","0.14977045213359524","0.49062140851931957","-0.8023422640958905","0.22298350710236722"
"0.006982801309057439","0.024009697117743065","0.004596575972096661","0.023084502964138335","0.020787296513715855","0.1807156449612204","0.4406058419908024","-0.8338991178967892","0.24040562142895322"
"0.0025547951960074983","0.010255832168817883","-0.0139913131048615","0.008760425598941185","0.017407961071962175","0.2302313511224654","0.38457168918364487","-0.8624612368261143","0.25289201481123436"
"0.006572640273145456","-0.00045718756683520465","-0.02146133019222055","-0.06892740175257138","-0.01825886628028052","0.2745559532559251","0.3204848908462691","-0.897355834779031","0.23839537746819328"
"-0.0031229504114409644","-0.019159398377931847","-0.03440633077379825","-0.10702725440040829","-0.06392345275035735","0.22499899007342142","0.24842903845476755","-0.9438467849439001","0.18460909393273886"
"-0.004730858697762661","-0.028066400155492294","-0.03852237834225459","-0.08220275597910959","-0.18489983228985088","0.1055186565082391","0.20242586277867733","-0.9723825185439602","0.12091868161500387"
"0.009676769803146098","-0.1495070072484022","0.023969673922876748","-0.12609932396511367","-0.2059823860479303","-0.1481440714918418","0.20922463616751197","-0.9787281902321844","0.051892133905495554"
"-0.0036717574313232188","-0.10333601844227255","0.013245438996272008","-0.09941190506891819","-0.09183647630359612","-0.4828501505456216","0.31900810810197294","-0.9347570390121195","-0.021579831343254162"
"-0.08592541306034192","0.04368196611660224","0.02524290188371635","-0.12411605979028816","0.008042271706371056","-0.7154184062644917","0.5023242151722316","-0.8347170631040031","-0.06218675935060452"
"-0.060689918339089675","0.06283072154159662","-0.040063056458696344","-0.2814582268251086","0.33492668136761394","-0.5279416478977723","0.6470767879386083","-0.735534610396998","-0.09869475089162491"
"-0.04300292718955117","0.005807317123598273","0.043561069027688866","-0.22544545513027994","0.23574845140566464","-0.6564208658645572","0.7765321205801071","-0.6256529066730495","-0.10625522939770246"
"0.0021821841140874402","0.029993748107891842","0.057051296181304924","-0.09508915936747815","0.3215242178592424","-0.5090119557908415","0.9165478430345911","-0.4930006637934359","-0.08300831061896337"
"0.009972355338416023","0.007611257646873986","0.14543789316435865","0.20524057817466387","0.1231653646382888","-0.35179843595917687","0.967148549895754","-0.4157048417117196","-0.005795330389579939"
"0.03489974787306771","0.04537299805757814","-0.04810721364842914","0.3547267084781368","0.22589764072701157","-0.3548077716274582","0.981303373180705","-0.3469578663118522","0.08277634539043882"
"0.026595431124849446","0.054534485600211756","0.06038048267420589","0.15342539473334926","0.010762493139159465","-0.3046440875440913","1.0044860758836163","-0.2686330163888024","0.1333397012099432"
"0.010226539642361476","0.05773996752272505","0.04931486156442713","0.16815546360462597","0.009434931262714162","-0.020951587211607597","1.0124829937631064","-0.23183867472880806","0.1488496322567819"
"0.018467310314593373","0.03464720209780098","0.010468067229821547","0.0718901311576352","-0.032789051360999306","0.3032659862847703","1.002145514553034","-0.25311844278100276","0.17341383285045797"
"-0.00878432809022631","-0.05896408818759879","0.029955600803164686","-0.18784045577654998","-0.08512327806413501","0.43465746457569837","0.9743931444904137","-0.33802643235566143","0.1633626130466584"
"-0.016352088048602584","-0.05271100938865839","-0.1519790713782393","-0.232252094798249","-0.09514640613075287","0.27797785913679335","0.942656247400731","-0.4118393909744022","0.10176579626854411"
"-8.525541542606824e-05","-0.09278680444193387","0.09240221752062615","-0.06829198701694768","-0.03990193020865647","0.4045398390568506","0.8992722713088638","-0.48767082728191286","0.06116377129524437"
"-0.08300807048096784","0.0059449471802194695","0.08005614006742394","0.2147814267050137","-0.024013549049187538","0.41691694543445923","0.8440740332626288","-0.5506526082373854","0.08479312672993292"
"0.012212835926601977","-0.09630286286957726","0.027122900931165327","0.4895982998622646","0.0049702356064879","-0.050512971008543996","0.7965383471915145","-0.5874733352266446","0.14844104608589573"
"-0.004807884244412793","0.1974765430482822","-0.04842113197778456","0.2760989486927009","0.04929625103366613","0.32505940104377534","0.7784825883555926","-0.5583703170473877","0.2883409509973178"
"0.008642701839367979","-0.04786331524336689","-0.06837559841352223","-0.05081037979050044","0.011428547709584427","0.30144582358218075","0.7193834147583866","-0.6111409755773186","0.29361988432516695"
"0.011520568826083846","-0.05128692782165718","-0.07106455673471147","0.0528065085977367","0.09643223653319774","0.1516367256246504","0.6726557796228307","-0.6453495549693462","0.3142943445720068"
"0.0011047892803185983","0.007013164163081647","-0.018689761784358824","-0.1064881146247276","0.11429580575221293","0.22657161064845874","0.6228352598718621","-0.6808774008246221","0.329526437022643"
"0.016256677125734347","0.007523901512822343","0.0003712765640159637","-0.21514403441638055","0.04433494623851359","0.21650489746133705","0.5488289397048751","-0.7590043607781847","0.2643487710428823"
"0.013477980530330527","-0.01783295624732605","0.0019856841828129143","-0.05593317040906667","0.04915265321036215","0.11507087037142884","0.5119650987482021","-0.7982525380598208","0.22098960658844277"
"0.010368074084331122","0.022913850251815804","0.0005488882503617967","0.02363615848461164","0.056229632602193325","0.1521585055993927","0.4793086954215047","-0.8090177523999268","0.2455374637352834"
"0.005541460767366693","0.025027640178035687","0.0033159131034565313","-0.049841853693474006","0.02355873450348268","0.20227365201069053","0.42296804053534187","-0.840838459493475","0.2489532441238917"
"0.006939474439066733","0.001467659662785468","-0.01418957731287545","-0.06219585655335785","0.014782514202554399","0.24048978811425983","0.3631165436533059","-0.8803241047384958","0.22716742949224156"
"0.006131669018573387","-0.006041332354726165","-0.02104414925452452","-0.09839139049352254","-0.03897333095129073","0.2710855097029877","0.28688111745719275","-0.9215116037211069","0.1989096099137545"
"-0.006656497364016164","-0.020406897985494537","-0.020967734924352478","-0.07384127570806133","-0.10630635029852721","0.21313638301974472","0.21855901766447747","-0.9651661309899922","0.14719894412640183"
"-0.007860021530424609","-0.09717746292750218","-0.03592222586423826","-0.01867668641033031","-0.2072747664576661","-0.013900034213415494","0.18930200103219738","-0.9839129074327501","0.09791201150474581"
"-0.0036139882713356283","-0.15755706716398163","0.0064788467969291285","-0.14969631664713928","-0.13665096365971338","-0.29971751382908235","0.25088105508680625","-0.9646516170693252","0.008349922846499009"
"-0.026615742139733802","-0.04642053676301337","0.09492802092063726","-0.10329178595462048","-0.029716057942294115","-0.7561172442943933","0.41664295217769654","-0.8849943080183946","-0.04996512980705763"
"-0.14717035084053479","0.09251934251025354","-0.04303701957890564","-0.18731094349686359","0.07982514826809241","-0.6065726766496392","0.6301634459426142","-0.7559700479127137","-0.08423570347630539"
"-0.03679274249088361","0.01690383132645548","0.024103295738069484","-0.1864252138653881","0.27664989807674845","-0.6446019427157426","0.7629624376278025","-0.6541886402731095","-0.09238618041314257"
"-0.02060774950102286","0.029673823146085593","0.03940991217239671","-0.18796561322447586","0.16594076290348952","-0.6604737614823231","0.8828326143440587","-0.5343860527455342","-0.10075239084820763"
"0.0053575622747394835","0.02544001098919505","0.07873437868066425","-0.09687024612642338","0.3215720838003437","-0.47192917433008447","0.9615479209975745","-0.4241613397411411","-0.06608140273149143"
"0.01792331739137676","0.01623905218503989","0.1574948353142072","0.18386753706732115","0.0028696387812561703","-0.3481823793900324","1.0043467567567959","-0.34825074744583556","-0.012628525511480115"
"0.03361149560534411","0.04815052840780516","-0.03549058816137455","0.31386761547833397","0.08333132845376459","-0.3223603378492959","1.0155480145531548","-0.26920030096799913","0.04475168198308901"
"0.03440485873584055","0.07079976149931602","0.05272872339616739","0.09236492688870984","-0.08767692602189081","-0.19922754446091723","1.0311517567570376","-0.2124151145904038","0.05705993179486376"
"0.026710006625491528","0.05668774678795319","-0.017496046031941485","0.1188626841138176","-0.0399426162585926","0.1838438979260709","1.0439691164245128","-0.2030351300367086","0.053348335018533866"
"0.007436289214960144","-0.023022388420001504","0.058806760523095136","-0.08270434852041254","0.02196001207069836","0.43890451088174054","1.0259690852393193","-0.2723533478151625","0.05393016172587575"
"-0.023438438340415507","-0.10435396150256517","-0.014623280267905976","-0.11761749999413666","-0.006220582093296813","0.29821806838958875","0.9891052442826466","-0.3562323095484876","0.0304250164871366"
"-0.006550587237372229","-0.08787159366509235","-0.03736583712883986","-0.05794724257107393","-0.08583169399243466","0.2738278881748893","0.9515169438665071","-0.4232378532168673","-0.007362666941099249"
"-0.03300886251169545","0.010187069076377708","0.12738965447858844","0.14387491870700514","0.0006278374297755269","0.4356039491810449","0.9025044750510968","-0.488739433117144","-0.003897856211984597"
