"AccX","AccY","AccZ","GyroX","GyroY","GyroZ","MagX","MagY","MagZ"
"-0.00251637423157112","0.0038732668577386286","-0.0031336628882807013","-0.05291880141325181","-0.07745994089381258","0.2298406228623095","0.2618594022802522","-0.9283190186714679","0.21374945964033998"
"-0.009997480449966017","-0.05365624223035868","-0.08962497795785103","-0.01640170910687757","-0.2198060698379935","0.0821429136397829","0.21850329001374957","-0.9531476135098004","0.1672033230529883"
"0.01396420429355955","-0.16632384209139975","0.030021482347285987","-0.15447155466031137","-0.12463661244328035","-0.2075711702895876","0.2580141943800095","-0.9451264734132508","0.11001760257576104"
"-0.01670833120185949","-0.05578665163511396","0.08256129094576692","-0.1708864353305903","-0.07968092056091416","-0.6068639026820535","0.38217540020233404","-0.8970524034924838","0.005493088339662963"
"-0.10350649408323644","0.06626368257656308","0.012204841039502107","-0.15541504926775263","0.029666428588011984","-0.6158919096868974","0.5688908939670101","-0.7892815261097326","-0.05685389264819834"
"-0.04060550705006556","0.033511883970352166","0.015850754604705364","-0.17338958428910792","0.2837819233008462","-0.5339603192343351","0.6935257848205236","-0.7023550588463039","-0.07479899727351859"
"-0.025258166880025076","0.019748878308232513","0.03391634140867676","-0.17003921568309205","0.1652921794015666","-0.6201146871569051","0.8158758419941834","-0.5950986953842196","-0.07496079739718951"
"-0.003970231424592535","0.026690626748983128","0.04012242416994686","-0.09613855643085667","0.2871325391779391","-0.4536062031240168","0.9073249168390823","-0.49511149013463307","-0.052678141981741755"
"0.009800010677786325","0.005999064357200333","0.12056193081510795","0.21552274389657466","0.04340156038703773","-0.35898201142539676","0.941681013512988","-0.41690537419327567","0.010587340718271639"
"0.022786517843000006","0.05096233643251141","-0.030498873674189915","0.2115754705389123","0.16732648189837296","-0.33857192032035976","0.9735572297294915","-0.33852775361169574","0.09768483759373313"
"0.02769785926127958","0.038723129208605316","0.032852736542768574","0.05806312141062369","-0.011189066779614542","-0.26773118793557604","1.0062414968815534","-0.27536127535136856","0.11722506263019294"
"0.01902093143114126","0.022935663317393502","0.03584528693247918","0.058208496600137584","-0.02604282562217829","-0.0069477407546046045","1.0151857848234216","-0.2450973026844532","0.12129458089221913"
"0.016250900209735585","0.010504916603367036","0.010075297572737237","0.06703209667891218","-0.07214203483745517","0.19028242012603083","1.0093343814969655","-0.26768314453526365","0.11503504075424312"
"0.007700101712236875","-0.02683552002646499","0.0487427867142202","0.02216315159748397","-0.05337619262867998","0.22506936969792155","0.9826408367981805","-0.30748541373146393","0.10900430887196334"
"-0.0017653751517322568","-0.06575937747375628","-0.02461083974660887","-0.05223524919765661","-0.11411807188626377","0.16554519555603767","0.9723869490642006","-0.3466148570314077","0.08621337225993321"
"-0.005645537064233068","-0.103813828450165","-0.03143236765358894","-0.07693555292062887","0.02814668495804486","0.22117664839798346","0.9605726871098319","-0.38756488805063405","0.06177828489625716"
"0.01182000563868627","-0.06392292509559572","0.03959371961524298","0.10032975432479299","-0.07788834106666948","0.16557674504288256","0.940455005196969","-0.42422730306430356","0.06388495519334621"
"-0.04571807770896862","0.03427430254816317","0.038034454229299915","0.13418965773674082","0.0253417408095071","0.3791060988926665","0.9085509251551014","-0.4627366911265205","0.08575575574854072"
"-0.03899759876374388","-0.06485673204580292","0.09898004567192241","0.1473408172649526","0.03655673080954799","0.252252892940195","0.842848024946609","-0.5286340509657717","0.10472232580107636"
"0.015748308517843427","0.11882486087955013","-0.04303701957890564","0.12189534535202165","0.09981396527200649","0.1822227396789645","0.8232318918902994","-0.5430932114029727","0.17195926608210327"
"0.017093367126221497","0.011921727148509014","-0.04818982373510161","-0.05227183368243495","-0.023453038878891004","0.3607831276865988","0.7652751351330205","-0.6042544046391626","0.18222295069476363"
"0.002882153769270602","0.0007740041774146379","-0.020845885046510568","-0.09447107412464417","0.07851362148191604","0.2741191142073036","0.7014669750492855","-0.6662731210764637","0.16749750509602637"
"1.5840614552244865e-05","-0.035061123184074464","-0.016052434767339887","0.021853146226467553","-0.01137837657667029","0.14356248387596332","0.6581387266081468","-0.7015107283098251","0.16334626959982299"
"0.007982207776843024","-0.006195997376846136","-0.04244635745919741","-0.030210426611499922","0.0670257956175976","0.15417281899025842","0.6235039916806","-0.7206268993622925","0.16687645411627935"
"0.012600852117852062","-0.016073368957391657","0.002705631088163582","-0.09938302258093529","0.057545945982479814","0.1444046124863614","0.5820983471895822","-0.7526586890899607","0.15563216269349223"
"0.0023660826067146497","-0.014950515438844387","0.011286733188745826","-0.028256044924657327","0.03906011952914739","0.1277100801782104","0.5458196465655549","-0.781062496043696","0.15247787745425104"
"0.011610111024064632","0.0007178095656168516","-0.013898376757354955","0.006100444730676451","0.05116302273661789","0.09760216219377647","0.5171199064405563","-0.7992024099133597","0.1640000074732408"
"0.011501312439421305","0.020092693770433392","-0.0023845959273779862","0.0019321240649849678","0.05526034729489145","0.1437372194954119","0.4805068399121598","-0.8160626353136724","0.17534235957704072"
"0.0014167427442516754","0.02759327217693648","-0.0034810383027384833","0.017242538394798","0.026538389337040277","0.23004205420139606","0.42920953741689505","-0.846907085224417","0.17965702954159857"
"0.004709584863545183","0.015885888266162856","-0.01715114892008388","0.014245498891772875","-0.01183549631418796","0.2328451047633839","0.36177908003583015","-0.8814850592261544","0.18523014491248585"
"0.004839565473517282","0.006263417937653877","-0.01581080026382288","-0.005101820783409466","-0.02235547284943758","0.24124454891493363","0.29980993242612414","-0.9135696196123522","0.19519964748210822"
"-0.012885938449346272","0.016983812566907043","-0.017475393510273364","-0.0018773798249990092","-0.04122063688599802","0.29792684235717437","0.21972929832976862","-0.9527650262354584","0.18632515585046072"
"-0.01104695352307418","-0.0050354384163717","-0.03017462908400043","-0.049500077585676414","-0.15782446270588535","0.2594364684064149","0.13363007795477275","-0.9933720479742402","0.15950555959349302"
"-0.0017172341850759116","-0.14024164796492242","0.020801370573770437","-0.10485144030569683","-0.23476656972921323","0.05735229763051378","0.08946591475271157","-1.0149420546483494","0.0952284175343655"
"0.004962806348157511","-0.10057303013576398","-0.011905408416381368","-0.22065096212511928","-0.17894291591979072","-0.3010037621389123","0.1426858211980975","-1.0035699777351492","-0.036545525610472515"
"-0.03486710382463008","-0.021072715844318593","-0.018012359073644485","-0.09637924383071417","0.05874977440117818","-0.6782142806235623","0.29030836797697435","-0.9391501963347362","-0.10507850122555032"
"-0.07543068232926028","0.051025698194427586","-0.04979039416438093","-0.10023986972442785","0.27959365345448006","-0.5558022716654091","0.4637049532176218","-0.8464717272915451","-0.10399983373441084"
"-0.034626398991348395","0.0292894977049547","0.01758701210134422","-0.04682363369926143","0.2224345398883306","-0.6225901084324268","0.6196866476057212","-0.7480940271271216","-0.06909840301731485"
"-0.030399622118921953","0.056087368125862236","0.03114890350514866","-0.02712866514372497","0.28134076030467847","-0.5903368253425407","0.7941977858609319","-0.6152438942780206","-0.03192359884540825"
"-0.01903835398802625","0.027738692614121145","0.06071298827306263","-0.005947981406348363","0.19719961573971104","-0.5775228799163106","0.8940617359657816","-0.5050455666028926","0.01229686525725934"
"0.012009681047312227","0.05272607859207966","0.05641932901826045","0.24412603449563552","0.11364961554734501","-0.4636777700783454","0.9325416787935715","-0.42449115635695317","0.07496254345841186"
"0.025571954173735707","0.06286292178125895","0.03228685744906208","0.14234414684391167","0.027902568658428092","-0.3896092825009696","0.9722476299373803","-0.33059896216757373","0.12987489048082854"
"0.03175036583441009","0.0445763018052879","0.04598567507152617","0.06198728877789975","-0.06858320211657153","-0.18873612664319134","0.997102162162136","-0.27165413658964094","0.13069206282260085"
"0.021110249384026322","0.02465266319358096","0.023900281450071864","0.04272266929330843","-0.0977886060795461","0.08021839494224495","1.0102538877339804","-0.25338229607365237","0.1139073429225973"
"0.011459911208096848","-0.013310380650883108","0.022730316097572856","-0.004560659233569947","-0.11617391405656576","0.14397020032134336","1.004708986486529","-0.2805064145580368","0.08866162059588309"
"-0.013328835342584573","-0.08810011149495395","0.007858435244359554","0.05309533347756566","-0.21284636200186055","0.16394102549415546","0.9985789449064324","-0.3086859462130199","0.04618827095992474"
"0.005296904656752503","-0.07171434437646812","-0.011275506505503699","0.13853165843016949","-0.08361310762238816","0.11510727362548065","0.9825851091474523","-0.33956997411766193","0.030591719644858153"
"0.006967396199727412","-0.017724929636846014","-0.012314328345410143","0.003234627998053613","0.0072314226641145805","0.1843195671123476","0.9749782848230595","-0.36189196267582274","0.033438748083592935"
"-0.02396798897363522","0.01414333594172724","0.04164451501688732","-0.021231823847217134","0.12572140589309966","0.4158733854849746","0.9346871933466049","-0.4305333967586302","0.032358446247769915"
"-0.029465687365789008","-0.07151283319922652","-0.025953253655036677","0.13466140504046148","0.13682869752566257","0.40106939550391324","0.8738325987514621","-0.5144387438212202","0.06363653480144743"
"-0.01552406342211359","0.06646519375380468","0.038561093531836975","0.2868528617183323","0.16650558100848523","0.29972273622372936","0.820083279624159","-0.5532911411638819","0.16032273193526533"
"0.011612999482064004","0.017080413285894","-0.058045207075128544","0.019913205783616408","0.006106573048233398","0.3228509369646334","0.7522627286879969","-0.6014575597370763","0.21271982248970683"
"0.010249647306356515","-0.020276019592028346","-0.07541604305018437","-0.03832351748589528","0.0877972207585184","0.1552309402413638","0.7058973232821738","-0.6438719765305082","0.20845418286565529"
"-0.005414460424282672","-0.007073921330478102","0.006142623744172134","-0.06410595175862668","0.067942428389688","0.1585072331060249","0.6630984875229524","-0.6726319854293205","0.23074664434920433"
"0.005419182712059589","0.006775194004803036","-0.003570463721561442","-0.042413277784273284","0.05154355696837343","0.1471494178418664","0.6286587993729541","-0.700877480407466","0.23117157396692592"
"0.01161396230139713","0.00614458866612584","-0.01568895038598097","-0.14152257254797987","0.04225517109766095","0.1910905723659806","0.5850519126781745","-0.741273419512128","0.199694095361856"
"0.009489982852519514","-0.017911898770369153","-0.005406266372640643","-0.1057853074171438","0.04793207171227832","0.1365172407751402","0.5449558679792684","-0.7801258168547895","0.1626598448327342"
"0.011891254269337638","-0.003178211690041894","-0.00894197808222281","0.02962349824346588","0.04432537305029333","0.09829625090436393","0.5119650987482021","-0.7985691620110004","0.16517673564539295"
"0.004997467844150078","0.012508602484289966","0.0018433883085195665","0.05436038645121648","0.05099549194276323","0.1500568243988027","0.4736244750472327","-0.8155745067222706","0.1976675079542606"
"0.002557683654006872","0.021370316182841482","-0.0014366451828112712","0.025991044004817058","0.026038190252531408","0.20100924565329167","0.42185348752077895","-0.8392025690790472","0.21760651309350532"
"0.0023256441947233347","0.015661525305935096","-0.018904548009707277","-0.029815699275733683","0.006963852053358165","0.23723048343482292","0.36531778585706787","-0.8714322487762024","0.22540233723401334"
"0.0038180141610697988","0.0001278180776105148","-0.012919447230286065","-0.045821411366254956","-0.0227640086567374","0.24941343912415534","0.2917572868959062","-0.9107068113871035","0.20583923137198387"
"-0.003248116924747459","-0.0031152654150891045","-0.0013154148806194075","-0.05230938091681272","-0.05990750029195603","0.24841841684673974","0.22371382535683165","-0.9509180531869108","0.18140577835299132"
"-0.007465265603842652","-0.021606616592267987","-0.01776246356146023","-0.07289393010222237","-0.19266608123354115","0.13839079491700568","0.159571299368728","-0.9867361376641014","0.11956217552766177"
"0.0008746754597013099","-0.1342482485180975","0.0032211180289998614","-0.13296372860904845","-0.17913198638714098","-0.0964441700874894","0.16461465175962545","-0.9906411663953162","0.05702070752245867"
"0.0009507381870183173","-0.12958440735410373","-0.006776767710537094","-0.17063612043473855","-0.12001036923583712","-0.3816248354456103","0.23842592514906416","-0.9628178366854102","-0.03302841585148443"
"-0.05036849508797084","0.014287302174540054","0.031466952338837714","-0.025336988139186018","0.00758634861738092","-0.7315329133914176","0.4263395634043952","-0.870957312849433","-0.07154828569794829"
"-0.10410344206977507","0.07305170084086134","-0.05592419309981261","-0.1883507130642478","0.28990876376181596","-0.5893418030651251","0.5937732900171303","-0.7628038481923398","-0.07237199541845478"
"-0.038670240190480765","0.02058296838722739","0.03531658237777531","-0.15169883581395338","0.24345486792297827","-0.6717830390744126","0.7659438669417581","-0.6416688015368835","-0.0725664824357966"
"-0.012991848575990207","0.031168537496862207","0.030134658166027284","-0.12886241531547732","0.18683903278832886","-0.6304532113076134","0.8869843243233063","-0.5207976081740769","-0.06889737862123886"
"0.006401258431848882","0.017668327339083408","0.06346390415925623","0.019215212324029767","0.2937859049910234","-0.44955330750625083","0.9407893711013376","-0.42987376352700607","-0.0038864157991997843"
"0.022364802975090484","0.027159088300199426","0.09154720312356598","0.2778607804596575","0.04303538593761259","-0.3603896039153993","0.9810247349270643","-0.35124548231740915","0.05222227153157161"
"0.02482769482922872","0.06489153687998496","-0.02044729137831585","0.21001581618783594","0.10904491201339737","-0.2920000239701029","1.0036780249480584","-0.2741211648759152","0.12425274476943493"
"0.03160979421177358","0.052970177183068186","0.033410354627807816","0.0864420913530174","-0.08533628150203593","-0.08495772999234787","1.011647079002184","-0.22445078253461775","0.13347044878462677"
"0.024734301353915432","0.044522288500047885","0.004426605718768033","0.10054155923666755","-0.056908699081957906","0.19883475794459807","1.00799691787949","-0.23090199553990182","0.12544581638842253"
"0.0009295561616895268","-0.020299910092422966","0.05349906245438827","-0.047314635994970655","-0.055953773556986434","0.3607831276865988","0.9996934979209956","-0.27545362400379597","0.12046106510361135"
"-0.025036718433405925","-0.1004172225244947","-0.0188219379230348","-0.061992716387878156","-0.05450343554161623","0.34214466161208223","0.9686253326400505","-0.3551900890425215","0.0900933065386682"
"-0.004239820837868015","-0.07809206926442394","-0.022576566362299037","-0.008989018566067432","-0.06251380078492327","0.3105466370951283","0.9363590228684496","-0.4160610436567967","0.07174615312119596"
"-0.012202336722826279","-0.02084315929704852","0.04715873830227539","0.16381346291119736","-0.002351578074076563","0.343285296905705","0.8827490228679665","-0.49516426079316306","0.08187091843575509"
"-0.0711557644901775","-0.09308491633816243","0.04833799728952504","0.16006836696941523","-0.020978369723952405","0.40034133042287745","0.8127272297280429","-0.5703096785397845","0.1395992413479192"
"0.01826126697730425","0.11368320970766392","-0.040476106892058744","0.21312549739399436","0.18077441805079073","0.10316457941289002","0.7874547401228255","-0.5625655844005172","0.2122785494251498"
"0.023582769431495832","0.016084283291179072","-0.055459511362279904","-0.08183979938012453","-0.07730676988228835","0.32146761331066537","0.7384422713074151","-0.608093470047215","0.22653003506565908"
"0.00969410055114239","-0.015129174833099826","-0.04486889825086791","-0.03411245073798911","0.0613728279735309","0.21605349711109484","0.6817672505168837","-0.6604551559735389","0.211297942615023"
"0.0004770310751199632","-0.021148542215136307","0.008131668106028783","0.0109952562440977","-0.0035678516374612786","0.1215045388041819","0.650587629934482","-0.6836742457267084","0.23367212133274923"
"0.0048520821248479356","0.01829259650156899","-0.022347323371782902","-0.007227379349030691","0.05554036305033422","0.16890157557961274","0.6180148180838765","-0.7063524362299464","0.24792360697325858"
"0.0097663120011269","0.02368873343852835","-0.016587335078544197","-0.14433380137831503","0.04181480443952874","0.21262188369581275","0.568166434507544","-0.747777403175942","0.21760651309350532"
"0.0029437742065907073","-0.009121233342556427","-0.0008147977553841748","-0.15624301392326229","0.02056711318464975","0.17271178283703345","0.5179836850268424","-0.7927380042434431","0.16619002934919067"
"0.005695511860666974","-0.0012977176937625425","-0.0017528352895501914","-0.006289276139346244","0.006496919797914721","0.1409171807481999","0.4780548232801211","-0.8202051320082722","0.14468205331374306"
"0.007736688846895693","0.01023464233368526","0.007791521074154845","0.01707020621650006","0.0031623390110907847","0.18944757216644315","0.42826216735451644","-0.8505878386568798","0.1558773143960239"
"0.0003008351371577672","0.00898163752385772","-0.008371348908532647","-0.025971440125210292","0.017111192237133952","0.2171116183622002","0.37147569126252883","-0.8832660689515395","0.15577925371501125"
"0.007755945233558234","-0.015390931620032217","-0.022731460274809937","-0.06449586534639577","0.00507051475309518","0.19261950903615577","0.31388116423498275","-0.9130287203624203","0.14066156539222324"
"0.007402590538300717","-0.014169399947681066","-0.0100890191356702","-0.03214555330635392","-0.02119639908566895","0.16239267375515265","0.26798944386034895","-0.9393480863042234","0.11715968884285116"
"-0.005857357317520955","-0.0061044863731606475","-0.01453653967689987","-0.015026902678891743","-0.07784765501673334","0.14821724662738556","0.2163856392860795","-0.9644273417705731","0.10265161108702531"
"0.009066342345943737","-0.10214149342254139","-0.013894246253021332","-0.01612636272144063","-0.14871078752019268","-0.06416176439436186","0.20721844074129864","-0.9696384443004038","0.07850907142170374"
"-0.00251637423157112","-0.10407350780228045","0.05415994314776811","-0.1859823490496504","-0.1214894268158681","-0.2550628555255531","0.27080369022212086","-0.9486621075347563","0.014390460796880031"
"-0.020694403241004255","-0.013686396352746303","0.06046309276087837","-0.07856741349166246","0.0023141545347752715","-0.6593331261887004","0.4067234303480856","-0.8818676465004962","-0.04175254777224577"
"-0.1240338022654989","0.061620615760738566","-0.07197739819244238","-0.19097901947069132","0.1925231132941114","-0.6068639026820535","0.5770271309733205","-0.7754424209102583","-0.05764818416440104"
"-0.03608025618436981","0.02688278946954857","0.018786923610262","-0.15243052550952008","0.17427661654628562","-0.5809690546332134","0.7097425311824165","-0.6773681520323818","-0.06863751781655526"
"-0.016303947081946258","0.04302861286667973","0.0009268293968883948","-0.11596157068311731","0.11901299424774871","-0.5984911542501418","0.8538820997907832","-0.5518927187128387","-0.09082374689567388"
"-0.01169204247626909","0.017347363659868695","0.07746011809374123","0.04149420080443594","0.10773577852427609","-0.37434418463525226","0.9293930665274304","-0.4609292960718704","-0.0700773754827581"
"0.020163797979562723","0.026075706043173708","0.00770973708834909","0.3288768817334453","0.2385964749011936","-0.34709028176847867","0.9550277858623806","-0.3973802305372012","0.02099321331840042"
"0.02107943916536626","0.04881738498403767","0.043185193133329074","0.20482659584690902","0.031576279637954924","-0.3442265591164045","0.9849535343033985","-0.32071765635784416","0.09149720862183305"
"0.031578021173780405","0.0326476710865119","0.03206587546721319","0.14085188496479542","-0.09078342559936692","-0.1037515166174854","1.004653258835801","-0.26429262972471557","0.09330806253120055"
"0.029414566132244583","0.032111692903745576","0.033835796574171094","0.11437627098047451","0.027323390771102036","0.06428590408557809","1.0033715228690534","-0.2598203164143039","0.12206272289348512"
"0.007151294692354621","0.00176120120241679","0.019293116916347625","-0.022777999703901472","-0.07018910444052104","0.26120809343693535","0.9910278482327677","-0.2970500160071702","0.11165194725930569"
"0.00039422861247106713","-0.06078288236981551","-0.041132857081104965","-0.1620772764958072","-0.05642046648272437","0.21575984419507704","0.9778482588355593","-0.3429077182696801","0.07191939365765172"
"-0.012741515549377254","-0.07283823661242385","-0.030259304422839722","-0.11573051077925416","-0.028408360431405866","0.19672822297680115","0.9587894022865311","-0.387208686105557","0.04576007265283604"
"0.0005415399704394594","-0.0887534647448765","0.07070261300393232","0.07055576021282542","-0.0718213330320763","0.1681589491969562","0.9396469542614108","-0.4203354669977211","0.03887621284574598"
"0.004067384368349629","0.014434800046541638","0.011999885414467684","0.23145624976713872","0.0006450691685720036","0.23116327442619122","0.9105013929305869","-0.46592931596758136","0.05285639726878693"
"-0.06043958531247672","-0.060259368795950737","0.012192945187021268","0.1810274257490031","-0.055738376822030464","0.4459182044957188","0.8570864397076523","-0.5303227120387294","0.10316152662829123"
"0.006956805187063026","0.005417174864979999","0.058482515932905654","0.32660479267879083","0.16736956124536415","0.09800745175555307","0.8181885394994014","-0.5480272679755213","0.16931162769476094"
"0.012886809459790708","0.0909893117675892","-0.04834884815194614","0.13215825608194387","0.057957593075951226","0.33384471968827406","0.7683122920977046","-0.5601909047666703","0.2696277043707315"
"0.004782759132862816","-0.013586679481533966","-0.06940822449692824","-0.07212565592187734","0.02707209458032007","0.2529809580212308","0.7082657484381204","-0.6210882447102105","0.2628288304871858"
"0.002902372975266251","-0.030109557297936775","-0.020980126437353353","0.052036308918192824","0.04725955523980468","0.10225449806159527","0.6660520530115447","-0.6520778139319123","0.2953522896897243"
"-0.0013609910318190044","0.007132512793313915","-0.010909956871977978","-0.027105559153338652","0.07820249286475742","0.15126055866611524","0.6366278534270796","-0.6703100764540035","0.31870707521757735"
"0.009251203657904071","0.014989475142660273","-0.009402942365855246","-0.22482929538664487","0.04136007799906613","0.18437538543522702","0.5966432640296301","-0.7086479598759983","0.2797769848555438"
"0.009857779837773932","-0.017164022236276607","0.009418258248387663","-0.17650889299126063","0.04545022266617451","0.13166832733544173","0.5621478482289036","-0.7562602865346284","0.21311206521375753"
"0.009724910769802442","-0.010651264085220746","0.011916180744146791","-0.01357218803415324","0.039244403402387495","0.11085780043583501","0.5303830873138563","-0.7795849176048578","0.1983212458276785"
"0.007230245877671019","0.009697417690028786","0.005919576510156436","0.013524399441799914","0.023427103165454034","0.14263784122304785","0.48555019230305757","-0.8107327988021494","0.2031752495378061"
"0.0062780175572086545","0.0008629183875789733","0.003215541848149468","0.0017935843976270125","0.03596319313989154","0.19505852705762572","0.4371507276456569","-0.8356009716343794","0.20950016346312386"
"0.01117876796282384","0.001942872877156769","-0.007397995562314148","-0.045629824195968414","0.012436843758883875","0.2214751550812081","0.3894199947969941","-0.8614454016494131","0.21502424849350477"
"0.0075595300896003715","-0.0024324125907662785","-0.023592670428370544","-0.07383261096166646","-0.02459679554150721","0.22539214521718076","0.3231040904304921","-0.8998096704006728","0.18768166193780278"
"-0.003286629698072525","-0.01343918160953238","-0.04209113408650575","-0.06827080652576022","-0.14970161250099015","0.18293381657477611","0.2621659043592572","-0.938978691694514","0.1340751563175383"
"-0.009419788850089959","-0.1701982580249625","0.005740312622077153","-0.10208834895533317","-0.18700593369830926","-0.12200168131544956","0.2591566112199367","-0.9472900704129782","0.0774974120625896"
"-0.021002505427604817","-0.11182233966940595","0.015504824866764352","-0.08961785339391831","-0.0567244152087178","-0.4462042081334861","0.35015986485901057","-0.9095590495640775","0.01121819776611987"
