"AccX","AccY","AccZ","GyroX","GyroY","GyroZ","MagX","MagY","MagZ"
"0.004518946635586085","0.009796822946018587","0.0021562740117915865","0.17784072457489028","0.13676647180223084","-0.4159409695984312","0.07564545737212947","0.8673873351142839","0.09174889770309894"
"0.009144330711927011","0.010431687026070476","0.025000854329765985","0.16452589761477546","0.08565521989423401","-0.3146185791542818","-0.0519151351446121","0.9167279008397693","0.02360162743333768"
"0.0219767867838404","0.0071775931288411594","0.029921524142412285","0.10084001161249082","-0.012270597718799021","-0.19101739723043684","-0.15512274429315112","0.9531396552254215","-0.06401722539617453"
"0.02080888693275765","-0.0025966338130440987","0.032757734943095224","0.023814267160506164","-0.08627445394762193","-0.07116817735752974","-0.19605470375297915","0.9668468337785711","-0.10170357945403062"
"0.01702115567623699","-0.026625699109955697","0.031566084442844686","-0.014436737174441246","-0.08757401424852296","-0.0023873837753566754","-0.20246338358671678","0.9657650352787075","-0.09305135869934524"
"0.017267637425517447","-0.04987427214614905","0.016797259672755305","0.04101282600472102","-0.1097431248696025","0.010306188224142218","-0.20321570687154683","0.9648811267483312","-0.11136745956783013"
"0.020002044331597427","-0.0528335780428569","0.014875336006320048","0.059679577988066404","-0.09767372782090293","-0.015877944350229427","-0.20931788462627965","0.9637993282484676","-0.1562204150630295"
"0.0037217322277571254","-0.04282657452973533","0.018349296676114533","0.05449805964393495","-0.0559705266363719","0.0498071165073794","-0.19304541061365899","0.9581132897918675","-0.19390513477620203"
"-0.0010914016185435255","-0.028355163595044693","0.008380944042562993","0.00887114180287562","-0.035593995509537055","0.12226658025566603","-0.1593023180977626","0.9457121850373338","-0.2125938662325351"
"-0.004422756511162082","-0.031103609857834773","-0.00717866578219871","-0.028380239622983777","0.023575487582868142","0.2642902356133202","-0.10368612267106586","0.9286408770029011","-0.21371175799607967"
"-0.03298960612503291","-0.012477329289296698","0.07085957216861004","-0.035403497950824536","0.046812008690507265","0.39213846384320744","0.019388393962059405","0.8897225163370771","-0.18939270910493525"
"-0.017786688854961458","-0.08182937450006972","0.11299278162374193","0.14210345944405423","0.03694205163541367","0.30612970893684444","0.13764246880719944","0.8446299886232512","-0.19459155954329077"
"0.015016565824667087","0.038303487375586726","-0.0037889674008101536","0.0962794667599916","0.06938079991978288","0.23106377219844965","0.23293675155234073","0.7990361396533909","-0.24267398013317437"
"0.02619297264360246","-0.05204103666020049","-0.012351502884412759","0.043624765667974214","-0.0008442795887957798","0.28574388666784195","0.32394000519141464","0.7559620896283349","-0.2692320812407749"
"0.0057889053359802736","-0.007895546800571432","0.001027613702628821","0.031007932167446007","0.11812029444620895","0.2284354572559104","0.3768255457324316","0.7224659141264612","-0.2848073860749554"
"-0.005789959964202086","0.011691028012089636","0.013361299642830162","-0.046460677100276376","0.07522044473414476","0.23905549990461936","0.45601453741713677","0.6865027103383134","-0.26009609445976034"
"0.005657961906675032","0.0026672743978180704","-0.0055528992764842956","-0.002626976663115091","0.07228626254463341","0.20417875563940088","0.5158103066484447","0.6546160399216027","-0.2324920127546912"
"0.0017479525948472768","-0.005525089802720621","-0.012062367581059077","-0.019364089624323223","0.05837402676353276","0.1796526699429081","0.5722345530106995","0.6232966540840886","-0.19455887264961988"
"0.003049684333234643","-0.00304515199001793","-0.014315557695050983","-0.07294303033179328","0.07035726511824995","0.160732685370391","0.6162872609113039","0.5992991971176027","-0.16283460799733468"
"0.0053575622747394835","-0.004935306058195978","-0.004833365421566989","-0.11036799551042989","0.0790353602399205","0.1732918080182586","0.6497238513481957","0.5737581983891161","-0.13064292076555573"
"0.003919110191048112","-0.004786873340526777","0.003136029639727205","-0.06898612947813659","0.04545740255733972","0.15877661718600816","0.6897084407456452","0.5478478050509201","-0.08874649480288863"
"0.007082934519702627","-0.007808294538260637","-0.008488035655957526","-0.05775180440238966","0.028163438037430325","0.13682545499277868","0.7218354313904254","0.5249849172428276","-0.06101003117845238"
"0.0108244504482332","-0.012243617872392778","-0.011769101773371772","-0.021145176383268446","0.04445700438832198","0.12086384153287041","0.7489469334696718","0.5015151668616409","-0.018775295866291536"
"0.005364302010071372","0.001989199673574168","-0.0162093939320176","-0.00035565780814018693","0.06453915997738367","0.1373836382215728","0.7730212785842341","0.4792063709681126","-0.004522175881098654"
"0.0007697281523904987","0.014966623359674112","-0.01522633390061508","-0.03967810617229307","0.037435070828757334","0.1712872021618067","0.7999098700605676","0.44995823347789843","0.0020233745764976713"
"-0.0035465909180167413","0.018540849962191373","-0.005801349112151778","-0.06587259727358045","-0.022251364427542192","0.2110444093535685","0.8319811330546193","0.41234594661069024","0.01696618801814641"
"-0.011942375502882062","0.0012014363909966935","-0.0038845885761335506","-0.06211883658540346","-0.054019989536492834","0.21574528289345637","0.869708752597579","0.37379698055457566","0.0255791845004267"
"-0.013309578955922049","0.002451844407303081","-0.005161533990873419","-0.041973301217333836","-0.09148705493355642","0.17718695620180017","0.8990214968805873","0.3332295368096913","0.03200215910675719"
"-0.01589956296203302","-0.025822770553214677","-0.06587044753517926","0.004229340884184535","-0.1589636721040969","0.08210165661852421","0.9227614760907803","0.3074906481117176","0.007388928172574759"
"-0.00795630346373728","-0.09183845544800823","0.041109614705683","-0.10027837970840506","-0.1290642119951531","-0.14710536530956406","0.9208667359660231","0.31254343866595846","-0.02794560388566057"
"0.01106900655884739","-0.04798172902793154","0.017045502983206114","-0.18704137360902323","-0.11057359894771052","-0.3548077716274582","0.8817180613294957","0.3596412514039218","-0.01969870061249427"
"-0.010700338563148535","0.007460332007424479","0.006836548472220969","-0.09465881029653299","0.011676732614194805","-0.5435707783040076","0.7981544490626307","0.4474384345330942","0.0045451684232070706"
"-0.04991597000140127","0.030976374776296764","-0.06232647481692985","-0.17124265268237937","0.2683690902662189","-0.4195570261675757","0.69438956340681","0.5395232336678235","0.07247343650537334"
"-0.014233885515723734","0.004829624362883548","0.01301846778313937","-0.12661920874880575","0.30694903879388835","-0.5114631082303286","0.5699775831562091","0.6091805029273323","0.19466031373653844"
"-0.03526185975121208","0.013083532569873605","0.056105410688905025","0.12499539906218576","0.08387700018231972","-0.47391921888491567","0.43937983367478306","0.6801438459854567","0.2392452367036365"
"0.00018337117851630318","0.014851325727334844","-0.03607092402024873","0.23275596172636903","0.2785884686913522","-0.5057356629261803","0.2898068191204208","0.7678354877975694","0.17756506834666141"
"0.006270315002543641","0.017194672200824802","0.0255500048809213","0.18259670759607374","0.14351556949751793","-0.5608259207245561","0.10813467774664286","0.8530205233295103","0.12118017676437101"
"0.004854970582847309","0.017404493117334097","0.08688799423523809","0.14626253771359118","0.036073284804424594","-0.46736663315559346","-0.0856582276605085","0.9269258306006783","0.04775397316676051"
"0.02375029999545988","0.02573189058097283","0.062014097138154194","0.08956428830396841","-0.06740330666842381","-0.3125314592553125","-0.2236120270380509","0.9720315509791368","-0.01861349574262062"
"0.025876205083003763","0.01721025296195173","0.004357832821613191","-0.025295589906410534","-0.08648267079141271","-0.14338252586186764","-0.3073706860824645","0.9958047326468705","-0.042512518050094025"
"0.023777258936787435","-0.02422314574418341","-0.030335718753011765","-0.12474184702991757","-0.0473450840499128","0.011870072018207124","-0.3249527598871968","0.9994459080854359","0.0016474752992824"
"0.021432793860623786","-0.05294887567519616","-0.011448987687515913","-0.04884348235886525","0.014236363814588262","0.03140891190960464","-0.3107700727768816","0.9945250441775199","0.05323393089068572"
"0.016176763121084826","-0.1015390373256335","0.014784051860546958","0.0637693382864444","-0.04104592620097818","-0.01894261296466947","-0.28680718296377594","0.9843534997458755","0.04556231694612715"
"0.004627745220229394","-0.09721174060198141","-0.02756621559731686","0.25434080774558626","-0.08744477620754937","-0.009122228463298205","-0.28711368504278095","0.9870052253370046","-0.05985945252123695"
"0.011687136570714763","-0.015831347801220044","-0.0034283743724847758","0.24014987864999027","-0.11203111685424591","0.015670086364493328","-0.31511682953367776","0.9867941427028849","-0.20631961699240722"
"-0.017517099441685963","0.030550500638827402","-0.0011530860603079815","-0.08297199290905403","0.24764313776934438","0.25086956928622695","-0.25002693348319516","0.9698283759855121","-0.21726318899342215"
"-0.0352522315578808","-0.08135260320958572","0.06793930560473786","0.030898178713111003","0.041283492493304014","0.18148739394711833","-0.15671098233890338","0.9457253777019662","-0.18527089181303563"
"0.016708239392970805","0.07048295268973516","-0.04350376656860516","-0.013764737954039211","0.053824369061851646","0.27525974950092635","-0.09148176716160056","0.9217279207354803","-0.21750343766190322"
"-0.00877469989689503","-0.014064489489426419","0.021443870522865654","0.025062953390966675","0.015234368686550925","0.40048694343908464","0.04783735965878155","0.875289741229141","-0.20500887255620437"
"0.008681214612693043","-0.0076306738614136576","0.018717531137457118","0.056765334950592244","0.04813550196195896","0.3643021089116052","0.16656511953511088","0.8324663518321022","-0.20004700209696283"
"0.007516203219609666","-0.016640508662411832","0.02757333242874703","-0.018922187558184922","-0.004613483120819763","0.3675055952681627","0.2872712110122899","0.779194372046137","-0.20148032238443148"
"0.005997837131268772","-0.004744493670261533","-0.02702098902527849","-0.09462415131095353","-0.004871241213650408","0.3337233755081014","0.38128375779068363","0.7369778452221922","-0.17657127506252748"
"0.003181590581873009","-0.012989416971668395","-0.006497752142800791","-0.05905633010961712","0.015863805812033376","0.40963629462410117","0.5061136954217461","0.6687849617368891","-0.16198474876189148"
"0.004022131859692674","-0.028349970008002382","-0.009017566311528129","-0.05147949076210419","0.003065649810066104","0.3884496007659593","0.6119683679798722","0.6018321887270394","-0.14485354778897644"
"0.0032759468765194335","-0.04230098352105363","-0.01498056889276445","-0.01123366925713813","0.08040193285836339","0.22630465345207892","0.6725721881467382","0.5641935165305662","-0.10295058444757518"
"0.007220617684339757","-0.008796114793707866","-0.02036468129164337","0.04738045185535005","0.09192565817850784","0.1552600628446052","0.7133648284797464","0.5341406264977706","-0.09093161364478783"
"0.006791200261765216","-0.008499041614887773","-0.011895082155547304","0.008790848486283169","0.07627588873542901","0.18415453902731282","0.7501450779603271","0.5030850939529062","-0.08250166376706453"
"0.0059525846226118175","0.009513045350026807","-0.01707473458991183","-0.006099229368418792","0.0884434109633863","0.1770777464396448","0.784306127856685","0.4688501292316136","-0.0730093898450372"
"0.003937403758377512","0.008410758436167079","-0.002036807462486844","-0.04133403548331242","0.03338082561747495","0.18529032055372868","0.8164052546761006","0.4355254583699623","-0.0506629949869312"
"-0.009284994143452203","0.03873767125232378","-0.004512838285277765","-0.04333751739972594","0.01890377173137864","0.22966831412646438","0.8514579469841091","0.40118495233160983","-0.021994954892874497"
"-0.008177751910356431","0.005284738395401112","0.001517698041813312","-0.07895155058183498","-0.05559717229578155","0.24257448112962574","0.8901886642401754","0.35411352492291154","-0.00984523651540357"
"-0.007831136950430804","-0.0006797847074685813","-0.004671449651688928","-0.047851850271452515","-0.08111211219984384","0.20708858907994063","0.9219534251552224","0.31295241126956547","-0.012943954035404236"
"-0.019153892308001446","0.004209572393076326","-0.017394848675767693","-0.05173847040435082","-0.11399122714234526","0.1800118487162191","0.9480061018706337","0.2708678110919456","-0.033822707367687124"
"-0.007291958123879829","-0.05393773464805185","-0.07295839297167808","-0.01512028939003644","-0.16365932092613708","0.030751226453068964","0.9640835291057056","0.2507753828566744","-0.05869906779592025"
"0.006404146889848256","-0.08445109723902745","0.03426536902486799","-0.18764790585666402","-0.11009015294258712","-0.31034726401220514","0.9483126039496381","0.27636915224369085","-0.05975812315085717"
"0.015567298483215591","-0.025006338670163657","-0.002565925067624081","-0.13454263795211344","0.0010433137985350444","-0.49076179109287726","0.8898821621611703","0.35544598405079225","-0.0359081311838901"
"-0.06612984757125583","0.0236710752425845","-0.008812693296580376","-0.12917049518729487","0.1855155395168772","-0.4884319828335627","0.7954516580023155","0.4518315918557109","0.018558039739918895"
"-0.01903835398802625","0.022631319116714177","0.006152950005006194","-0.1495519042072248","0.3272202648503003","-0.47581218809560877","0.6821573440719808","0.5381248112167804","0.1272599389871571"
"-0.03297034973837037","0.005097353774914592","0.04689232077275664","-0.05815904748294849","0.24761920479879374","-0.5338147062181278","0.5452066424075452","0.6160406885362232","0.22737989430110234"
"-0.025662550999938312","0.011228487150101569","0.06878399374096397","0.19614259446005178","0.039242010105332424","-0.5147151322589552","0.41282560810281815","0.6913444182584345","0.24038927798211773"
"0.005114931802791543","0.023299214410355155","-0.0012974471867681422","0.20946704891616091","0.20070100933127313","-0.5465558451362544","0.24246617982685512","0.7854608877465663","0.1763229663871675"
"0.0026780360706477268","0.02129864468165761","0.04024840455212239","0.14661875506538022","0.09683191714139384","-0.5095216013475665","0.0665339864780768","0.8664506559253776","0.12825688924411932"
"0.011482056052758764","0.02161649220864694","0.05506865410116539","0.15359868966124662","0.003415310509811296","-0.4084418992637624","-0.10817219855468246","0.9342741448009713","0.028236628955870306"
"0.024762223114576102","0.03110413701753757","0.048197560142181836","0.0919865662961339","-0.11980933228321153","-0.18954670576674454","-0.21110116944958046","0.967229421052913","-0.040144352603637835"
"0.028223558617166782","0.03975353687779948","0.016286316286686014","0.03933764170171308","-0.1367131893831451","0.007291028035212608","-0.23606715697579297","0.9722822116071539","-0.0656924286968078"
"0.01778563422673963","0.0023149414528678075","0.02773834607687531","-0.036668550924475365","-0.10867092778893278","0.18546990994038415","-0.19290609148683846","0.9588916570051839","-0.08023319334630455"
"-0.015851421995376674","-0.09571183266416247","-0.027991657543680132","-0.17648001050327775","-0.12052732139973144","0.24313509124202323","-0.1089802494902404","0.9346039614167834","-0.02550389292844486"
"-0.007580803923817867","-0.048028471311312326","-0.07956926515764334","-0.1736110166969768","-0.06613007263512853","0.2178760866972878","-0.013490919967550837","0.9022423550733032","0.049393220884355805"
"-0.0021023619183266223","-0.08473466709153754","0.04351769873218581","0.07544460267873021","-0.039222233845017634","0.21036002817739483","0.06589311849470286","0.8712264005223362","0.05609239974220531"
"-0.030640326952203648","-0.044500986992175855","0.09822829388320285","0.27071717843188803","-0.08340010418448726","0.39024549463251434","0.14441337837067011","0.8451049245500206","-0.026033420605913328"
"-0.0024200922982584466","-0.00026118159185845166","0.006478227221279086","0.30631003112280963","0.0011708765315700802","0.12812265039079737","0.22390887213438024","0.8046166367929312","-0.15654564965505485"
"0.013293119218370193","0.08826787215741912","-0.00034453983700107814","0.10086889410047371","0.09006367306966621","0.38260081128163836","0.30474182951556583","0.756621722859959","-0.2302366170913996"
"-0.0017846315383947984","-0.03909238544631494","-0.0601868735721126","-0.06943958453946805","0.025380033562388164","0.35059021655209754","0.4459556964607048","0.6920436294839561","-0.2741514587382443"
"0.01308707588108107","-0.035960652459802435","-0.030633115065032697","0.008674837159551871","0.09014025857542833","0.14973890264675038","0.5097638565444399","0.6608561702927671","-0.2487864292496314"
"0.004077975381014016","0.0065513504032795045","-0.0038926430595841175","-0.047559174393225837","0.09053275929245921","0.19318011914855332","0.5549589812849721","0.6364365480580415","-0.17517227601341326"
"0.006464804507835254","0.008539663266557198","0.0056132996138182146","-0.09644663630267425","0.10091488191733701","0.22118392904879378","0.6073708367947995","0.604694996952288","-0.1260520465494788"
"0.005935253874615542","-0.006815280695771097","0.0038150845521749952","-0.09016758341519274","0.08504732244224715","0.19691266613066355","0.6571356288950403","0.5722410419563806","-0.06946776491579594"
"0.0060738998585857795","-0.006791390195376475","-0.010061551281851601","-0.025397641363950094","0.06241630548953982","0.17176772511529034","0.6862811902258639","0.5499718240567499","-0.05762203464946432"
"0.006590933840474856","-0.0013008338459879283","-0.0016842689176120305","-0.021630402181381094","0.03739199148176614","0.1419316180944431","0.7193276871076585","0.5240350453892888","-0.04354378954541071"
"0.006953916729063635","0.00016947064568983554","-0.0005834895127012296","-0.01892507580698321","0.04543825618089918","0.12506235016684353","0.7518726351328998","0.4954465411306988","-0.004845776128440489"
"0.0029408857485913337","0.017734805253224968","-0.007267265100154948","-0.03553732014514529","0.04635967554709972","0.14495551506434515","0.7835259407464904","0.47063113895699876","0.01563746579042461"
"0.0004905105457837406","0.020392883101478868","-0.01212432514606344","-0.06046675827278184","0.02394644862640343","0.1713236054158585","0.8081296985429701","0.43924578979632245","0.041136511543088235"
"-0.003113322218109702","0.01728815676758637","-0.0007024480375096014","-0.07547698727749265","-0.015204061919193839","0.1716366734007039","0.829334069645032","0.41032746892192035","0.0450736478857473"
"-0.005221896557657308","0.005974446754619787","-0.0020733624258394154","-0.06481838646220477","-0.043412896988438796","0.17097413417696133","0.8596499116411475","0.37639593548717476","0.05532262339625578"
"-0.0048656534044004005","0.007685006582874779","-0.005290199200865806","-0.060864373857346374","-0.06086721241103763","0.17565559264802155","0.8949255145520681","0.338137208052975","0.07013142057385385"
"-0.017632637761661178","0.012212464151137489","-0.028710365297730713","-0.07052941708602264","-0.12071399857002661","0.18510345051626284","0.9193342255709988","0.3044563352462466","0.06402877752549813"
"-0.013492514629216133","-0.06342745689175941","-0.04068882786524038","-0.032928268730690394","-0.18400234589420097","0.0501250382594317","0.9424890644485463","0.27625041826199853","0.034045089961188005"
"0.004105897141674694","-0.07838706500842711","0.03328850474996591","-0.1362081947591271","-0.11074112974156516","-0.1965167154758606","0.9244054417872608","0.29431117614386737","0.012081131759031445"
"0.014549598448100606","-0.02996621429556904","-0.00262932830914521","-0.11137888258983124","-0.061716832865586185","-0.4658376964854183","0.8755044282733068","0.3573457277578697","0.02271581261485648"
"-0.051148378747803536","0.015457936693876571","-0.013557610149830975","-0.10129889428380069","0.09844978595061867","-0.5170206716822352","0.8017767463599605","0.4404990929364083","0.050780779520685215"
"-0.02286074674053945","0.02865795752060989","-0.012770749074275597","-0.17725021018282164","0.27499852310875267","-0.4388507508150245","0.6990428222426109","0.5110666560555583","0.14898037983146548"
"-0.016814241328503426","0.007213117264210555","0.03268132061292318","-0.08394533275407762","0.2232865536399342","-0.4894512739470128","0.5817639812852136","0.5782700896934253","0.2440665535200932"
"-0.021406889547518054","0.01836219056793593","0.058949262922605175","0.11303804903726701","0.08119172088653528","-0.41562547472998235","0.4275655717204146","0.675038284772686","0.27328863646187157"
"0.012862738976462545","0.013043022590943592","-0.05906750689770049","0.2748473742134421","0.23969739154652409","-0.450208566079183","0.3025127234864399","0.7586006225548314","0.1979780334441341"
"0.001362824861596583","0.019581644805470155","0.0056418000937202215","0.19645067433186936","0.1201641701312356","-0.4723417445426714","0.1609366268115674","0.8248146063452622","0.13899453381500768"
"0.004545905576913622","0.01944453410755319","0.030435358881515114","0.1990308432583413","0.10302576991990553","-0.4279540434355219","0.013676309762423754","0.8892871584042052","0.061621387806636875"
"0.015945686481134414","0.020999494068020597","0.039802310084091","0.14875605917611448","0.0001644951199146829","-0.24693279545398658","-0.10076042100783784","0.92948520753938","-0.026491037117305834"
"0.028784882288379682","0.027008474275972458","0.027035334239292497","0.031279427554485234","-0.03449307886420653","-0.056495239091054854","-0.16955620583174275","0.9537597104631482","-0.09489816819175069"
"0.021541592445267103","0.009534027441677735","0.014648364793187407","-0.03761589653031434","-0.0069014751054631875","0.06428590408557809","-0.16596177235977672","0.9550657842617639","-0.08840818545339489"
"0.012524789390535055","-0.03984857171967517","0.019918268747241622","-0.08565902704106275","0.003999753650658497","0.11331866040973602","-0.1283734719436378","0.9391686233796223","-0.049275436350601796"
"0.0023583800520496365","-0.05378712062382488","-0.09805740255494447","-0.22997037824760025","-0.03155650337764014","0.11013216223840265","-0.08916906965638223","0.9234033891438054","0.047351924374608535"
"-0.003248116924747459","-0.06867401852190026","0.001608569137153041","-0.10743160923216884","0.11149325490073025","0.2151409888761966","-0.03547547817980698","0.8963452339825835","0.14948702668336433"
"-0.00479825605108153","-0.05498787794800679","0.031702391085854285","0.13005946195518678","-0.020850567661211863","0.22309874021191797","0.05290857587504327","0.8697884000773958","0.14312942586437563"
"-0.05265037690748126","-0.04543167779015768","0.07290004130942032","0.3733077757471329","-0.14837811922953847","0.36680179902316146","0.148314313921641","0.8458700990987047","-0.011404401343505172"
"-0.020492211181047645","-0.03386140457730102","0.01875408610080969","0.37213322123582854","-0.04585405998460646","0.12105071157033626","0.21490885654178338","0.8095638860301122","-0.17972065726771802"
"0.022574697589712107","0.13267096393434671","-0.042958539996566784","0.01834296118694632","0.09493881917083635","0.3237246150618764","0.27941361225962025","0.7644185876577564","-0.27000022324204087"
"0.004433255714937798","-0.039041488293300314","-0.01893139628787583","-0.1945797029725589","-0.02245623065545587","0.464678014750408","0.3993395166266053","0.713574058164168","-0.20654515655873631"
"0.0018894870368169048","-0.05315454172207161","-0.015397749830460477","-0.026086970077141874","0.08036124680842727","0.20929948004268603","0.5023799428229595","0.6649590889934691","-0.1909093809712647"
"0.007605745417590451","0.0059348716213573904","-0.0164159191486988","0.02892261653508095","0.06988578559840188","0.1558667837454684","0.5451230509314531","0.6379932824846746","-0.19141766216784706"
"0.007393925164302563","0.004976862555533017","-0.00038770360728745224","-0.03022679335469023","0.07747493056001725","0.19843674903363184","0.5953615280628828","0.6088902643054176","-0.13906306457517775"
"0.006252021435214241","0.01180694887487398","0.0011500831561207742","-0.0637516599060365","0.06310557504139894","0.22423694862193727","0.6434544906412785","0.5755919787730314","-0.10830796632023455"
"0.0027714295459610096","0.002223014962218933","-0.009361843847735689","-0.09535102725852307","0.07742945791597099","0.22413744639419572","0.7003245582093586","0.5365812694547799","-0.06540151534313686"
"0.005699363137999472","-0.01657195331345335","-0.006117332693674016","-0.08700109998266796","0.045775711065663555","0.18302603815170734","0.7266001455276827","0.5052750762818985","-0.04966114169591833"
"0.014564040738097524","-0.018937112852521008","-0.009819090677467867","-0.032170584795939094","0.03062135411298346","0.13243764943773623","0.7556899792077781","0.4785863157303859","-0.024184976768824328"
"0.00883334006732706","0.006859018499665907","-0.016058630523840323","0.01208123779225457","0.08408761032316556","0.12378580939142744","0.7914671309752522","0.4518315918557109","0.015155334108778933"
