"AccX","AccY","AccZ","GyroX","GyroY","GyroZ","MagX","MagY","MagZ"
"-0.016660190235203164","0.028260128753169","-0.02519737136198348","-0.160748682048594","0.34679743476074293","-0.564320633113528","0.5951664812853339","0.5978084260141322","0.1408086564137422"
"-0.027761497146154637","0.014558407418148601","0.034174497929528265","-0.052234286448057186","0.1812554707588591","-0.6140474781482733","0.4192621517619199","0.6867797562955956","0.22770676323781128"
"-0.005626280677570526","0.020528955081987373","0.016344969448223477","0.16997506034754842","0.15749721089321547","-0.4402340744689925","0.2357788617394769","0.7855532363989937","0.23615632525173708"
"0.01247183432721307","0.02278816544539192","0.0032851408461710336","0.24227755526473024","0.2038099022058043","-0.4256485040122419","0.0894380509273473","0.8609625074382647","0.16918088012007737"
"0.01804463262735074","0.03220102260087329","0.01680242280317234","0.21096893829127147","0.09279203171244185","-0.38346926698423434","-0.041103970903350474","0.9127173307914944","0.08572633754423692"
"0.010088856477724364","0.013286497951487052","0.031221187330987082","0.21184504042675265","0.0091910542928029","-0.24542812761984592","-0.15030230250516588","0.9501844983477454","-0.015975663423379548"
"0.013204539839722532","0.017425267465503335","0.05109923943655271","0.18501320909064267","-0.05528365038156785","-0.05651950792708938","-0.19650052495880452","0.9623481351388943","-0.1270146755680866"
"0.021272003031991615","0.021166727570782952","0.017631415022930683","0.07235417646456038","-0.05749027026633902","0.05776729472670419","-0.20056864346195954","0.9597227948770304","-0.21760476703228301"
"0.01706833382356021","0.005037419780446343","0.02572183386120006","-0.024570639458039858","0.000815950578303742","0.1422398323120816","-0.16147569647616056","0.9470974148237444","-0.22140788711089135"
"0.0020907162774404064","-0.06386995050776416","-0.010666257116294158","-0.14986961157503667","-0.048075039651708035","0.1721099157033772","-0.101930701673129","0.931780731185432","-0.1806424276692372"
"-0.0018231443117198644","-0.0551810793859807","-0.0877290764687176","-0.21381543996916733","0.03370631401696398","0.1899863403264096","-0.04238570687009804","0.9182582499371372","-0.0803672096103552"
"-0.007542291150492784","-0.06947694707864127","0.07378809974114947","-0.041533324650394395","0.04034532004771801","0.2740220388631655","0.03886520789154864","0.8875061486788202","-0.007635602503251206"
"-0.01770966330831131","-0.013908681878157142","0.04672503534724487","0.21895975996653927","0.00048400027676604037","0.2368518895926843","0.13541336277807356","0.8582712038532383","-0.03273259946376285"
"-0.027674843406173225","-0.11285066990378319","0.04521740126547209","0.3258057105112641","-0.0739106813611492","0.2596063502586566","0.22574788460840925","0.8098277393227619","-0.18744293589746647"
"0.01353671250965126","0.07143234040106929","-0.04500313964171068","0.2913103923636925","0.06147095315278861","0.1301248293636458","0.26888108627199936","0.7648143675967308","-0.33932912471800497"
"0.01869934977387693","0.04739849700407878","-0.02442909755592941","-0.04089405891637298","0.03548692702593333","0.36903453193833785","0.35801746361167996","0.7152231412432283","-0.36536423552687125"
"-0.0031999759580911306","-0.03731825611266208","-0.005933938301261111","-0.13167364414581248","0.0605973997276894","0.3828434996419836","0.46989072244844676","0.6671886493163588","-0.3058577455990105"
"0.004870375692177335","-0.03343864659205704","-0.02983592772864326","0.05739112219022165","0.06843784088008674","0.16518601678272668","0.5328351039458953","0.6267927102116966","-0.30154307563445265"
"0.006816233564426522","0.010841045556745295","-0.02474714638961846","0.004117758205610616","0.0835371520005003","0.18443363064170987","0.5769992671479562","0.5969640954776533","-0.29675444571166687"
"0.00514670484078472","-0.0033950958849287304","0.0022624279731657234","-0.033060165425812284","0.0761346842091801","0.1749906265406755","0.6328383731775654","0.57080304151144","-0.2564351623686203"
"0.003138263711882303","0.003912208373381864","-0.0003932797881378445","-0.0742562207854156","0.07860696006706362","0.1774733284670076","0.6770025363796266","0.5452884281122186","-0.22134414766823315"
"0.006367559755189439","-0.003145284348193653","-0.010957457671814653","-0.11943709673705907","0.07973420297999986","0.18036374683871972","0.7202471933446731","0.517834493012022","-0.17040162388214644"
"0.007652923564913672","-0.013172231235557682","-0.0035603439859440656","-0.07732257825959968","0.04989936189154285","0.12853279371978088","0.7403927390829006","0.4946681739173823","-0.1297571059470745"
"0.007392962344969438","0.006386817565779145","-0.008092333340796346","-0.007372273163744883","0.05280482451639339","0.11273620834490737","0.7649129054032876","0.4749847182857181","-0.10826710770314592"
"0.005117820260790916","0.026955499688140903","-0.007447561614317635","0.0018746479138990056","0.06805491335127611","0.140885631261355","0.7943092411623883","0.45197671116666827","-0.08536503565263474"
"-0.004393871931168295","0.027364754347074874","0.007788629721121308","-0.020073636079103018","0.01588558481523448","0.19894882147396034","0.8288882484392073","0.4220557477801975","-0.07137831385085965"
"-0.00528929391097616","0.009782592517522658","-0.0057573592409986855","-0.042087868419666","-0.022571348243804565","0.2155317171363525","0.8615446517659043","0.38148830403531314","-0.06385379092782006"
"-0.008360687583650517","-0.013003959015386861","-0.00969228419442561","-0.0433875803788963","-0.04280260623939688","0.21128709771391377","0.8905508939699079","0.3416596495098478","-0.06869635422516286"
"-0.008562879643607142","-0.008042005955164555","-0.0068967588614288694","-0.024422376019727656","-0.058574433832284084","0.18625622022790286","0.914318737005465","0.3048125371913236","-0.07494935698440469"
"-0.015562576195438655","-0.0022956135080718513","-0.034265893626455025","-0.05730123758985649","-0.13444195047788718","0.14738239866779781","0.9414859667354395","0.2731237567441001","-0.07854818397757"
"-0.01118174822971192","-0.11769109302721543","0.016174379619244804","-0.1297192624589699","-0.2159145688264556","-0.08181976949308356","0.94449525987476","0.26869102142758594","-0.1137928270782104"
"0.012019309240643506","-0.08295534417084238","0.005786987321047105","-0.16686214200497354","-0.10283128297457089","-0.3526478452203853","0.9066283212049802","0.32002367951257615","-0.1147783369223878"
"-0.015061910142212729","-0.005574428879622559","-0.024086265696238618","-0.05851430208513811","-0.015834935022909325","-0.6405005094259075","0.8149006081064405","0.4260795104931047","-0.11252947863783036"
"-0.07347615908301298","0.042240226353657165","-0.04753926930255583","-0.14414125145842907","0.2531237880254463","-0.49352843840081334","0.7089902078975862","0.529206569925222","-0.05133961368591869"
"-0.017526727635017243","0.01920355166879004","0.010199646405700988","-0.131432956745955","0.2599207516618347","-0.5982241970537618","0.5865844230731988","0.6216475710050283","0.0541377235006859"
"-0.0244205140602048","0.03386816404145458","0.028692079527509094","-0.012777919614623613","0.19991600789721134","-0.5777898371126903","0.42441695945427405","0.712782498286219","0.12541312949475167"
"-0.013030361349315291","0.025310171313137314","0.05389146036608255","0.184185244435133","0.13746770783936527","-0.46275555430903337","0.2707479625713926","0.7924530000017821","0.11670207233145863"
"0.013936282532898872","0.038928795255480764","-0.0033620797779301114","0.2885280460213403","0.1789507256948302","-0.4028843358118558","0.11401394489846313","0.8592342683714096","0.03827804269156864"
"0.02274511661167555","0.0382089640914167","0.027801955843613117","0.18914340487219675","0.059288266238568116","-0.30964346776720386","-0.00554972973878901","0.9032713829146368","-0.05605142940857791"
"0.008130481954144541","0.010219788674744256","0.01601700740413373","0.1706874950511265","0.04562732664824942","-0.2396375833420078","-0.0905622609245862","0.9378361642517415","-0.15600304722011807"
"0.010321858756341024","0.021882403865213177","0.03914142939071115","0.10528791476185671","-0.06483529892833764","-0.048382167204712535","-0.13837658524934102","0.9469127175188896","-0.2280629386622852"
"0.01764602542343625","0.006827233746966974","0.020970927776665704","0.009212340260913558","-0.038233802161275234","0.07261254172902423","-0.12737037423053096","0.9403031925380159","-0.2566639706243166"
"0.010026273221071117","-0.022998497919606876","0.01837552537863305","-0.04370913874510586","0.0065175021525882915","0.13306378540742703","-0.09070158005140658","0.9186144518822142","-0.22637956363823422"
"0.007828156683542743","-0.060798463130942434","-0.09697314516736816","-0.22183514413241798","-0.07121104228303438","0.14136615421483864","-0.03388724013405443","0.9088123020602797","-0.1626662704949296"
"0.0007004051604053629","-0.07556902467927008","-0.015560904751638627","-0.1807546187247463","0.1548023584092108","0.2274816919997535","0.01841316007431684","0.9017014558233714","-0.052877532033134195"
"0.006507168558492835","-0.06771320491907304","0.04484772112761274","0.06114777112719693","-0.019108726064534575","0.17513138578967574","0.09317180352613387","0.8768728609850389","-0.027035273896926195"
"-0.020771428787654405","0.009072525297098132","0.04550447131665896","0.3698129947012026","-0.01655436011766227","0.27904568792231255","0.14817499479482063","0.8495376598665348","-0.14474568103986252"
"-0.018922815668051034","-0.09985735384133376","0.04437064787707917","0.36758904312651963","-0.035081829939752854","0.25465550770761314","0.25731759874590765","0.775830242564854","-0.2969015367331858"
"0.002016579188789648","0.08789185645555592","-0.06276017777196037","0.282616763480841","0.12598706186621203","0.1807763170513067","0.31608240643874497","0.7091545155122861","-0.4392693021167603"
"0.014040267020876558","0.02386739283278379","-0.04153764650580012","-0.08164051021304256","0.036606990047704374","0.3557594786274517","0.4034076351297602","0.6599062984392282","-0.4949187385914557"
"0.002996729269912675","-0.0373369530260144","-0.013113580933966395","-0.10135665925976647","0.10625193435013496","0.28411787465352867","0.49580408003703774","0.6260803063215425","-0.4283682230775175"
"0.0038979281657193212","-0.011176855093902448","-0.024972258875800967","0.04066238515052855","0.09061413139233147","0.1770631851380241","0.5497763097672537","0.5947081498254987","-0.40754667180915866"
"0.0036485579584394916","0.01302048242317997","-0.01976162765893426","-0.03248059016695551","0.08550683547681989","0.17021937337628756","0.6027454417843632","0.563942855902549","-0.32720228716610367"
"0.004514132538920445","0.010753066192248575","-0.012184217458900986","-0.08173293417458782","0.0723508815651202","0.1792109771270797","0.6487207536350891","0.5408952707896018","-0.28526500258634796"
"0.0019058549654800729","0.002072297066251117","-0.009393855256321276","-0.14563351333754532","0.06833014251260876","0.19981036515318606","0.6920490020762278","0.5192593007923302","-0.28546112394837325"
"0.006271277821876766","-0.017801794725072193","-0.014123489243537467","-0.16155739171211508","0.05440594024623277","0.15588377193069256","0.7339004677730706","0.4970296608865967","-0.21841867068468823"
"0.0076673658549105735","-0.0021434414077321894","-0.010903761115477542","-0.10912604852716537","0.033471770905567466","0.1259724315181383","0.7622658419937003","0.4810137660227627","-0.16716398706404445"
"0.01055871231229022","0.0042168641892837274","-0.018477040811177188","-0.0313224023988414","0.05595201014380563","0.11023651823335112","0.7830243918899374","0.4638501093359027","-0.09957239398668839"
"-0.0028052200315091405","0.02033886979623885","0.028168538103222247","-0.013510572059789727","0.01576065470896001","0.13765544918515948","0.8003556912663926","0.4401956616498612","-0.0881189064444075"
"-0.0017942597317260436","0.026101673978385254","0.012657461704380629","-0.040783342712438546","-0.00868974666500876","0.18198005131861922","0.8361607068592306","0.4109607168242795","-0.10514877804694274"
"0.00170655136352282","0.01730581496353022","-0.024590187224940746","-0.0422332436091799","0.018520844202568026","0.19179436861098187","0.860318643449885","0.37801863323697016","-0.09544894235010523"
"-0.0009854914918995727","0.0013348077062431964","-0.02292146347415664","-0.038410164949843964","0.006940637071924019","0.1891053815783563","0.8954827910593496","0.3417388054976427","-0.07818862814719019"
"-0.0029881557048032424","0.005265314379862876","-0.0023046706685223603","-0.021423411017503672","-0.022139358125365084","0.18575142843838469","0.918581902286169","0.3063956569472216","-0.060125850704654725"
"-0.01097955616975531","0.012332228268333143","0.016570081934405987","-0.06890237026298619","-0.040394949402000134","0.18293624345837958","0.9397862733882312","0.27015540720179154","-0.05789987324566691"
"-0.02245636262062623","-0.02786177282602531","-0.03465209578164887","-0.11273635952502732","-0.1120837693894574","0.11966496103276478","0.9575633939705117","0.23879644337038017","-0.06813087096465642"
"0.004429404437605283","-0.15156366771715668","0.04493859222295248","-0.20815447232451983","-0.15674508573405038","-0.18994956844491767","0.9546376923072837","0.2498255110031357","-0.07508991062718953"
"0.005343119984742582","-0.06657373192199038","0.017972388155671343","-0.1612493118402975","-0.12203988513853337","-0.5336205555298515","0.9025880665271893","0.3305646185539299","-0.07198302138377115"
"-0.05994854745258206","0.011694351907796711","-0.009732556611678446","-0.04517829463383581","0.07548849400431219","-0.6851308988934023","0.7927488669419998","0.4525835737397625","-0.05084277290212111"
"-0.054431592673765745","0.04367884996437685","-0.03758681911068874","-0.08263310505005474","0.2010073513543216","-0.5682279157150868","0.6723771413691899","0.5563043030803416","0.011737919375487077"
"-0.02403538632695409","0.010556436986826744","0.004981745501207102","-0.09495341167395853","0.2012131749010573","-0.6896449023958243","0.518178731804391","0.6618192348109382","0.08137407765195752"
"-0.026596485753071275","0.028245586709450533","0.012078860657326574","0.03987196772939665","0.17573892104693117","-0.6111594866601647","0.33132391891289464","0.7635742571212774","0.11573780896816732"
"-0.0016787214117508456","0.013635610872471083","-0.0012869144007174008","0.18170135046860397","0.12720046347313066","-0.45833862615074944","0.1678189916764945","0.8398146660323951","0.0898579609042378"
"0.008318231724104248","0.0419753534144994","0.00138655452922075","0.19679726418766405","0.14742621688549634","-0.41562547472998235","0.0030323284733467515","0.8963584266472159","0.04315819591663297"
"0.027378203242681497","0.039750420725574095","0.06484142735451984","0.14869829420014868","0.014154273725599483","-0.3354412404719058","-0.13018462059230287","0.9412266790622897","-0.034362041113256865"
"0.037010247851281555","0.023355305150412092","0.05199349362478231","0.09758591796641791","-0.06319110385150706","-0.16650101906835788","-0.2141940540649931","0.975699111746967","-0.11701085176010981"
"0.0371055669652611","0.003883425513993386","0.006852657439122103","0.01988336054603408","-0.08088474897961252","-0.009839615256478817","-0.23918790541656956","0.9786410759600106","-0.15229798782252232"
"0.022079808452484962","-0.018183004013977697","0.025007669661916466","-0.02002646134873096","-0.05130359737899253","0.04567898749790639","-0.2293519750630505","0.9774933141369846","-0.14772345705328088"
"0.004550719673579262","-0.060637461932630844","-0.0026931446010996997","-0.0959748889989536","-0.03340412870415135","0.15274823831503168","-0.18396180354497013","0.9558177661458155","-0.11331886711998244"
"-0.005838100930858414","-0.04643507880673183","-0.06407367815005281","-0.0931049324430532","-0.08352694892840579","0.2341434874912311","-0.1072526923176678","0.9355802185995871","-0.07317609300275875"
"-0.022292683333994673","-0.07996176059965529","0.033866775356673276","-0.0016105056360370545","-0.05104272799999029","0.3012031352218355","-0.028425930362695872","0.9176645800286755","-0.05636522358781849"
"-0.07907013940847943","-0.07483984505852986","0.10803204591905946","0.2420079853768899","-0.1401403907660001","0.3594483417046998","0.09236375259057532","0.8737461994671406","-0.14087391848454522"
"0.012304303763249012","0.00945466943167125","-0.002036600937270161","0.3680126529502688","-0.06168093340976019","0.05074874734551904","0.13410376298596205","0.8336141136551282","-0.3003990343559714"
"0.03334960874673363","0.15747553564841596","-0.06217777666091938","-0.02723841859805997","0.17686377066281236","0.4543637594357341","0.2408500779557386","0.7738249575407165","-0.36294540539522513"
"-0.012163823949501213","-0.0602874141659792","0.022924449801253185","-0.16930752598752535","-0.016108728206008917","0.5723345713995688","0.402571720368838","0.7088906622196365","-0.28113011053698"
"0.0035128004324686104","-0.0747245474261906","-0.018231275803326563","0.03145175973278317","0.06962012962528952","0.107678582915312","0.4790021933424997","0.6737717889679676","-0.258363689095203"
"0.006520648029156596","0.010484453870420338","-0.04172764970514683","0.007798927573990594","0.08784987329372985","0.18312311349584542","0.5110734563365517","0.6534682780985768","-0.26607779600153375"
"0.006241430422549837","0.0023258479856566572","0.010507678766381","-0.07916239274411012","0.061415907320522094","0.2115977388151557","0.5704791320127626","0.6213309470538488","-0.22722942287367742"
"0.004508355622921681","0.0009373944257656881","0.010900200593205291","-0.03183939893373523","0.03418018683386711","0.17865522078188903","0.6231417619508668","0.5897213225944201","-0.17020223383075397"
"0.007684696602906849","0.008870079274188914","-0.009302364585331504","-0.03811267532362014","0.041051342678962585","0.17167064977115226","0.6651325467745299","0.5598003592079495","-0.15379177886328213"
"0.004938735864829347","0.004066572167453381","-0.005108663535403031","-0.07992585317645798","0.01217214510459354","0.15113678760233912","0.6993214604962518","0.5384018571740624","-0.14416548867720413"
"0.009546789193173998","-0.005294598409782934","0.011049332452170787","-0.03017480487632102","0.012669472232636324","0.12313055081849521","0.7238973544673669","0.5155521620306025","-0.12281277538669332"
"0.0036427810424407275","0.0035998660486573826","-0.0006850999193083814","0.04947154398531169","0.050667610246219144","0.10714709540615586","0.7484175207877543","0.4964755689720325","-0.11903253613365454"
"0.0048068296161909805","0.014560484852965523","-0.016471680957202726","0.020236689649024836","0.05169672797989767","0.15033348912959626","0.7761141631996461","0.470855414255751","-0.10484969296985407"
"0.004865561595511713","0.0018855356762096744","0.0001211745266150299","-0.002808936337407333","0.03715744837036964","0.16378085117632757","0.805148269229014","0.4404067442839809","-0.09261662301352236"
"-0.0026126561648837933","0.013701673299649258","0.007934229998881555","0.016567650925597675","0.006952603557199352","0.18636057622285132","0.835798477129498","0.41026150559875796","-0.09951846061213142"
"-0.008312546616994189","0.012744183592529114","-0.004771201331345948","-0.006924016950250345","0.005320853625055121","0.1775606962767319","0.8621855197492786","0.3770423760541665","-0.09809984942681466"
"-0.013810245009147957","0.003996811906301082","7.284762591162749e-05","-0.05756021723210312","-0.04155330517665225","0.1611646706518056","0.8879874220364128","0.34564383422885764","-0.09506650569415578"
"-0.019587161007908485","0.00015710990852913916","-0.005709651915945327","-0.07138433873031635","-0.10665337837151184","0.1808515504430137","0.9091360654877471","0.3115276034892573","-0.08705985108947055"
"-0.02079068517431693","-0.025078010171347524","-0.03442285279113274","-0.06077868914299712","-0.1764419204972464","0.13820149799593634","0.9353280613299791","0.2807755022309401","-0.1071459472502343"
"-0.0030266684781283084","-0.12359100790727881","0.040500365316473455","-0.07577736515251476","-0.1561850542231649","-0.18302566952426716","0.9230679781697853","0.28694966927894205","-0.14539941891328037"
"0.025348580088450298","-0.03666074799310572","-0.021091650054361196","-0.11791595236995991","-0.06347829949811501","-0.4086360499520386","0.8759502494791321","0.3553800207276298","-0.14255565916391266"
"-0.028810970219262818","0.009705935172778174","-0.027124251633619086","-0.1748722186722299","0.11691646602751059","-0.5601463933155894","0.7913278118484318","0.45239887643490767","-0.10104330420187857"
"-0.0364364993376267","0.01826558984894898","-0.020104459518625054","-0.14117598269218512","0.31187923072732504","-0.4492135438017674","0.6912409511406695","0.5436261523685257","-0.00013396040578125796"
"-0.024526424186848753","0.009892384947597078","0.031181947539817654","-0.04936529264175623","0.3017316512138437","-0.5526958606529897","0.5637639501000201","0.6286001052663469","0.09708993612892286"
"-0.045775846868956215","0.016442640797098413","0.07286493202258451","0.1783317268705995","0.10956665077140185","-0.535853288445028","0.4202095218242985","0.7129012322679114","0.12886159677703085"
"0.000489547726450616","0.021021307133598295","-0.016593530835044633","0.268782051737034","0.2555410180510633","-0.5583504994490344","0.2595745686003981","0.8001839014764169","0.04637295190916529"
"0.002976510063917009","0.03179696152898163","0.02535463202594088","0.17155396969061337","0.11814183411970455","-0.5174575107308568","0.0819705457297751","0.873785777461038","-0.020089308991861433"
"0.01581185459382978","0.024080329901518472","0.053079816264525424","0.18659211843370763","0.04387543320394086","-0.36189427174954","-0.08164583680808181","0.9303691160697564","-0.1281930380849223"
"0.02650974020420116","0.04086184835262829","0.05263165654432722","0.11353867882897055","-0.06600562118826508","-0.1467607478378738","-0.17220326924133003","0.9521106273840879","-0.20588978434063496"
"0.028384349445798953","0.05131861650361383","0.012652298573963598","0.07703121401859062","-0.061728799350861514","0.06067227440003705","-0.18655313930382936","0.9504615443050276","-0.24525624473317487"
"0.013864071082914362","-0.01808432586017382","0.03658671246036469","-0.08876100625042574","0.009842270421486455","0.2358301715956307","-0.13018462059230287","0.9333902362705949","-0.2459426695002637"
"-0.015552948002107393","-0.08544514979892547","-0.04381148914146015","-0.25808266655095186","-0.05536502248144011","0.21443233886398846","-0.04444762994703959","0.9184033692480945","-0.1328787042926448"
"-0.005664793450895609","-0.06944682427379588","-0.08146516664677676","-0.09773672076591024","0.008939758102020936","0.18366916230662228","0.03886520789154864","0.8901314889406841","-0.054542929265666194"
"-0.007378611863861223","-0.0555757920011962","0.06507686610153642","0.2024967418162888","-0.031209475304655513","0.25094237579433054","0.11900156963863269","0.8598675162737688","-0.08574256927453357"
"-0.03678311429755234","-0.09285951466052621","0.08664016397522063","0.36290045257729625","-0.14815314930636223","0.34588206236139935","0.19972307171836184","0.8135876487430195","-0.22193414609899276"
"0.007012648708384367","0.04911757431508315","-0.0422728762771852","0.35447639358228505","0.06716700014384651","0.08333208660547471","0.24500178793498598","0.7591151364754983","-0.3789946701876336"
"0.015412284570582186","0.06798483732238438","-0.030916054611885943","-0.013188050943980728","0.0781689867059865","0.39772029613114857","0.336116496875516","0.7032705870861989","-0.41650288067498337"
"-0.004653833151112512","-0.03650701781665337","-0.02233286660661522","-0.10766266913603201","0.07943264755106151","0.3687918435779926","0.47582571725099493","0.6358824561434773","-0.43810891739144364"
"0.010772458204244356","-0.04169956614155421","-0.02519530610981667","0.05360944176366119","0.07702977730777491","0.1270135645840195","0.5348691631974729","0.6036791617755869","-0.4140513636496664"
"0.011584114902070201","0.01772961166618266","-0.029164720774429356","-0.014046823586672155","0.1274397931786373","0.1803904425583577","0.5701447661083937","0.5869112850277015","-0.34683076681547487"
"0.003636041307108839","0.0015966683649164311","-0.00856259125917944","-0.10184766155547571","0.08167995348576881","0.20422001266065956","0.6307764501006236","0.5600642125005992","-0.2995491751205282"
"0.006438808385840824","-0.006344326222774491","-0.0007914604058991998","-0.11579790325121425","0.08750763181485535","0.18171552100584287","0.671736273385816","0.5387316737898745","-0.24273935392051613"
"0.008092932000152599","-0.00547502362363276","-0.014608823502738288","-0.08232309967903832","0.07475853840251696","0.16164276672168576","0.7014948388746497","0.512834473116311","-0.2382939363812747"
"0.0075190916776090395","-0.004080026144068481","-0.012153238676398809","-0.07463458137799152","0.04965763888898115","0.11489613475198027","0.7319778638229492","0.4942592013137754","-0.20256716159898866"
"0.007830082322208992","0.005663143147303768","0.00518455326398804","-0.043117047741456506","0.06254075693640328","0.10204578607169833","0.7646342671496469","0.47965492156561707","-0.1360673107702404"
