"AccX","AccY","AccZ","GyroX","GyroY","GyroZ","MagX","MagY","MagZ"
"0.007593228766259815","0.0028532982984995053","-0.0221407981551017","-0.015268552828348636","0.09126271489425444","-0.09440073409338225","0.7017177494775623","-0.6821966672878704","0.015933282178146182"
"0.004079901019680281","-0.006808009673911865","0.010413647835226048","-0.006972154430221838","0.09002059372267501","-0.10642351546488682","0.7219468866918818","-0.6633971201865826","0.030313881048655556"
"0.0040721984650152684","-0.011420953684890985","-0.018078447142982474","0.06181880759799953","0.07334649314002782","-0.11941705027777244","0.7560800727628754","-0.6355869831413089","0.09226698496778261"
"-0.0015920676717694343","-0.0007728537872667649","-0.01989586904977704","0.08047400658615175","0.06997433758943933","-0.14208171625041704","0.7766993035322918","-0.6069325155595565","0.12830591958462567"
"-0.009246481370127136","0.009762025912835114","-0.008785018917545096","0.06370675956248148","0.02672267321028039","-0.1616011410729869","0.790157531183141","-0.5840564350868316","0.13677182504538699"
"-0.020145596221122018","0.005644861720914838","0.001288042000863817","0.04569082630835066","0.010892688498955071","-0.1784242982121209","0.8227303430337463","-0.5484098552498632","0.15674351707830256"
"-0.017632637761661178","0.01906851840569","-0.0073073309921911","0.07012252289308199","-0.021638919711150714","-0.14861246002730819","0.8481978794165118","-0.5147289824431349","0.16836370777830503"
"-0.019356084367958073","0.0678591525159605","0.006454063770927385","0.09366848984633787","-0.14714078465206915","-0.00791825150762533","0.8680369230757347","-0.48399007384945025","0.18269691065299162"
"-0.011740183442925418","0.07971818916836955","0.12324469337979675","0.13406450028881498","-0.22179489969075364","0.12230541039332128","0.8697366164229426","-0.4885679284769217","0.16210416764032903"
"0.00928779079256289","0.0337642923006084","0.02092900315767942","0.21495472163291104","-0.20206695206584174","0.2626399547629724","0.8546065592502493","-0.5146894044492375","0.13806295734538723"
"-0.031795710151955744","-0.03602816909135246","-0.05488950176423979","0.20348837390370153","0.0849515905600445","0.34013034822121646","0.8057334095616596","-0.555890096096481","0.1794282212859023"
"-0.025749204739919707","-0.003018560824361306","-0.038125849926226675","0.1810081707570145","0.1887153776795009","0.5029257003408223","0.7094638929287758","-0.6139773984733023","0.27356647505807413"
"-0.018037021881574414","-0.018755337306040183","-0.01932585945173693","0.08046437909015745","0.044880617967068735","0.5583557218436813","0.5876711122623974","-0.7006400124440813","0.34134274908467077"
"-0.02358286124038451","-0.035798612544082384","-0.03594700889024","-0.0933947200724816","0.05088061368412005","0.4210183787242943","0.4651817359619176","-0.7855743873480051","0.33877682793150565"
"0.016779488023622172","-0.00886674757748327","-0.021874380625582952","-0.23524624605247582","0.08078007379306387","0.4279349969941344","0.35447875779044224","-0.8599414378813101","0.29170770104541976"
"0.02031881189219613","-0.03570097310768697","0.006838407199171101","-0.23782641497894783","-0.028794399246388068","0.4321820433001766","0.2253577910533121","-0.9480156669677646","0.19900767059476723"
"0.0236646090748116","-0.03352486013695937","0.05282992075234118","-0.22474264792269616","-0.15364815934479456","0.2947233560006169","0.11699537421241904","-1.0072111531737145","0.07856300479626072"
"0.0339889207839298","-0.029878962033258242","0.04366226638386265","-0.1361022923031898","-0.1802975220529583","0.09753178256927635","0.05109742722637851","-1.0446519354007004","-0.06741175930389677"
"0.03521073851766765","-0.019473091035287327","0.022935395637737287","0.007992343968516051","-0.03405989209723953","-0.10438007947077967","0.05984666839069827","-1.043411824925247","-0.11175643360251374"
"0.00231697882072518","0.012775760601746353","0.06327390095990952","0.1370201415590646","0.020524033837658558","-0.10162556658086087","0.09189006755938631","-1.0250212504275662","-0.05801100868414795"
"-0.0025452588115649237","0.06785811379855203","-0.07027356515482247","0.31961523058693014","0.1864537119624632","0.01455469066034648","0.09264239084421605","-1.0183193767942649","0.06630051663562522"
"-0.009910826709984588","0.11739143085587275","-0.012454765492753362","0.2320820370067681","0.24994070294220808","-0.19459947742913303","0.10047212577152177","-0.9747967761717046","0.28106811715554414"
"-0.005260409330982373","0.05825932622695599","-0.029009826861918452","-0.1702510205949666","-0.06489034476060415","-0.23402905533442867","0.19467971932746408","-0.9482135569372518","0.284287776182127"
"-0.052996991867406876","0.015864075200585158","0.11200146058367216","-0.5650168663451827","-0.24762575480608467","-0.3566764720021168","0.2959925883512457","-0.9316435701588536","0.10329554289234191"
"-0.0018327725050511264","-0.010282519405216788","-0.09052129739824744","-0.2568696020556703","-0.0030671738935414005","-0.009547903847343804","0.32477591995233684","-0.9233321914403895","-0.10574694820112009"
"0.038981139026192026","-0.10683649610878901","0.0626336727881978","-0.08471649518322094","0.10144380056650669","-0.4199210587080936","0.392707926189955","-0.8885695201337975","-0.13431856195884764"
"-0.019741212101208782","0.06148869864986391","-0.03878053486310609","0.17243007182609452","0.24668581894731784","-0.4437530556939989","0.5211322972929829","-0.8175138284232455","-0.06571694386706096"
"-0.0046249485711187255","0.08771735193093433","-0.03787595441404243","-0.007675828112445115","-0.056092584786180275","-0.15628141221421865","0.5924636902250188","-0.7753368795931983","-0.045560570884904804"
"0.016859402028271693","-0.0040208192517861546","0.0069307239710275975","-0.04037128588388257","0.09964164788404171","-0.1431956558244018","0.6175132692273235","-0.7551652953701324","-0.05722652323604652"
"0.00824409463545349","-0.008091864390770724","-0.000247472985160915","0.03092609845149447","0.08409957680844089","-0.2024116157486472","0.6600613305582682","-0.7246770474044647","-0.011417476100973526"
"0.011520568826083846","-0.003389694554404729","-0.007861851198980127","0.020452345559297123","0.13066356431181164","-0.1746602017431658","0.700547468812271","-0.690903825945309","0.027376963652325823"
"0.0022630609380700877","0.007788774451980118","-0.009833960493068917","-0.01072052372064202","0.08750284522074522","-0.13936117973094658","0.7257642307667602","-0.6669855249666178","0.05312116110752116"
"0.00829319842144296","-0.008046160824798402","-0.021932207686253685","-0.0021081509039823443","0.09496753873549715","-0.14838918673579055","0.7483060654862982","-0.6410883242930544","0.03912299889296122"
"-0.001534298511781827","-0.007968257019163762","-0.004851746165851617","0.04368253064394","0.10209477736548471","-0.18064732359288357","0.7748045634075349","-0.61008556240672","0.07080967361752488"
"-0.012308246849470215","0.020633865540242022","-0.0002658537294455431","0.09097760471593143","0.07513428604016237","-0.15819622337734282","0.8066250519733097","-0.5763387262768291","0.13391172184918385"
"-0.008312546616994189","0.02579421362548054","-0.0021183849230759187","0.07441734885613856","0.06037242980451316","-0.1955435351508761","0.8274393295202751","-0.539821430574117","0.16543823079476008"
"-0.018999841214701163","0.00905351676852328","0.012173304638914889","0.07256694412603439","-0.011117507197668056","-0.19333021730452726","0.8600957328469728","-0.49625925195765913","0.19029661343147425"
"-0.023621374013709593","0.038515385726912946","-0.009156557782354576","0.12103849820852909","-0.11186358606039126","-0.11102731366063653","0.8895199324314369","-0.4523936420546541","0.18890742045046127"
"-0.022292683333994673","0.09425503929979329","0.07659684268801381","0.06497277528573173","-0.18736253495951413","0.08168665952233381","0.8974053950094708","-0.44488701587877144","0.16741578786184913"
"0.0028744512146055717","0.02190006206115703","0.020833175457139346","0.15913449985796826","-0.18493573174567687","0.3085323237042626","0.8884053794168739","-0.47131192313763426","0.15233078643273198"
"-0.03021668644562787","-0.028375937943213927","-0.024166810530744286","0.16714457652522463","0.012850166160293832","0.4120631782275539","0.8334021881481872","-0.5311274645813109","0.17027589105805227"
"-0.025672179193269574","-0.027152328836045857","-0.004146049500451951","0.21587896124836373","0.10725711911326281","0.44271471813916125","0.7508138097690651","-0.5917345659029365","0.24310229015680185"
"-0.0068394330373102484","-0.012804525272962183","-0.012039649807224148","0.13805991112644883","0.21100175985627867","0.5702717203366341","0.6281572505164006","-0.6713259116307047","0.3226948762454263"
"-0.0283680733260245","-0.03409303855938801","-0.0051768168569078276","-0.09474449501088227","0.12829659352435105","0.4599213228876407","0.4870827026980819","-0.7609832604730572","0.35319174804036946"
"0.010638626316939724","-0.010438327016486065","0.009464809032227605","-0.2101762464833225","0.1120078137675695","0.4960576197430511","0.37668622660561124","-0.8381735412377136","0.33148765064289654"
"0.019498489820372136","-0.03578614793518084","0.04583904216768251","-0.18718578604893768","-0.057526169722165024","0.5155212262427417","0.21750019230064274","-0.9347042683535896","0.25805654401123546"
"0.0169027288982624","-0.04664593844064959","0.05736934501499398","-0.1225275229512289","-0.1466764850233863","0.38531892091750536","0.09119347192528417","-1.0082797590089456","0.17602878434412944"
"0.03558046114158832","-0.03552231371343153","0.02701344256632429","-0.08000191039481294","-0.18300194772518327","0.14630971611507174","0.0010539968724970503","-1.0616308947827058","0.05604173505701544"
"0.040808570120466604","-0.025834196444707757","-0.014606758250571476","0.02052647727845322","-0.0015438403179916724","-0.11790995556002835","0.0017227286812352433","-1.0671850065929809","0.030313881048655556"
"0.01363010598496456","0.019160964255043104","0.04949453850293977","0.06663255559514879","0.013802459058504732","-0.20660284373180995","0.056307962569460586","-1.0302191602927644","0.07826065102980495"
"-0.026326896339795763","0.13526775745550138","0.044424344433416287","-0.08759222823671789","0.09747571404920667","-0.07268497960968767","0.09311607587540566","-1.0144011553984176","0.08654350988600924"
"-0.00722456077056096","0.12088152134830463","-0.0382146557693996","-0.1691149760676394","0.020287097429206986","-0.1855884586095132","0.1259396621542874","-1.0065515199420905","0.03136313033549124"
"-0.02183053005409383","-0.08384448627248574","0.04044460350796954","-0.10959779583088601","-0.043858050240681144","-0.27003672735885614","0.231877926188506","-0.971775655970866","-0.027903110923888405"
"-0.03808292039727346","0.05125213858947227","-0.02529237296165683","-0.10403310314618147","0.057967166264171484","-0.08065243847982281","0.3034322297234543","-0.9405486187857794","-0.12510576097770645"
"0.05049645825038802","-0.1006976762247794","-0.024555077938104942","0.02175590851692514","0.091786846949314","-0.16042410252531236","0.30730530144906093","-0.9342952957499827","-0.10825239860099402"
"0.015111884938646637","-0.029746006204975126","0.012803681557790918","0.04963713691641363","0.06333293826163022","-0.47566657507940163","0.4281507120530603","-0.8746908369404258","-0.09256432398364893"
"-0.03683125526420867","0.05027574422551813","-0.002619621623961192","0.04857907510664022","0.09611632132192899","-0.29064096915216936","0.5387700987484435","-0.8093211836864738","-0.029512940437179884"
"0.012608554672517076","0.09058940556533139","-0.03837368018624412","-0.0688446052870204","-0.050391751201012254","-0.07056873710747694","0.5798971049858203","-0.7826588084642263","-0.012146393829834437"
"0.011841187664015044","-0.005921256622307974","0.01167551690914819","-0.02596758912681257","0.1645430774233308","-0.14059403660150055","0.6014637058176153","-0.7697299971243933","-0.012626891166796574"
"0.0021754443787555516","0.0011982163670304616","0.013412311371350419","0.08512023615300023","0.09329462409400578","-0.17872280489534556","0.6333120582087548","-0.7412470341828631","-0.0012371430671738997"
"0.008566639112050953","0.012642700901722391","-0.009262918268945394","0.0265215190341029","0.11447530303134291","-0.15970331809508692","0.670649584196617","-0.708318143260186","0.039315851565619495"
"0.0052179534714361046","0.01818664732590588","-0.023051574360665798","-0.033700393909433135","0.10442345540006427","-0.08395785394772536","0.6954483887706451","-0.6908906332806765","0.06118338343144691"
"0.007666403035577432","-0.008397247308858512","-0.004609079036251205","-0.04435321822712444","0.08356826486221616","-0.08658131512305771","0.7067332380430961","-0.6805607768734425","0.09743478285715079"
"0.0006946282444065987","-0.02137498261018099","0.005342338529532479","0.03223254965792078","0.0882232276343202","-0.1420477398799687","0.7234236694361776","-0.6603628073211114","0.11990538791120617"
"-0.007291958123879829","-0.009146162560359513","-0.011913669425048614","0.06977497028768782","0.06395280219889242","-0.17128197976715967","0.7476930613282885","-0.6293600454347772","0.12923749605424611"
"0.0013580107649309432","0.014037594509545824","-0.0207302309251691","0.0310656971434118","0.04206370733325564","-0.17562852830094342","0.7745537889792581","-0.5978823476216735","0.1498956128542505"
"-0.011672786089606566","0.006865666291080063","-0.006559709707805152","0.01644826997526837","0.027084061065595404","-0.20915835216624562","0.8083526091458827","-0.5599138588093883","0.16744847475552002"
"-0.012471926136101773","-0.005764098678407695","-0.0014548194018792191","0.02397504634361095","-0.01443509557540102","-0.2095078234051428","0.8447706288967306","-0.5132118260103994","0.19485643509856382"
"-0.01558183258210118","0.009288994005021584","-0.01897063607904526","0.07440772136014427","-0.04446834098972306","-0.19636867557605","0.8797397297286467","-0.4697288033817364","0.19953066089350152"
"-0.009073173890164331","0.0668921066086825","0.005659974312788167","0.07066166266876271","-0.10343678712950269","-0.11491275430976429","0.9046499896041308","-0.44009807861718014","0.17883985719982623"
"-0.009573839943390222","0.07214801669549951","0.09794948484068322","0.08481600727958039","-0.19220896149602348","0.08562063784353059","0.9169936642404165","-0.4340822235447681","0.15767509354792303"
"0.00616536769523283","0.028102243707082798","-0.03325598531688396","0.1504601259671053","-0.12262384961996954","0.2954756899176872","0.8899657536372623","-0.4669055731503851","0.14479645744159117"
"-0.04019149473682103","-0.01882077650277328","-0.03360294768090837","0.09932849474138594","0.09678883779440264","0.36172961229194533","0.8406746465682111","-0.5214440487410685","0.1739041362555214"
"-0.02512337217338732","-0.015227852986903703","-0.044887485520369204","0.15665060589143925","0.160041285662751","0.3613170420793584","0.7695940280644521","-0.5748611478379911","0.24048733866313043"
"-0.02038630105440371","-0.012654949966143676","-0.03678963177429931","-0.0099974987714702","0.11762248865875516","0.495912006726844","0.6747734303505004","-0.6475791152922359","0.28889662818972295"
"-0.008437713130300666","-0.018345043929697744","-0.04710556634752531","-0.20432272891878903","0.10163526433091198","0.4636101859648888","0.560113788977326","-0.7423024473534617","0.26693103564288284"
"0.0022611352994038386","-0.021802934182467277","-0.01038971985115803","-0.2716574359029128","0.013289336169898506","0.5169288187327441","0.43227455820694344","-0.8459044427123484","0.18658665099982788"
"0.00863114800737045","-0.03065488393737925","-0.009631359255504656","-0.26040289308557785","-0.040356656649119076","0.48008872563233246","0.27665509354857687","-0.942725408450139","0.07807923876993149"
"0.015974571061128217","-0.03641457196730027","0.04150614312171091","-0.2464815338778222","-0.16141440828848483","0.43596798172156276","0.13109446984664158","-1.0115251545085364","-0.05354271031933688"
"0.032493662359583945","-0.04972469683933054","0.03496548950941726","-0.1295459675310725","-0.22045465333991646","0.2534663347419213","0.029280051966306675","-1.0521189835826856","-0.18859514889936546"
"0.029524327536221036","-0.04074602356058622","0.05480223657164665","0.05259662918506099","-0.0962114233202574","-0.0012450496632114996","-0.009060571734662744","-1.0631348585508087","-0.21758188620671337"
"0.021926720178517805","-0.004375333503294188","0.037821733256118276","0.16400601283108332","-0.016062298243140632","-0.11869626584754701","0.016016871093006035","-1.0569474988381744","-0.1582600772280932"
"-0.0017461187650697153","0.05843902433861989","-0.0330411990915355","0.21520503652876283","0.15516853285863597","-0.021472396432908544","0.0417073180786848","-1.0424487604070758","-0.05253268530490628"
"-0.021175812907567624","0.11820163043447303","-0.05259707185907845","0.25438894522555777","0.343949411265214","-0.20657372112856853","0.06684048855708148","-1.0181214868247777","0.14801611646817417"
"-0.0003972088793591282","0.08299845874429211","-0.007322820383442191","-0.22401095822712946","-0.10788831965192608","-0.13827878964380666","0.11016873699822045","-1.0135964028558362","0.11663669854411687"
"-0.008919122796864033","-0.06492320995994448","0.03089074698429716","-0.3258987483347906","-0.20556595236034875","-0.31505541820290334","0.18682212057479441","-0.990799478370906","-0.023717554189330563"
"-0.059486394172681235","0.10818839461690068","0.042125718771754514","-0.2806976546415591","0.11971423028488314","-0.13990722854172344","0.2704135966670237","-0.9492689701078505","-0.18336524591202258"
"0.0279684114938882","-0.10425008976171896","-0.005695814726427686","-0.00999942427066906","0.0723867810209462","-0.16336548545269702","0.31471707899590523","-0.9205353465383032","-0.23850640119013553"
"0.028063730607867748","-0.030694355198900805","0.011808395233560873","0.07983281535293148","0.044610175399846234","-0.4047287673504798","0.4031568607014837","-0.874888726909913","-0.24121941336481964"
"-0.02257190094060141","0.03841982372533445","-0.036064728263748284","0.06778785511446461","0.25724025896016045","-0.3307330862812076","0.5084821205776926","-0.8262869504038466","-0.1439252400087231"
"0.00033934791048283316","0.0863462449517647","-0.04230592031185419","-0.05708269343078591","-0.07745515429970246","-0.10463004848193527","0.5570487681872777","-0.7943343166639734","-0.13333305211467023"
"0.012584484189188911","-0.012136629979321209","0.006144275945905583","-0.03263463010286429","0.12032212773686998","-0.122953019688003","0.579089054050262","-0.7790308256902936","-0.14301981305403935"
"0.006893259111076654","0.0026589646585503755","-0.005130968258804601","0.0477077867191562","0.0769172923461868","-0.1762837868738756","0.6471046517639726","-0.7398486117318198","-0.10781112553643696"
"0.00833556247210054","0.00034272870942127356","-0.01172573147786872","0.07042675176650183","0.10567754305691902","-0.18637234201342842","0.6894298024920045","-0.7078432073334168","-0.06426074275402269"
"0.0036244874751113275","0.020363799014041936","-0.024672797311613228","0.014945417850558376","0.068880600835274","-0.11117049979324024","0.7009375623673683","-0.6936347075242328","-0.03966875830072634"
"0.010751276178915565","0.007197328759601935","-0.00760803170767893","-0.020575228620405978","0.09356506666122828","-0.09778623672019873","0.7236465800390904","-0.6746636557827228","-0.020723434729076756"
"0.00534697126207508","-0.0037420274993549916","-0.0010014965512639817","0.007758780915694369","0.12070026867157048","-0.1237587450443493","0.7451853170455216","-0.6576978890653501","0.0014676973840924902"
"0.001520727232229362","-0.01543871262082146","-0.0014506888975455933","0.05533854004423721","0.0746556266291491","-0.14361550668779913","0.7772008523888453","-0.6254550167035623","0.039020035177897906"
"-0.0028437328048342234","-0.008722365857707073","-0.019623255763757858","0.07986554883931209","0.0788223568020196","-0.16775329100773945","0.8022225675657859","-0.5941224382014159","0.07598400888562727"
"-0.010546287469848271","0.010761895290220501","-0.00543517990297601","0.04634742153516182","0.05732815595046877","-0.18129530151500542","0.8259068191252508","-0.56619356717445","0.10269900708284808"
"-0.013790988622485434","0.00021049998332407855","0.006220690276077628","0.023415688826342207","0.03361297543181639","-0.2228386950389084","0.8527118191254924","-0.5249928755272064","0.12127823744538367"
"-0.01823921394153102","-0.0007380567540832923","0.0038621723015783093","0.04547420764847895","0.01633313136453188","-0.20111565990440344","0.8836128014542532","-0.48511145034321124","0.1346471769567789"
"-0.029138328792525904","0.05772023189196428","0.03114890350514866","0.1267957408131196","-0.10378620849954237","-0.11556073223188615","0.9161577494794942","-0.4391218214343765","0.14826126817070584"
"-0.023168848927140013","0.09229394083261729","0.11869907336064352","0.16681724166141848","-0.2333640976549443","0.09146214667704118","0.9213682848225766","-0.428369799758903","0.1322120033782974"
"0.007460359698288308","0.04321246584797747","-0.031992050990794996","0.23496065830906337","-0.19155798469704544","0.330616964495682","0.9103620738037664","-0.4537656791764323","0.1207552471466494"
"-0.04299329899621991","-0.008077322347052256","-0.0405545864743976","0.10554785715370278","0.12251199454225571","0.41465994368324827","0.84811428794042","-0.5204677915582648","0.152036604389694"
"-0.03724526757745317","-0.024214836004915717","0.016577103791773146","0.12300250739136598","0.06935208035512208","0.466061338404376","0.7687859771288942","-0.5884100144155509","0.20966359793147835"
"-0.0104403773432043","-0.041965477798120446","-0.005310438672100564","0.07693782730744592","0.08224237829370941","0.5077794675477276","0.6574978586247732","-0.6808246301660923","0.2452269382454099"
"-9.873488608984562e-05","-0.014931818525492075","-0.026919791669104697","-0.09988365237263883","0.033371252429254684","0.48887404427683123","0.5427267619501422","-0.766774840246717","0.24205630955933327"
"0.007504649387612138","-0.021331356479025593","-0.004427130320355067","-0.14500772609791593","-0.04572960853774301","0.5726500662680176","0.40825594074310967","-0.852698664998077","0.21422341959856792"
"0.010816747893568186","-0.038440070913800896","-0.009204265107407933","-0.1271005835485207","-0.08777505120114854","0.5418771821762377","0.24798321724894218","-0.9468679051447386","0.13706600708842498"
"0.023065735449606762","-0.041912503210288894","0.0007801964930447419","-0.06915942440603397","-0.11872756201432154","0.4092965309196179","0.10300773387965294","-1.0118022004658185","0.07698913086600721"
"0.03809919651704791","-0.032930713779319186","-0.018419213750506452","-0.034657367011266406","-0.07235503827535608","0.24369084758721393","-0.01418751560165267","-1.0698235395194775","0.017629731959665534"
"0.03408809117524186","-0.019028519984465652","-0.00870839806215637","0.016318298779345344","0.019253193101418327","0.011432504904504606","-0.05595538982240304","-1.0853776911211745","0.012076228724980818"
"0.026143868857613","0.002455168303010159","0.05410418133926418","0.02957343526429553","0.048539969164265166","-0.14047026553772443","-0.026001777556020813","-1.0665517586906217","0.051462301253723315"
"-0.008129610943700087","0.05382919647986614","0.032534687709079524","0.0315335934487347","0.09680080427967797","-0.09660919817252418","0.011670114336210412","-1.0506150198145827","0.06692647064942281"
"-0.009025032923508003","0.08654463997678088","-0.12232618076715243","0.20269891923216904","0.2242414791649057","-0.1782665507778965","0.04298905404543205","-1.0290318204758409","0.1498956128542505"
"-0.01326143798926572","0.10210462675553957","0.02492774440306084","-0.13654515711892753","0.005002305787025788","-0.32833047151378947","0.16461465175962545","-0.979295474811381","0.19979215604286865"
"-0.04629576930884468","0.0045738505882239","0.08443860516539904","-0.4710717604328179","-0.08498925342905131","-0.3517013606150388","0.26350336797673296","-0.9527386409061933","0.06406800179790319"
"-0.018441406001487647","0.03526316152101886","-0.010470058160447016","-0.3270540478541064","-0.0814208475199474","-0.042361068984546446","0.30867062889190067","-0.9317095334820159","-0.11967483359428757"
"0.05428130104890929","-0.12327939268474025","-0.015048722214269249","-0.03104801876300389","0.07752758309522871","-0.2467386447657104","0.33536417359068593","-0.9136883535940445","-0.1629931394316385"
"-0.0051641273976697","0.02403670377036307","-0.014829805484587177","0.11331724642110168","0.14554029880610406","-0.47930690048458063","0.4578535498911658","-0.8540179314613253","-0.11699450831327436"
"-0.0167661003618471","0.04323531763096364","-0.02094708240268436","-0.04465359610214655","0.06122205025906171","-0.235499746798121","0.555349074840069","-0.8021443741264033","-0.13012156481150497"
"0.016350070601047647","0.035828223791222115","-0.020441095621815418","-0.08318283507132918","0.05556190272382981","-0.11207330049372466","0.591126226607543","-0.7771706599771135","-0.15988298149885305"
"0.007336156004314955","0.004721628913925769","0.014866248896786076","-0.0038197271418487335","0.09037480168682484","-0.14855421482082531","0.6267919230735609","-0.7506534040658234","-0.10340820095896767"
