"AccX","AccY","AccZ","GyroX","GyroY","GyroZ","MagX","MagY","MagZ"
"-0.0007929276252742259","0.0901583378408197","0.009256259868422928","-0.02189997206922145","-0.1786174275203017","0.5075367791873823","0.374484984401849","-0.5647555667295093","0.19199633190236068"
"0.01684014564160917","0.06823309078300677","-0.01131681154883994","-0.027213387108474797","-0.19252487670729224","0.50688152061445","0.34706698024359794","-0.6353627078425568","0.14983023906690868"
"0.048473574831488696","0.03815910565581053","-0.0173266953542629","-0.031076901250986787","-0.18030470194412349","0.44941291688469065","0.3238285498899582","-0.6945581940485067","0.10817079308335557"
"0.0721204176530818","0.024868716414541026","-0.020306854230972633","-0.05499641504882143","-0.11315835976718217","0.3649816363205719","0.2915065124676297","-0.7525399551082683","0.06645741372524548"
"0.08798758398107741","0.019287687778875448","-0.0008639507569542994","-0.056572436143088094","-0.015879689677839065","0.22688467863330414","0.25511635654214576","-0.793503178792127","0.033844065565112005"
"0.09880996213122209","0.02003556431296799","0.036320294930845945","-0.026355577215382796","0.08704572548322755","0.07002548380774368","0.22421537421338522","-0.8211681965264435","0.021735205804729683"
"0.09811548054623774","0.018442171808387496","0.052096756233122904","0.02045715930729427","0.13609874192386734","-0.11635189628661172","0.2180574688079242","-0.8151787267832962","0.04467977081701301"
"0.08853475420809334","0.021057662242894463","0.04796005614299845","0.05845881149598935","0.17979555955526863","-0.3117548565022077","0.2293701819057394","-0.780521596793764","0.0879882705862627"
"0.06052133314690379","0.026112061152469872","0.03186761125919924","0.10329502309103693","0.22411463442098714","-0.4946933425304706","0.26141358107442714","-0.7193076328990443","0.1549130510327326"
"0.018390284767943244","0.051971969753536344","0.02023611105571399","0.10788733868031732","0.19590005543881003","-0.5988066491185906","0.2896117723428725","-0.6369062496045572","0.22986409822009018"
"-0.013636937529185135","0.07193923449639868","0.016488710999033592","0.10936034556744498","0.09726031731425071","-0.625089798543983","0.33413816527466655","-0.5312725838922682","0.29026947772390044"
"-0.018123675621555823","0.0893907256759664","0.005412350577987406","0.05643126083959009","-0.022988499920502625","-0.5744650065759601","0.37651904365342664","-0.4449793645311988","0.30461902404542246"
"-0.01537964052214457","0.09971973158571112","-0.0112238752013334","0.045659055571569476","-0.04948947821125225","-0.4988190446563402","0.4067234303480856","-0.3755991412289722","0.29829411012010465"
"-0.017642265954992457","0.13214121805603118","-0.023786804132050872","-0.017398154942287466","-0.021353160042775793","-0.3368002952898393","0.4280392567516039","-0.31459625996837215","0.2797769848555438"
"-0.005944011057502384","0.14195709756599575","-0.0013034364180518974","-0.0749368847522125","0.03738720488765601","-0.13612129012033725","0.4309649584148319","-0.290677958989681","0.2675847735163007"
"0.00587170779862917","0.11661239279952636","0.036753997885876466","-0.017908412229985286","0.01777174222433226","-0.0008060264193469101","0.4341971621570646","-0.2835934980820378","0.257566240606172"
"0.011169139769492579","0.08862415222852156","0.02247959448452188","0.03336474318685028","-0.020545182956985392","0.09493744399718544","0.431689417874298","-0.2919708401236643","0.26635901500364223"
"0.004144409914999778","0.09424569084311715","0.0014034895969886082","0.022895804042650084","-0.039569261918002245","0.1579951606656964","0.4265624740073078","-0.30624530325601057","0.27866563047073345"
"-0.004403500124499574","0.09396939201246628","0.004443953836969254","-0.027300034572423484","-0.07212049516395959","0.23913801394713674","0.4280392567516039","-0.33538789942916486","0.2758382141682012"
"-0.00611731853746519","0.09733275898106579","0.03163217251218268","-0.048860811851654994","-0.09680974758402398","0.3501291086674415","0.4233024064397111","-0.3827495654597779","0.2619789712517426"
"-0.018865046508063407","0.1128833973031483","0.01927370354597959","-0.06283801053617757","-0.12182688170063244","0.45795554716884407","0.40694634095099785","-0.44790813607961","0.23522474878211666"
"-0.00528929391097616","0.09800584786174907","0.009355433277473242","-0.04856235947583174","-0.16541121437044565","0.5117352878213555","0.389754360701363","-0.5172883593818365","0.20552870588211034"
"0.008780385004005091","0.07152790240264778","-0.0017561396930170893","-0.049706105999954404","-0.17803346303886552","0.49372781148373657","0.3733147037365579","-0.5837266184710196","0.1659612210934944"
"0.03332457544407234","0.048837120614798446","-0.014439472825059703","-0.02590019665485248","-0.17611164550364725","0.48120509208992074","0.34737348232260296","-0.6491094643896038","0.1206571864656367"
"0.05660939819640978","0.0238372700279384","-0.005479582824562468","-0.013695419982880258","-0.13075387971602992","0.42528969386637094","0.3180328742142304","-0.7087271158637932","0.08323886493588196"
"0.07372062338473848","0.023914135116164574","-0.007221416502051719","-0.04242579352906587","-0.032544935061382535","0.3317333309532702","0.28083466735318846","-0.7665109869540675","0.05296426401790087"
"0.09117047213252785","0.019783155982711756","0.02670179601435236","-0.06241440071242844","0.04387782650099593","0.1598929836435964","0.2477324428206654","-0.8048224850467972","0.031150665526630414"
"0.10561786507189475","0.010920299695010934","0.04810462379467529","-0.01927455391157624","0.10287259890838128","-0.025387445061998408","0.22845067566872473","-0.8150072221430739","0.03150041528890897"
"0.09842146453030544","0.0126751088848664","0.05088858371553789","0.04674118612132863","0.14982908712878293","-0.21454603376591055","0.22923086277891905","-0.7961944823771536","0.06827153632398004"
"0.07866566347967748","0.020720079085144356","0.03716085256273843","0.0853127860728862","0.19952590047723553","-0.43576860863863953","0.24706371101192784","-0.7463789807248987","0.125609250856777"
"0.038420778174312255","0.0422339940492064","0.02174622344008693","0.10461399004225583","0.20070100933127313","-0.5936859247153053","0.2783826507211495","-0.66354223949754","0.1914079678162846"
"-0.0074845219905051935","0.0808088424472545","0.030839735255776907","0.1028521582752992","0.14058856719917176","-0.6259877454772607","0.3169740488503954","-0.5726183948504691","0.2519114080011075"
"-0.013415489082565984","0.0970242599107526","0.012112276437385593","0.06975090154770207","0.022821599010522248","-0.5706547993185395","0.3523332432374082","-0.49286873714711105","0.28713153593149476"
"-0.006733522910666296","0.09675523210196098","0.005583559982616121","0.05729869822867638","-0.01257215314773738","-0.498115248411339","0.38900203741653294","-0.4138710613278046","0.2918874789606097"
"-0.025306307846681423","0.11307036643667141","-0.01322510455097424","0.0318946245485209","-0.022326035295660265","-0.4028115293037522","0.4115438721360706","-0.3445436086841079","0.2893542447011155"
"-0.005414460424282672","0.11674742606262642","-0.018572042410850545","-0.04533714831774174","0.014016898474638675","-0.226755685174881","0.42820643970378824","-0.29489961167207546","0.2690556837314909"
"6.87956778742127e-05","0.11952080154321958","0.010165549092426921","-0.040977818131523375","0.03972784940751089","-0.09998984703213376","0.42901449063934677","-0.28083623117384887","0.26524766061883187"
"0.004638336232893798","0.0996449439323019","0.025124149884124664","0.01990165278842325","0.021428700124473635","0.007946043919784486","0.41602994801968685","-0.2777491476498479","0.275609405912505"
"0.002326607014056459","0.09973323491202113","0.015108709501169805","0.012143816516217511","-0.004163782604172797","0.1131196559542529","0.4192064241111917","-0.2848731865513886","0.2853991305669374"
"-0.0006725752086333883","0.0956676949753014","0.016692344862681258","-0.02861803877404295","-0.054079821962869486","0.21167782597406967","0.41527762473485685","-0.3121292316820979","0.2872622835061783"
"0.0002189954938419956","0.09283719003724286","0.030836017801876645","-0.03127041392047218","-0.1117487078017481","0.2945777429844097","0.41419093554565783","-0.3568523647862143","0.2728473633973145"
"-0.006849061230641511","0.09624418313699776","0.025876108198060913","-0.016491244819624544","-0.12220262933827787","0.3662436157943673","0.40828380456847363","-0.4055069119508105","0.252221933490981"
"-0.007340099090536175","0.10407091880975786","0.0070909875391722095","-0.02761292819223819","-0.14613799318599638","0.4440495041210602","0.40677915799881353","-0.45821160715757897","0.23319816137452132"
"-0.0035465909180167413","0.09210801041650264","-0.0007765905902981522","-0.04564137719116157","-0.16380531204649612","0.4834863626771662","0.3936274324269696","-0.5208767641618719","0.19957969123400784"
"0.011792083878025592","0.07192157630045483","-0.0003817143760036948","-0.03836780396746905","-0.17917506573413217","0.5079008117279001","0.3683549428217523","-0.5891883816288673","0.15702135567450515"
"0.03475436215376557","0.05346772282172142","0.005915446005822812","-0.023008096858165208","-0.13653847869812527","0.49139800322442195","0.3361443607008799","-0.6665501670337459","0.11936605416563645"
"0.058893205654586445","0.02833180025435287","0.007010029654233179","-0.02822138593907785","-0.10463343565703585","0.42079995919998353","0.30295854469226496","-0.7271044976968416","0.08583747298271795"
"0.08094465684118853","0.016141412748644474","-0.0034785600001383085","-0.04884925885646184","-0.04509059822404031","0.2922236658890606","0.26977272868365004","-0.7745717050445143","0.05332055115891358"
"0.09939246782776377","0.012131028706314079","0.015142579636705521","-0.047240504275814554","0.030209707019512047","0.11006663638110943","0.24600488564809278","-0.8060230175283533","0.033000743708402974"
"0.10083486747072096","0.017221678853444812","0.041997673137412164","0.001445357867513235","0.09230619241026337","-0.06782878551917886","0.2357788617394769","-0.8074214399793963","0.03735463794536592"
"0.08955986795207341","0.028705738521399137","0.04009144538744468","0.0548157670117468","0.14778760474081132","-0.24082190254049274","0.23171074323632168","-0.7836878363055599","0.07713458754284269"
"0.06819981732858965","0.04280528862386043","0.0329436076381083","0.07086672833344126","0.16412425043869422","-0.3969384709833967","0.2482897193279472","-0.7366164088968616","0.13170535652639856"
"0.04348135658922648","0.051448456179671566","0.02116960503511302","0.06892101139299354","0.16498105078440797","-0.529446315731913","0.28309163720767827","-0.6728298753988077","0.18462543737957432"
"0.014590036860091938","0.06077198363802522","0.010298571984491283","0.08612245848600668","0.17028699035549003","-0.5993648323473847","0.31652822764457","-0.5925657037747829","0.23618901214540802"
"-0.009246481370127136","0.0822443499057488","0.01139427086907173","0.08442224269341357","0.09601580284561621","-0.593758731223409","0.345980291054399","-0.5049796032797302","0.277113003021366"
"-0.01995303235449667","0.09451783480413414","0.005483601777742421","0.051798509767133655","0.025083264727559937","-0.5312664784345025","0.3773270945889849","-0.40872592212113634","0.29428996564542026"
"-0.022408221653969888","0.11019311921523207","-0.0068961392857788285","0.010546614930763388","-0.00397160085065097","-0.4170330672199849","0.4015128950050029","-0.3430792229099023","0.29244315615301486"
"-0.012452669749439232","0.11886640957588862","-0.0002883649780637925","-0.03939313229086184","0.01304043327617161","-0.2250228902820158","0.40677915799881353","-0.30756456971925883","0.28637973737706424"
"-0.0009084659452494408","0.11474270146429502","0.020359613135289348","-0.032054092094408085","0.0413983707519472","-0.10277590940889743","0.4063333367929885","-0.29165421617248477","0.28737668763402646"
"0.007263944554330463","0.09410754142779171","0.03392666766951082","0.007383308571916727","0.009635489555928724","-0.0003009919414684079","0.40460577962041555","-0.286469498971919","0.2864777980580769"
"0.003921035829714361","0.09956184653962492","0.02586826023982703","0.018575946590008344","-0.021059981153530166","0.09844429080417456","0.40432714136677483","-0.29797350253144395","0.28817751652896334"
"-0.0005175612959999828","0.09286939027690518","0.014226227250291032","-0.010295951147293453","-0.06868850718699446","0.19100563143985974","0.4085903066474786","-0.31851448136421956","0.2856279388226336"
"-0.0012358245185125443","0.09494578637642043","0.025346164492056955","-0.019200422192420147","-0.12020422629729746","0.2838023797850798","0.41065222972442017","-0.3448074619767576","0.2762958306795937"
"-0.012019401049532193","0.0943661820624987","0.019769570591231155","-0.019112811978872032","-0.12761387397978288","0.36364685033867294","0.4103178638200512","-0.39329050450113157","0.260017757631489"
"-0.0009084659452494408","0.08584246700866069","0.021041765925987357","-0.01705445333529101","-0.15846825961369815","0.4421808037464016","0.40828380456847363","-0.4518395501400898","0.2363687900605979"
"0.004663369535555086","0.08979790290008345","0.0034557306751497054","-0.0026401663326272797","-0.15435896857014927","0.4700414275140384","0.39410111745815896","-0.5228952418506417","0.20569214035046482"
"0.016752529082294635","0.08844237668204072","0.005838825150434087","-0.01598965227832159","-0.16794332265470585","0.46865810386007034","0.37002677234359665","-0.5861540687633963","0.17199195297577416"
"0.02892641673034932","0.07903886798323549","-0.01670092394771886","-0.04352717907081362","-0.15580930658551947","0.45368423202676733","0.3476521205762437","-0.642473554079465","0.13874938211247598"
"0.05806229257009806","0.04536780447053584","-0.020951212907017982","-0.057613168460071765","-0.09800878940861221","0.41533947109221503","0.32109789500427877","-0.7007059757672436","0.09865890702512574"
"0.07933771137419997","0.01703263228510475","-0.02338201470735572","-0.05490976758487274","-0.007115435862186118","0.3366113669962101","0.2844012369997901","-0.7539911482178413","0.067116054632714"
"0.08626269314578083","0.017945664887142727","0.001549709450398898","-0.05956081089971835","0.06793285520146775","0.16325664431798179","0.25297084198911207","-0.7955084638162645","0.046198077028026016"
"0.08643051255554483","0.024304692861746236","0.05251600242298575","-0.04769877308514317","0.10742464990711746","-0.00857472352235928","0.23508226610537505","-0.8041760444798057","0.045318799588279"
"0.08803822827799987","0.021792035450676994","0.06529578283121848","-0.0032231112150820545","0.1366779198111934","-0.15312889041333363","0.23318752598061782","-0.7925269216093233","0.06163773125347232"
"0.07561737747099818","0.030716695424181296","0.05575431782054699","0.041088883223075974","0.16482309317877356","-0.3083329506213394","0.24227113304930653","-0.7596771866744415","0.09922275594094863"
"0.0538316644203391","0.04210103822092329","0.042241372893095985","0.07217799328786473","0.16784822065637742","-0.4508638246521152","0.26503587837175696","-0.705006784437433","0.14847373297956667"
"0.03080487724927962","0.05606451634287607","0.0227825669773932","0.09618415454964806","0.1928438150994903","-0.5538364959466123","0.2915065124676297","-0.6262597692461437","0.20784947533274375"
"0.003621599017111937","0.06967379182854337","0.014764638490178924","0.1164076726352715","0.12863165511206034","-0.575193071656996","0.3221009927173853","-0.543264716043195","0.2631066690833884"
"-0.015610717162094983","0.09048241767225981","0.006918538983243407","0.08187962100131935","0.05041870735249225","-0.5426485625346955","0.35071714136629206","-0.4682512249428983","0.2971173819479525"
"-0.01368507849584148","0.10593437784053845","-0.0027924832303233573","0.03891980837556053","-0.007768327298808218","-0.4517860404214272","0.3781630093499074","-0.3974725791896285","0.300794657485928"
"-0.01413760358241106","0.11123183662369396","-0.0022038863627819342","0.018564393594815185","-0.009727958927496538","-0.3258550502382678","0.3943797557117997","-0.34058580929436305","0.2939304098150405"
"-0.004393871931168295","0.11712136432967267","-0.005824892986853436","-0.03295041197147728","0.028742615924756375","-0.18509822812161578","0.40491228169942056","-0.30086269608595767","0.2789598125137715"
"-0.0004472754846817225","0.10798065113520831","0.013576911969045336","-0.030644626680842786","0.030030209740382077","-0.06563002897445074","0.40251599271811006","-0.2881713527095093","0.282637088051747"
"0.005504873632707876","0.09763606446433665","0.018968459275724776","-0.004419520142293531","0.01054877171214204","0.030122663599774724","0.39719400207357125","-0.2904141056970313","0.2864941415049123"
"0.004564199144243039","0.08384709086700545","0.01833814431441375","-0.018757557376682416","-0.017993210307168155","0.12643111251919084","0.3957450831546394","-0.3033561097014969","0.2923777823656731"
"0.004838602654184158","0.08526078525992203","0.012924085759116058","-0.018122142641058714","-0.0638779801063111","0.20812729526221838","0.39488130456835324","-0.3317994946491296","0.2886514764871912"
"-0.0013995038051440873","0.09444200843331642","0.0051985969787223625","-0.026821548021506846","-0.07616038059291157","0.281739528722145","0.3873580717200525","-0.3712323692356205","0.28183625915681004"
"-0.0062906260174279945","0.09781576257600054","0.02093891636808012","-0.054190593634098644","-0.10271161812181757","0.3631857424540169","0.3741506184974801","-0.42224840336943115","0.2694315830087061"
"0.0009545894643508325","0.08864284914187387","0.026693535005685113","-0.0462777546763847","-0.11249302318587372","0.39924923280132374","0.36877290020221337","-0.47472882327744736","0.24377237147705516"
"0.004823197544854132","0.0906922385887691","0.023137377299651506","-0.0401854752111926","-0.14287592929994095","0.4345846580675947","0.3483208523849813","-0.5328688963127987","0.21541649121755546"
"0.007438214853626393","0.08803000587088136","0.035031577578755246","-0.02376096704491935","-0.2052787567137408","0.48853428057234777","0.3278966683931134","-0.5931593736832447","0.17614318847197755"
"0.023159128924920055","0.07594972241046992","0.030472946470951095","-0.02853139131009426","-0.2564809539098301","0.4649935096188568","0.3134910706798859","-0.6658773411374893","0.12487379574918189"
"0.0602450039982964","0.029270800791602387","0.004903265918868245","-0.03579533703779249","-0.1811351760222315","0.3984483612121844","0.2972464604926293","-0.7193340182283092","0.07241623444144929"
"0.07692681176405057","0.009295330181213202","-0.018813676914367545","-0.02500387677778329","-0.05631516141230145","0.29899467114269357","0.27618140851738754","-0.762315719600938","0.04231160537055683"
"0.09129592749163426","0.016941225153160107","0.004408844550133449","-0.026112964316326478","-0.0013648216982727094","0.1482293810454028","0.24959931912005867","-0.7953369591760422","0.030119394031313754"
"0.10008868248754772","0.020799021608187453","0.040413624725467355","-0.01162262009530779","0.06412751288391225","-0.025159318003273853","0.23831446984760773","-0.8028172000226599","0.027311589864984036"
"0.09257801771562585","0.029626042145296343","0.04998813377080785","0.0452017495118403","0.1208319000095991","-0.18273201660824942","0.23527731288292333","-0.7900071226645191","0.05495979887650889"
"0.07442059303992163","0.03517694797611653","0.040516887333807955","0.0802814566662658","0.1528661810916621","-0.3379409305834621","0.2456983835690878","-0.7511811106511226","0.10393130297424076"
"0.049598147812580755","0.04974495962979412","0.025471525298582442","0.08167744358543906","0.1825693908420905","-0.47940397582871874","0.272280472966417","-0.6940700654571048","0.16001220644539188"
"0.019199053007769713","0.05959823296646332","0.019492207225228302","0.0926412360237462","0.16516054806353792","-0.5535452699141981","0.3053269698482115","-0.6209827033931506","0.21917548398970815"
"-0.0005945868426501148","0.07682120631616943","0.012094701141446024","0.10298694321921939","0.11670106929255461","-0.5606560388723144","0.33344156964056476","-0.5386868614157235","0.2655581861087054"
"-0.012895566642677533","0.09173718830168173","0.00579979188448134","0.06934462121674267","0.03440276345998827","-0.5204668463991381","0.36991531704214053","-0.44549387845186567","0.290253134277065"
"-0.013540655595872461","0.1039068014592209","-0.004325106863314554","0.04165305448834187","0.0023076926327265943","-0.44999014655487224","0.39290297296750354","-0.37273633300372344","0.29571184552010416"
"-0.011008440749749097","0.11435837602316413","-0.008421741061402862","-0.00555960821793836","-0.024880161912827065","-0.3190840449846348","0.4114045530092502","-0.3225778220710242","0.28618361601503883"
"-0.004432384704493361","0.12250192050550511","-0.011719535721368284","-0.030037131683602548","0.029989523690445948","-0.15677406958571954","0.41226833159553666","-0.2961001441536314","0.27793017536313835"
"0.0051553702147828576","0.1056798920754653","0.005462949256074301","-0.020325876474153643","0.05350366725647276","-0.047896790484022005","0.4098720426142259","-0.2871950955267055","0.2803653489416199"
"0.005831269386637838","0.08789497260778134","0.019009970844277697","0.005818166548123618","0.02269954086071386","0.02719098820680389","0.4082280769177457","-0.2845037919416791","0.2906126901074448"
"-0.0018809134717074718","0.09268657601301587","0.020991167247900462","-0.00985790007955287","-0.01375276658500161","0.12332470150677143","0.4026274480195662","-0.297920731872914","0.2961858054783321"
"-0.007118650643917007","0.0900201884254943","0.01922186571659261","-0.03574334855942328","-0.07464303025999951","0.2228876013384176","0.4022094906391051","-0.32360684991235783","0.29478026905048366"
"0.0005270976804425575","0.08861064890221156","0.038455765671329564","-0.03366862317265195","-0.12903070583638213","0.3124396063058214","0.40053766111726036","-0.3671030652056534","0.2778157712352902"
"-0.0010817734252122461","0.09020715755901744","0.016382763562876136","-0.0180345324275106","-0.14378059558675602","0.3772131296819734","0.39886583159541567","-0.41615339230922405","0.2581382612454126"
"0.00024499161583640874","0.09660773422995941","0.012707853857250841","-0.01698802361293035","-0.14377102239853579","0.423493799999816","0.39162123700075596","-0.4820903301423727","0.22679153021502627"
"0.011575449528072063","0.08716371555222416","0.00794868676404924","-0.031869244171317555","-0.16112960593893194","0.4440980417931293","0.37710418398607237","-0.5423544221835537","0.19606585016438682"
"0.01810529024533772","0.07627587967672696","0.013211568860736291","-0.025417859105538124","-0.20461342013243233","0.4685852973519668","0.3581289189131361","-0.5967477784632799","0.1584759224428599"
"0.031081206397886994","0.07009447237897042","0.015643196761940755","-0.016369938370096385","-0.16730670563805816","0.4561596533022891","0.33636727130379274","-0.6584234856201366","0.12062449957196579"
"0.04825886612020144","0.05322154679591596","-0.0006229358290873384","-0.03903884043827166","-0.1261898622320184","0.41631022453359606","0.30476969334092974","-0.7157588061129064","0.07892092628195699"
"0.07555575703367806","0.024175891903096963","-0.022933854987157512","-0.059642644615669885","-0.07049544646356955","0.3212249249503201","0.26966127338219364","-0.7769727700076262","0.03944333045093597"
"0.09965551006957399","0.00999687991888834","-0.00977985088629844","-0.04935277689696364","0.02093568093112997","0.1598978374108033","0.23887174635488923","-0.8117486339788506","0.01473040449105733"
"0.0999213444874503","0.0241613498593785","0.03358383580982003","-0.008577154287431343","0.11046892376116184","-0.016680514757891226","0.22480051454603064","-0.821102233203281","0.019636707231058363"
"0.08894867023940455","0.03538676889262582","0.04424053699057001","0.01758046350419788","0.1513033581147038","-0.1735001513807154","0.22259927234226873","-0.8045718244187802","0.05023981143043194"
"0.07309960491487172","0.04170528688829932","0.04478369831044157","0.04270052605252155","0.19957137312128181","-0.32536967351757723","0.2357788617394769","-0.7669595375515719","0.09466293427385906"
"0.054667391601493115","0.04460434717531637","0.03608072567949575","0.05874378537742059","0.21904084466424648","-0.45690676482471243","0.25480985446314075","-0.7021175908829193","0.15473327311754262"
"0.026141943218946743","0.05291408644301125","0.026622903381580135","0.07765700125822","0.2081058704196484","-0.5481333194784986","0.28587801974408594","-0.6307716605504528","0.2170018055605938"
"0.0010643508683272833","0.0642558418260063","0.027067139122661402","0.09669537458694531","0.16724750309555578","-0.5894631472452978","0.3110390540478472","-0.5564969586695752","0.2717360090125041"
"-0.01398355248911078","0.08188910855205485","0.019718352337494218","0.07685888184029267","0.06534330778788595","-0.5549771312402352","0.3385685135075547","-0.47182643705830113","0.30525641847200496"
"-0.014320539255705146","0.09062991554426139","0.010543552196518525","0.06894700563217815","-0.0011544508871323784","-0.4778993079945781","0.36799271309201936","-0.39665463398241463","0.31215335303656333"
