"AccX","AccY","AccZ","GyroX","GyroY","GyroZ","MagX","MagY","MagZ"
"0.06947940422231512","-0.038489929349407065","-0.006615058465875711","-0.10612226977694425","-0.08842602800012658","0.293485645362856","-0.003571398137939308","0.7965559187024842","-0.2248923099762086"
"0.05273308756124146","-0.040062547505818315","-0.035461674631039185","-0.11302518440485627","-0.12029995817950012","0.4111652312942764","0.056057188141184114","0.7592866411157205","-0.1912836459037964"
"0.028906197524353652","-0.04895916210929415","-0.0700050823731369","-0.11258231958911855","-0.14627680441519023","0.5067359075982429","0.12446287940999157","0.7162785544138269","-0.16230834900923333"
"0.011560044418742036","-0.06815777596989471","-0.08924910206349124","-0.09709167853429224","-0.1625248981220356","0.5486724562659052","0.20785930872467195","0.6566609029396376","-0.1514955245829019"
"0.0019405164614726238","-0.08564354482394165","-0.09000085385221082","-0.127755253276133","-0.1747426795881493","0.527607106587936","0.2948780353366828","0.5923202775270194","-0.14799475827074926"
"-0.00479825605108153","-0.09814658626959709","-0.10820811695482552","-0.11798334484192001","-0.1792085718929031","0.42596922127533776","0.382509766106703","0.5314889009066416","-0.1565391122763207"
"0.007726097834231306","-0.10745972655386611","-0.14112617124164217","-0.05233537515599732","-0.15771437104135225","0.2519373980717461","0.4389897401196859","0.49214837497257813","-0.17555634701404624"
"0.023019520121616677","-0.10068728905069478","-0.15688817577875144","-0.0011646562965410908","-0.06557482771835314","0.10104105625986892","0.4664356081033012","0.4749451402918206","-0.19689925423645582"
"0.032980848942146083","-0.09765007934835233","-0.14633060670200845","0.012458635635231072","-0.0374894867771496","0.044839285771111764","0.49053781704322713","0.4614622370374233","-0.2119711809081046"
"0.03403128483458737","-0.0790819669546881","-0.11904036456975452","0.014635412479541964","0.011671467360673657","-0.04837731343750564","0.49644494802041167","0.45808491489150777","-0.215207183381523"
"0.02668208486483085","-0.07493332962529142","-0.11835883135470657","0.0136303018977372","0.0650632920324432","-0.1256347260698182","0.4796430613258733","0.47064433162163133","-0.2093872819634205"
"0.01640880258036838","-0.09294261205320316","-0.1285467202935902","0.036057553816455576","0.08373818895312586","-0.23526919285579298","0.4518906912632533","0.4926628888932449","-0.19243749325037893"
"0.011723723705373579","-0.09370918550064802","-0.11992635774931688","0.07223287001503223","0.09662370029760306","-0.33764970455104776","0.4131878378325513","0.5206181452494758","-0.1739007558496155"
"0.007045384565710686","-0.08951068973564519","-0.11143404083938588","0.13530644727207947","0.08719171660358661","-0.42101315632964725","0.3584075571667768","0.5661064529022761","-0.17830204608240124"
"0.012699059689830984","-0.07185249379179356","-0.10928411333373458","0.1285479450840819","0.07974377616822015","-0.4768557480450934","0.2861845218230909","0.6179800102371983","-0.20369976246468513"
"0.023397908119535488","-0.062013762498842814","-0.08724580746168357","0.07677415987554284","0.08800304430525409","-0.4643330286512776","0.1959335914688477","0.6808562498756108","-0.22176907728595477"
"0.03728272572255642","-0.04240901013153366","-0.06843136022202616","0.08315430147096446","0.11254391230790438","-0.4358414151467431","0.12097990123948209","0.7306057882047031","-0.23754213782684422"
"0.051742346467454035","-0.027797372346700672","-0.03605027149858061","0.06107363940804082","0.12120525435018946","-0.3725968284407663","0.06082190227844084","0.7704476353948009","-0.24512549715849136"
"0.06907116882506938","-0.02297252998439533","-0.005466778261128232","0.06669320881991286","0.08830220643713738","-0.2657168745447104","0.0068496725482251695","0.8027828564090159","-0.254555665982544"
"0.0845927792944058","-0.015308872944763728","0.004393148633665678","0.06578244769885223","0.06488140145625816","-0.13367984521526383","-0.027645743252501572","0.8236404591929712","-0.2744946711217887"
"0.08913632372743095","-0.01775401372428295","0.013801198354361121","0.00394051600435558","0.049547547224448096","0.01933031221522066","-0.045785093564515045","0.8278621118753656","-0.27835172457495405"
"0.08335940772867043","-0.021207749107418634","0.008790834640110172","-0.05669566809181512","-0.019913831193858894","0.1637395941550689","-0.03597702703636024","0.8176905674437215","-0.2603902765027984"
"0.06789749205798785","-0.03561372084537617","-0.005422788389975138","-0.09997029983658749","-0.08497010705261078","0.3128036388463393","-0.0007014241254398169","0.7952630375685009","-0.2344205394812739"
"0.046960022839813445","-0.04516992100322529","-0.026597612331082023","-0.11905199689728714","-0.12757318792984676","0.41317954468514206","0.054691860698344086","0.7565953375306941","-0.20001594954797547"
"0.02739071989401214","-0.05230590959935826","-0.059895673016592106","-0.12483812198986054","-0.1534399425010038","0.48659277368958576","0.1269427598673942","0.7094843321280984","-0.17023328637974133"
"0.009546789193173998","-0.06473831826123827","-0.08683482228048799","-0.12340362508671007","-0.1881690760670715","0.522122349644133","0.22279431911981729","0.6454207526727623","-0.14861254056112913"
"0.0016516706615346034","-0.08157904360463042","-0.10634112899602746","-0.12574310661332458","-0.190964447027389","0.5086046079729014","0.3046861018648376","0.5875445329300606","-0.14364249837846985"
"0.0028378640799467717","-0.1004795455690024","-0.12969500049833768","-0.07711943809411997","-0.19006935392879418","0.4235908753439541","0.3717543295161696","0.5390087197471567","-0.16204195082581554"
"0.010739722346918038","-0.11412829231619126","-0.15293115262713963","-0.019095482486082293","-0.14308653944078678","0.28210356126266295","0.42706402286386136","0.49651514696592985","-0.19726207875620275"
"0.02719526756938741","-0.10442667172115747","-0.15953376380443768","-0.0012372476163381016","-0.051514207519838366","0.11909221650234995","0.4632591320117964","0.4751034522674105","-0.22262057086608153"
"0.029243184290948018","-0.09479152904026528","-0.12824519347723567","0.003260525962278276","-0.016909286070928606","0.02664008562882013","0.4873892047770866","0.46191078763492777","-0.23149506249772894"
"0.026385536510227816","-0.08435034165040667","-0.1009859301274839","0.013385763499482018","0.019487736212814834","-0.045149558244913575","0.4898969490598535","0.45746485965378103","-0.2298607178141843"
"0.025240744323140104","-0.07829150300684863","-0.10192148935904974","0.0291950746717196","0.053025007845459486","-0.13413124556550607","0.47822200623230543","0.46470763253701414","-0.21933063501810615"
"0.014964573580678243","-0.09542722409424392","-0.12321217394671478","0.046379192271943","0.08140233102738112","-0.24982078694209528","0.452503695421263","0.48605336391237114","-0.2036115078517737"
"0.009049974417280587","-0.09680040850823052","-0.11957733013312563","0.06801795226872834","0.09233491197492417","-0.3793192960223303","0.40491228169942056","0.5254730458342294","-0.1895626809520239"
"0.010229428100360866","-0.08082389604867864","-0.1186768801883956","0.10160058379604041","0.09544141155240028","-0.4530722887312572","0.3406304365844962","0.5811592832479391","-0.188596783244049"
"0.011402142048109258","-0.07153776241702961","-0.10809452808565084","0.12146210803227822","0.08556188130908643","-0.48335979610234664","0.2625002702636261","0.6361990800946569","-0.20497945435190057"
"0.022166462192466374","-0.06479856387092905","-0.0886935492306188","0.09641425170391178","0.08182833790318293","-0.48224342964475836","0.1870728950030712","0.6876900501552369","-0.2240097638470945"
"0.03683790319065187","-0.04954292129284971","-0.06972007757411686","0.0907446193128694","0.09322043188529872","-0.46190614504782496","0.10735449063644856","0.7377694051001413","-0.24267398013317437"
"0.05764828025685354","-0.032322025377960535","-0.03925347760930604","0.0734959974894842","0.09891647887635661","-0.3755090887649095","0.035410093546403426","0.7817537489848385","-0.26467225957368534"
"0.07753916485991919","-0.005648904917809275","0.002338016202471043","0.06272475497106302","0.12491247148848722","-0.2637996364979827","-0.030125623709904223","0.8165032276267981","-0.2842190219888794"
"0.08554789607286753","-0.008046160824798402","0.018968459275724776","0.04493699337199709","0.1169427922951163","-0.0939202111398986","-0.06052505718211181","0.8345244075147694","-0.28668688246103174"
"0.08553730506020314","-0.01534418933665143","0.021860225359694955","5.46956660595016e-06","0.02535131399772737","0.06488777121923435","-0.05066126300322849","0.8357513253255903","-0.28353259722179064"
"0.08090614406786345","-0.024234571635676494","0.016245011243349775","-0.061935914161511785","-0.047026775541588975","0.19303450613234616","-0.03330209980140902","0.8193132651935168","-0.2708664259243196"
"0.06501192251660698","-0.036455081946230275","-0.004143364672635096","-0.1232592126467956","-0.06209018720617654","0.3190649985432472","0.0016670010305067254","0.7952630375685009","-0.23288425547874195"
"0.04767443478499349","-0.048427338796161686","-0.029519944147121023","-0.129690379970987","-0.13582048958160536","0.4347060022477674","0.06547516111424176","0.7511071890435812","-0.19092245572873304"
"0.028833986074369152","-0.05153725871709649","-0.06014763378094317","-0.11256306459712995","-0.17087989814127225","0.5100850069710076","0.14276941267418966","0.699444714342779","-0.16864306900265238"
"0.011696764764046042","-0.0683624032993617","-0.10559763821597512","-0.1277937632601102","-0.1856656873474721","0.5526525453755676","0.22301722972272983","0.6487057261662504","-0.15488352111188994"
"0.002284242963398878","-0.08807518227715089","-0.12023821082650547","-0.13068201205839974","-0.16439166982498737","0.5307620552724245","0.30518765072139087","0.5836131188695808","-0.1433287041992293"
"0.0047240271535420675","-0.09194024975403747","-0.13528976861823144","-0.08150572526912238","-0.14792099949202078","0.44230214792657424","0.3721444230712667","0.5302092124372908","-0.15199726840075012"
"0.010750313359582441","-0.1105862659533363","-0.14134302271915744","-0.03082177260713788","-0.12010131452392962","0.3003294571245925","0.4509990488516029","0.4739293051151195","-0.18304654869873138"
"0.013187209091726257","-0.11740025215284612","-0.15147308459737036","0.026242321650268248","-0.04893901988858698","0.11252749635501046","0.4919310083114311","0.4473988565391968","-0.2069210558359516"
"0.02970341193218261","-0.08241417240103374","-0.10872442999652851","0.010544689431564528","-0.013242994312272476","-0.006760142652057714","0.4968350415755085","0.4425043779605457","-0.2154866563224091"
"0.026412495451555364","-0.07032661791876309","-0.08964769573168596","-0.012852051333779708","0.024106799529092875","-0.08008697460021834","0.49329633575427084","0.4434806351433494","-0.20851781059177474"
"0.017861696954056653","-0.0889352402913573","-0.11659304075208228","0.006398223181780103","0.059288266238568116","-0.15668670177599522","0.481649256752087","0.4559740885503106","-0.19062663934101146"
"0.014953019748680716","-0.10053148143942549","-0.1324975476887016","0.05371823246839677","0.05485348679553017","-0.29394153085286495","0.4481569386644671","0.49032778725329546","-0.17876783431721147"
"0.017510267897465386","-0.08225420992013062","-0.12088876525905128","0.062168285702592564","0.06529304854972957","-0.39582210452580846","0.40137357587818256","0.5335733419185739","-0.1750562375408816"
"0.014702686722067761","-0.07494371679937605","-0.12647527237027778","0.06396959020312583","0.0942734825895279","-0.4504755232755628","0.346426112260224","0.5799983287602805","-0.16583199614695557"
"0.012258088435258932","-0.07277383613309922","-0.11775784297416425","0.10220711604368121","0.08402538459973384","-0.455596247678848","0.2703021413655673","0.6336265104913228","-0.17209643931898222"
"0.024688086025925343","-0.061700069841487334","-0.09703923323670614","0.12811470776433848","0.0924330371541819","-0.46023159536144254","0.19392739604263404","0.6870831875821426","-0.204245633588989"
"0.03915155804815546","-0.04413328102958035","-0.06803483180599824","0.09983875202908375","0.09995995639236555","-0.43999138610864724","0.09687769229955587","0.7446823613675622","-0.23089035496481747"
"0.05230655859666632","-0.034483596304969666","-0.03356577314190575","0.06986258050123594","0.10937279370994148","-0.3468233245720989","0.02448747400368538","0.7866086495695922","-0.25113988559393563"
"0.07254020688232507","-0.015859393171248515","-0.005271611931364498","0.08872380790366614","0.11124674530405841","-0.254092102084172","-0.014076060300196562","0.812400308926096","-0.2674179586420404"
"0.08719470226024753","-0.01315976662665614","0.010052868934205659","0.064104375147046","0.0954198718789047","-0.10627304868147275","-0.044865587327500685","0.8279148825338956","-0.2856082149698923"
"0.08899103429006211","-0.020247974221999875","0.020570475381520854","-0.0017950647342477573","0.06886863434999867","0.05506131950885445","-0.042803664250559134","0.8272420566376391","-0.2868339734825508"
"0.08211448233093752","-0.033772074880173295","0.009758281365131592","-0.06597464873112002","-0.021457268464671175","0.1761045661146603","-0.025444501048739347","0.8136404194015493","-0.26182849982431766"
"0.0661682685356922","-0.037248662046295136","0.002990842412400321","-0.09716869850224664","-0.08808139322419702","0.3057656763963265","0.005261434502472618","0.7901310910264652","-0.23162581007241256"
"0.048836557720077486","-0.04143677063721336","-0.03684539358280323","-0.10064422455618838","-0.11945512431906173","0.4034477414352969","0.054050992714970464","0.7568064201648138","-0.2051641353011411"
"0.02429140446067712","-0.05323452296252317","-0.05260739811991251","-0.11976443160086524","-0.14935219113095047","0.4947471025971867","0.12488083679045266","0.7076637444088156","-0.18135173326189558"
"0.007810825935546451","-0.07236250403934832","-0.06996997308630111","-0.12204614815151399","-0.1953274275587749","0.5067116387622084","0.20482215175998783","0.6531648468120297","-0.16794030078872818"
"0.00720713821367598","-0.08086128987538327","-0.0931462329022655","-0.10794186651986666","-0.21013954303258053","0.4872237634264834","0.29749723492090613","0.5907635431003864","-0.1716894874927796"
"0.00934459713321737","-0.09169407372823199","-0.115959008336871","-0.1291223577073234","-0.21453842301979245","0.4060930445630603","0.37883174115864493","0.5411987020761488","-0.18146286870037662"
"0.010883182427553931","-0.1102434892085439","-0.16135944671989946","-0.07705300837175932","-0.15125246899267317","0.2643873109574584","0.42227144490124","0.509470343635028","-0.19790601056151932"
"0.0281195741291891","-0.10479022281411912","-0.18107021339995333","0.020719989947938625","-0.07320226543284958","0.13855824988564389","0.45548512473521924","0.4868449237903201","-0.22415685486861348"
"0.0357345122348886","-0.09024402422601925","-0.13381724382329446","0.03152204045354155","-0.003698525656667901","0.07477246813609713","0.4766337681865532","0.4692459091705881","-0.24048395825722454"
"0.029063137075653316","-0.07661605182699964","-0.09881121959583085","0.009535824126321988","0.055504463594508224","-0.0010108553954783165","0.4797823804526937","0.4637709533481078","-0.23986290727747758"
"0.021756301156554365","-0.08921257783941663","-0.10685744203773045","0.022631047902806876","0.09348369456135601","-0.0837151655873801","0.4803396569599755","0.4644833572382619","-0.21741191435962473"
"0.01021402299103084","-0.09749427173708304","-0.08541392878972133","0.07332366531118625","0.029096823888906196","-0.2085637656833997","0.46785666319686914","0.473586295834675","-0.20394654851190036"
"0.01809373641334019","-0.0791827225433089","-0.1078611545908011","0.0882674645935364","0.07538558223094434","-0.289888635235099","0.43244174115912776","0.4972671288499814","-0.2100606319730409"
"0.010216911449030214","-0.08532569729695233","-0.12206595899413412","0.06569676298450297","0.09402457969580101","-0.4010399042732318","0.3844880977075524","0.5391406463934816","-0.20419987193784978"
"0.0036610746097701444","-0.08227498426829986","-0.11734892304513547","0.09354333239841199","0.08021764898512328","-0.4627070166369643","0.3077789864802502","0.5973466827519952","-0.20245112312645702"
"0.008806381125999522","-0.07139338069725341","-0.09859230286614878","0.11882417412984042","0.10757303432453157","-0.508623654414289","0.23354975571035072","0.653257195464457","-0.21643294189418147"
"0.02932020983759816","-0.0505483997442408","-0.0983547988669654","0.1203453184969396","0.11798626981112524","-0.528111529750014","0.15352484926472307","0.7071756158174138","-0.24246151532431354"
"0.057661759727517324","-0.025060351975403673","-0.024681058320280475","0.07217895603746416","0.12287098910051565","-0.42101315632964725","0.06828940747601367","0.7601573569814644","-0.2606354282053301"
"0.07558849289100437","-0.007208954593578142","0.008461344309416984","0.05074044795736024","0.11924035746798001","-0.2854474382407806","0.013787765063879862","0.7974398272328604","-0.26421464306229286"
"0.07982874923409461","-0.019193676052411086","0.01719007063488295","0.04745265807530729","0.09006367306966621","-0.13333037397636666","-0.03767672038356921","0.8220837247663382","-0.2727786092040668"
"0.08493939425433142","-0.02652182736910951","0.022272862742623998","0.020099979205905796","0.042994699887676444","0.014858536487498753","-0.041549792109175525","0.825711707540271","-0.2795611396407771"
"0.08167928799236424","-0.03269180877537296","0.01008822605130148","-0.03501165886385659","-0.029925710764317923","0.1345975758448091","-0.030153487535268482","0.8161074476878235","-0.26950991983697753"
"0.07207901642175736","-0.03604271113507092","0.0020086084818645277","-0.10603562231299556","-0.08346232990791898","0.24234635407090116","-0.003627125788667826","0.8001443234825194","-0.24470056754076977"
"0.0573440293475855","-0.04305509235959693","-0.027258493024461868","-0.11982219657683102","-0.12426565139974508","0.34636743908208983","0.03265157483536004","0.7716481678763568","-0.20915520501835716"
"0.04086730209978733","-0.055483346151843096","-0.06062677228364356","-0.0854703281195745","-0.1525304896200786","0.4537085008628019","0.10688080560525925","0.7234025933153675","-0.19021315013607465"
"0.025985966486980212","-0.06318855188781318","-0.092371763339711","-0.07023577845819655","-0.1482632409708953","0.5032169263732366","0.18255895529409094","0.6679274385357776","-0.19097312041392295"
"0.013702317434949068","-0.07404107137142268","-0.10737582033160027","-0.1116195699896887","-0.1141587579361999","0.5494975966910791","0.2589337006170242","0.6125446324086152","-0.17696188344189465"
"0.004880003885508614","-0.09154553713882196","-0.09945970877620981","-0.1244530221500886","-0.12125249040741654","0.509041447021523","0.34428059770719033","0.5477686490631252","-0.16364197427100577"
"0.0031440406278810677","-0.09635583745740885","-0.09461049668853522","-0.08251757509812316","-0.1313593838709617","0.3814359071519811","0.4078937110133768","0.4960402110391606","-0.16941774838265253"
"0.01039792148365805","-0.10555887369638091","-0.13173133913481436","-0.02320931152444605","-0.08703312911407797","0.21313880990334813","0.4657111486438351","0.4546548220870622","-0.19008076821670755"
"0.02202589056982987","-0.0907737701043348","-0.14604147139865478","-0.009972467281885024","-0.04697651630343259","0.09091367098266089","0.492293238041164","0.4367523761807832","-0.20971578524481294"
"0.029268217593609317","-0.07750415521123453","-0.12380077081425621","-0.011794952273605731","-0.025097233955721582","0.009984383458324394","0.4995935602865519","0.43081567709616597","-0.21415139671595312"
"0.023147575092922534","-0.07720396588018906","-0.10057081444195468","-0.005585987556962737","0.024360489016929904","-0.07305871968461938","0.5006245218250229","0.43350698068119253","-0.20520989695228037"
"0.01945516295038143","-0.08547838875599624","-0.10553155014663715","0.034703927879657204","0.04403339080957524","-0.16005278933398412","0.4897576299330331","0.44675241597220505","-0.1954446874681011"
"0.017434205170148362","-0.08515119277233074","-0.10976944759293539","0.04968046064838798","0.043837140451059804","-0.2628531518926362","0.45186282743788936","0.4746153236760085","-0.1882225183115173"
"0.01324401543238074","-0.08782900625134542","-0.11872851149256591","0.06717554636922723","0.084319760137507","-0.3712863112949019","0.4090639916786679","0.5165020338841412","-0.18205286713113622"
"0.009709505660472417","-0.08671653990688277","-0.12394120796159942","0.10387267285069483","0.0712284252462941","-0.4433404854814119","0.3538657536324323","0.5602752951347189","-0.18385554931708598"
"0.010233279377693364","-0.0791442899991958","-0.10752864899194436","0.12277144748750282","0.08395358568808184","-0.5009061645553096","0.28412259874614937","0.616251771170343","-0.20310486099987488"
"0.022150094263803214","-0.07068705285949935","-0.09764228686941524","0.10495095240205628","0.05966401387621352","-0.5228209234944872","0.1959335914688477","0.6783364509308066","-0.22838980759899413"
"0.038708661154917154","-0.05119552068971254","-0.06623599716870499","0.10252482341149306","0.09234927175725458","-0.4892085855866676","0.09623682431618225","0.7383498823439705","-0.2581348808395068"
"0.06402214424215268","-0.017187912736671234","-0.01916270453055878","0.03794935677933523","0.11741905840907452","-0.37524213156852976","0.02250914240283599","0.7856851630453185","-0.26720549383317954"
"0.07608434484756466","-0.01271935044546831","0.008295525212943649","0.029359704853222108","0.09785864157801728","-0.2402491580100779","-0.022518799385511337","0.8169649708889349","-0.2636099355293814"
"0.08495865064099396","-0.011140499984606284","0.011556764909556498","0.03912198579144079","0.06205731093127986","-0.09138897154149747","-0.04982534824230629","0.8336273063197606","-0.2649174112762171"
"0.08306671065139988","-0.023242596510595417","0.01605149711531949","-0.007538251194686589","0.04173343233965649","0.04928290964903362","-0.05656839398041303","0.8308700394115718","-0.2666988469812807"
"0.07669766076276639","-0.032952526844896884","-0.0036698023507851017","-0.07289200460302349","-0.0480774329487631","0.16439970649520802","-0.03998941788878754","0.8218594494675862","-0.2383756536154519"
"0.06780217294400831","-0.04342591447441782","-0.02317755474284133","-0.09466843779252729","-0.10272837120120304","0.2790699567583471","-0.007834563418643085","0.7998804701898697","-0.20776601203734418"
"0.053723828655028893","-0.04688380472718736","-0.045767282943431124","-0.10583344489711528","-0.14144952425512142","0.3793487872530118","0.03446272348402481","0.7692866809071425","-0.18617958745708646"
"0.031642530069099895","-0.051714879393943466","-0.059245118584046325","-0.1199666090167455","-0.16023929943444726","0.46715343602592974","0.10718730768426424","0.7252891443578127","-0.16372532584986652"
"0.019367546391066897","-0.054555771506086655","-0.08515990277320344","-0.13971260330105176","-0.19171115570856967","0.51637063550395","0.1901936434438478","0.6693786316453507","-0.14359183369327996"
"0.004590195266237452","-0.08747688104987685","-0.11765251511365685","-0.11932156678512751","-0.17391938540120647","0.5319269594020818","0.2865467515528241","0.5999984083431243","-0.1250420215350482"
"0.002833049983281132","-0.10087425818421793","-0.13012870345336822","-0.0812130493908957","-0.17876581193771582","0.44300594417157557","0.3739834355452958","0.5406973808201145","-0.1349101947342908"
"0.011975019551319676","-0.10607823240061186","-0.15265853934112047","-0.02048473015805957","-0.1392524775585705","0.28122988316541997","0.42555937629420093","0.5017262494957605","-0.1613048613735369"
"0.023609728372823376","-0.09045592257734546","-0.1549303167246137","0.005443079304185749","-0.06706106518954934","0.1303942134436291","0.4593581964608259","0.47995835285216404","-0.18841863967354264"
"0.029841095096819734","-0.07905392158465963","-0.12656614346561748","0.0068370444492002296","-0.034943018710559014","0.06642884230742681","0.47448825363351915","0.46712189016475847","-0.20495984221569807"
"0.029996109009453147","-0.07784900939084387","-0.10619036558785018","0.001736589621340765","0.0125170192102286","0.01936938504123625","0.48437991163776645","0.4581376855500377","-0.21270009863696546"
"0.023266001870897123","-0.09021494013858232","-0.11452159282876984","0.0336362385738895","0.0581873495932376","-0.05199094312304668","0.4867762006190769","0.4544701247822075","-0.20016630925886159"
"0.017425539796150222","-0.0901879334859623","-0.11303667652083199","0.05294803278885289","0.05222564662906734","-0.1886196362302256","0.47532416839444164","0.4627287328421417","-0.1873040165993652"
"0.017437093628147753","-0.08258556077342996","-0.11237786107961897","0.05427373898726779","0.09208122248708715","-0.2976789316021821","0.44319717774966144","0.4941800453259804","-0.17406909335202062"
"0.009429325234532535","-0.08206516335179057","-0.1206884357988705","0.09058672837856291","0.10122601053449563","-0.37458687299559756","0.38953145009845014","0.5358424802353609","-0.16702506776594317"
