"AccX","AccY","AccZ","GyroX","GyroY","GyroZ","MagX","MagY","MagZ"
"0.0001929993718475654","0.0942269939297648","0.00888678625578026","-0.008614797796769049","-0.09838453704625763","0.2499230846808804","0.3955779002024551","-0.3318258799783946","0.2919691961947869"
"-0.004721230504431398","0.09872360159099619","0.008975282311128154","-0.017284550489554743","-0.11909852305785683","0.33930520779604256","0.40198658003619253","-0.3754144439241175","0.27659001272263173"
"-0.0048849097910629415","0.09937591612351028","-0.005287927423482315","-0.029941819473258992","-0.12049142194390541","0.41980493692256793","0.3957450831546394","-0.4198605310709517","0.25938036320490654"
"-0.00450941025114351","0.09673757390601713","-0.009294723152314298","-0.04522835761300617","-0.12800637469681375","0.46642537094489395","0.38092152806095075","-0.4844650097762196","0.23501228397325585"
"-0.002362323138270839","0.0845918512488726","-0.007626618977180238","-0.05648386317994056","-0.13176863766737806","0.5042362174866867","0.36024656964080615","-0.5512594708104794","0.20158993519476773"
"0.020988934148052352","0.05943827048556019","-0.0006778715367245402","-0.05424354486206728","-0.12615156947913733","0.528990430241904","0.3273951195365598","-0.6326714042575303","0.16153214700108842"
"0.04780922949163124","0.03149884963275308","0.004566836340894569","-0.051852074857083534","-0.09493100939579689","0.4598970540516062","0.29588113304978964","-0.701616269626885","0.12400759306690325"
"0.07806775267380578","0.01801422023610121","-0.003706563839354356","-0.07828725335822839","-0.05778464580411218","0.35770098551021384","0.2648965592449366","-0.7511811106511226","0.08729203975107269"
"0.10230095246927307","0.005710404789388782","0.00681589595055285","-0.0772811800268242","-0.0025758300081362793","0.16784588121211083","0.23237947504505926","-0.7903237466156987","0.049229786416001335"
"0.10230624797560527","0.013571522008368985","0.047084389224270155","0.0012697523405772303","0.11801738267284112","-0.007252557335198261","0.22017511953559396","-0.8012868509252918","0.04893070133891266"
"0.09521651818793307","0.02597079558491906","0.06332966276841345","0.04633201754157095","0.14229738129648914","-0.19544645980673797","0.20732989604275473","-0.7873685897380226","0.0839220210136036"
"0.07342407503013543","0.03620943308012762","0.039748613527753884","0.06239164360966029","0.16598144895342568","-0.3879590016506218","0.22307295737345803","-0.7433182825301627","0.13443471214791808"
"0.04750690422102944","0.04055542671713203","0.03164869452951717","0.08832908056789991","0.17077282965766852","-0.5073616749404936","0.2504630977063451","-0.685573989433786","0.18925063283400567"
"0.018085071039342055","0.05378349291389383","0.015323289201301575","0.10349720050691719","0.16512943520182208","-0.5904096318506442","0.2820606756692075","-0.6054153591268211","0.24347818943401714"
"-0.009169455823477005","0.06631250229476078","0.002965646335965214","0.10945662052738797","0.10095796126432821","-0.6143387041806877","0.3114012837775801","-0.5173543227049989","0.29126642798086266"
"-0.024998205660080843","0.09678535490680638","0.0006684663508202127","0.06572179447408816","0.02845302698109335","-0.5397605710465869","0.3440298232789135","-0.420005650381909","0.3190012572606154"
"-0.022302311527325935","0.10729302021080657","0.009748285544644223","0.018114789531881448","-0.020227113778367077","-0.42678913930586465","0.3690794022812184","-0.3538180519207432","0.31609212372390594"
"-0.01992414777450285","0.1183055021753192","0.003164736644845892","-0.01247946723880036","-0.011628715448630228","-0.2542862527724482","0.3862992463562175","-0.31041418527987513","0.3049949233226377"
"-0.0017653751517322568","0.11197971315778645","0.006904701793725767","-0.00013470677507103611","0.031171812435648708","-0.11226259741479394","0.38677293138740676","-0.28918718788621045","0.2998630810163076"
"0.00752198013560843","0.09704815041114724","0.01570412170086171","0.011020287733682875","0.02349890207710602","-0.013883046028191324","0.38518469334165456","-0.2815486350640029","0.30213482012643456"
"0.00810256019348386","0.09557421040853983","0.013873069129766179","0.02840369450098826","-0.01781060174186659","0.06162603965619395","0.38498964656410595","-0.2850974618501408","0.2976894025871932"
"-0.0018809134717074718","0.10575779588109994","0.0035044706262864684","0.008969631086897292","-0.05253853865940676","0.1674308841159204","0.3908689137159259","-0.297920731872914","0.30020629339985194"
"-0.0003972088793591282","0.09888252535449085","0.01628858806406951","-0.018160652625035908","-0.09664939668133453","0.2628098366152141","0.3914819178739356","-0.32243270276006686","0.3030500531492196"
"-0.003873949491279862","0.08968052783292725","0.013989136301541014","-0.0065342959124011415","-0.09449064273766469","0.3471683106712293","0.396079449059008","-0.3686861849615513","0.293145924366939"
"-0.0025548870048962033","0.09586505128290917","0.0019472704925102115","-0.015909744061568917","-0.10370722969672518","0.42162509962515743","0.38521255716701847","-0.42066528361353317","0.27690053821250527"
"-0.008023700817056167","0.0946871457417134","-0.004328411266781452","-0.03105283251100104","-0.12926285565072357","0.4797004242557801","0.3735376143394704","-0.4947289028602911","0.24967235578465138"
"0.0040962689483434326","0.0857167822022368","-0.011068981288822497","-0.0476256041155865","-0.15040045524106954","0.527655644260005","0.3505778222394717","-0.5644785207722272","0.2149261878124921"
"0.025043366359849117","0.06602477757261685","-0.01291325147378563","-0.05743891078257496","-0.12787713665584016","0.5322181854344961","0.3231040904304921","-0.6300988346541962","0.1828113147808397"
"0.05496779123342866","0.03467836362005483","-0.010934739897979719","-0.05717030364433403","-0.11038452848036027","0.46149879722988496","0.28749412161520244","-0.6977640115542001","0.14198538458589438"
"0.0821135195116044","0.012362247201437691","-0.011886821146880057","-0.07573596691973929","-0.06375592195650272","0.34219319928415126","0.25480985446314075","-0.754663974114098","0.09910344877904986"
"0.09912403379768803","0.009271543552559424","0.01085472374049209","-0.061260063942712044","0.031537986885073865","0.15740542795005738","0.22259927234226873","-0.8025137687361128","0.06700818788360004"
"0.0977703098153118","0.015105811492408002","0.048899745878897914","-0.00666908085632132","0.1159830801760347","-0.020533192478372354","0.20262090955622591","-0.8102182848814826","0.07114798296701864"
"0.09045413454868154","0.027349173585947947","0.062045075920656376","0.0369615756903202","0.13013703895969705","-0.20256450941566467","0.2021472245250363","-0.7905348292498184","0.10138826264664529"
"0.07242659420101612","0.0341590049158239","0.04653296689573135","0.06397247845192411","0.1343779613412746","-0.36674803895644537","0.2186704729659339","-0.7461415127615141","0.14664326693399665"
"0.046080968788668714","0.04936167290607169","0.02367269066128918","0.08045090059576546","0.1429842575512932","-0.5012944659318619","0.2465342983300103","-0.6836346677328111","0.1993508829783116"
"0.022514039971725127","0.056925613074490955","0.009160803913272876","0.08754347689476515","0.1545726018919244","-0.5784693645216571","0.2874662577898385","-0.5948744200854674","0.25550696630490577"
"0.0018846729401512823","0.06637274790445158","-0.0061582246865768955","0.10460436254626153","0.10566078997753357","-0.6065969454856737","0.31953752078389047","-0.5109558803582448","0.29661073509605373"
"-0.022687439260576626","0.10290547787746368","-0.01876204561019725","0.04944651249572652","0.03812434038061644","-0.5563604548942032","0.3428595426136224","-0.4360611232396405","0.31674586159732376"
"-0.028262163199380564","0.11824317913081148","0.009164128969261444","-0.007829097848674346","0.004342952448355012","-0.4269590211581063","0.36286576922502917","-0.3717732684855522","0.3171054174277036"
"-0.013405860889234723","0.11112796488284775","0.01694719698006586","-0.04167388609191116","-0.014169439602288659","-0.26416366903850064","0.37718777546216453","-0.33070450348463354","0.3010561526352951"
"0.00030564923382338976","0.10229055717165425","0.02406488204776678","-0.011444511419413267","0.019353711577731112","-0.13249067224957203","0.382509766106703","-0.3008758887505902","0.29285174232390104"
"0.0025904195113331907","0.10510963621821974","0.021523176206071238","0.01613345085625481","0.01930345233957472","-0.02561799900432641","0.385741969848936","-0.2885935179777487","0.2958589365416232"
"0.003608119546448159","0.10432228842260564","0.027766433506343953","0.03481464408359164","-0.021785150161215266","0.0766702911139971","0.38680079521277105","-0.2940157031416991","0.29760768535301596"
"0.001198182755631898","0.0952927179908467","0.01977989685206522","0.004440183046459672","-0.061635460765713926","0.17548571079577985","0.38799893970342614","-0.3062584959206431","0.2985229183758009"
"-0.00038758068602786597","0.094058721709594","0.010727628122146478","0.005692527725398023","-0.0963239082818455","0.2773711382359302","0.3936831600776978","-0.3389631115445677","0.29411018773023034"
"-0.003132578604772244","0.0961527760050531","0.00952024040038484","-0.006719336385411558","-0.12443557549065476","0.3542790796293456","0.3918162837783046","-0.38583664898377884","0.28381381622389906"
"-0.0025741433915587274","0.09812633908113065","-0.0017710095086181368","-0.023667580333774654","-0.13088072445994842","0.42490139248981856","0.3900329989550037","-0.4413381890926336","0.26549281232136357"
"0.0008862292916988382","0.09379488748784467","-0.009359365545135516","-0.03463907476887723","-0.1319218086789023","0.46897359872851924","0.37562740124177624","-0.5003489779937288","0.23855881193654777"
"0.009114483312600083","0.08535946341372593","-0.01905737667005137","-0.040796821206830564","-0.1345185359836493","0.5021005599156483","0.3519988773330393","-0.5663782644793047","0.20716305056565498"
"0.020676980684119283","0.07333734812818835","-0.020393594821978736","-0.07012987600225926","-0.1320414735316556","0.5033382705534091","0.3226582692246667","-0.634821808592625","0.16334626959982299"
"0.053819147769008445","0.03356693599300064","-0.006483295377633106","-0.07303352879413968","-0.08444118840344111","0.44628223703623665","0.28693684510792095","-0.7055872616812623","0.11956217552766177"
"0.07334993794148467","0.011203869547521023","-0.0004802269043606289","-0.06942899429387432","-0.008503069494713585","0.32806873671205666","0.2543918970826797","-0.759914654637826","0.08534390088828747"
"0.09860998455573165","-0.000440360344818123","0.03193163407637042","-0.05824184394849946","0.03741831774937187","0.16386336521884498","0.22808844593899152","-0.795033527889495","0.06205448914777621"
"0.10131213701415188","0.011282812070564125","0.056194216532077935","-0.011936476464721919","0.09780598904280584","-0.037356834994227026","0.20850017670804588","-0.8044003197785577","0.06599979721385299"
"0.09416426256695216","0.01817626015182126","0.060518854569382295","0.04009243738766608","0.1233209289468681","-0.2260009243742072","0.21042278065816739","-0.7814714686473029","0.09332277163335244"
"0.06859938735183727","0.03695211602717784","0.04419303619073334","0.07913289639414597","0.16321958415187912","-0.39584637336184303","0.2236302338807395","-0.7339646833057326","0.14693744897703465"
"0.04195913922355308","0.05417301194206702","0.023794540539131086","0.083990930872869","0.1666132793759632","-0.5141569490301611","0.24837331080403932","-0.6671174516129426","0.20041320702261559"
"0.014004642705550865","0.06256688731984732","0.0129653908024523","0.08780053103781293","0.15109514127091303","-0.5810175923052824","0.2809182588292806","-0.5987530634874173","0.24686128292895454"
"-0.0025933997782212692","0.07240561861279805","0.005101530126882199","0.10501834487401636","0.09709996641156127","-0.5796342686513144","0.3153579469792789","-0.5160482489063832","0.28868416338086217"
"-0.017208997255085418","0.0870245274194903","-0.012293675823742025","0.07661241794283863","0.035036987179580856","-0.5273349269969091","0.33776046257199643","-0.4333302416607166","0.31574891134036154"
"-0.027665215212841963","0.11018273204114745","-0.008921119035338007","0.021260092473218768","0.0021226907703699653","-0.43064788423535444","0.3632001351293981","-0.3537520885975808","0.3189685703669445"
"-0.015793652835389086","0.11020350638931667","0.004915863957085798","-0.028660399756417862","-0.009131070641962993","-0.2620037426314277","0.3802806600775768","-0.30913449681052435","0.3063677728568152"
"-0.0005666650819894356","0.11587490343951842","0.009123319586445239","-0.01202216117907118","0.037695940207759564","-0.12480958564464431","0.3868843866888629","-0.28811858205097934","0.30182429463656113"
"0.004376449374283315","0.10760982902038745","0.021594633931042932","0.021013628575764727","0.010639956329940069","-0.007465637715581407","0.3844602338821885","-0.28044045123487443","0.3030173662555487"
"0.008797715752001384","0.09845561249961303","0.012973238760686184","0.013697694369697287","-0.035266113812992966","0.08680738392561896","0.3880268035287901","-0.28416078266123457","0.3037528213631438"
"0.0017566179688454145","0.09548176455918676","0.004929081570953396","0.005184966136578605","-0.0563821737298433","0.18129567014244555","0.3890856288926251","-0.30987328602994335","0.3015301125935231"
"4.568801387917313e-05","0.09606240759051692","0.021897812949130936","-0.007644923850303417","-0.09797528324984128","0.2632466756638356","0.38905776506726086","-0.3412322498613548","0.29780380671504125"
"-0.0033251424713976077","0.09262633040332507","0.018971144103541632","-0.009152204623170792","-0.11390267515130781","0.32906375898947227","0.38986581600281944","-0.3740951774608692","0.2888149109555457"
"-0.00479825605108153","0.0973317202636573","0.0009239380438548585","-0.01750598289742361","-0.1264603047992409","0.4052436353018518","0.3859091528011203","-0.42549379886902183","0.27359916195174505"
"-0.004981191724375615","0.09054162456454215","0.006818787303586387","-0.018956846543764394","-0.13484641768019337","0.464678014750408","0.3733147037365579","-0.4848080190566641","0.25096348808465163"
"0.0066843273157881555","0.08431659113563021","-0.009708806211760108","-0.03497603712867768","-0.14124370070838568","0.5001347841968516","0.35375429833097616","-0.5623545017663975","0.21801509926439147"
"0.02387642932809949","0.0667996607593294","-0.016678206173883926","-0.049309453164989296","-0.11844754625887878","0.5130215361311854","0.328537536376487","-0.6266819345143831","0.18063763635172533"
"0.047373072333724814","0.04057516234789281","-0.01839649597667152","-0.05544120536375802","-0.09747508416533242","0.45950875267505376","0.2981102390789158","-0.6862336226654102","0.14713357033906002"
"0.0734192609334698","0.02076162778148283","-0.02652739375741042","-0.0790911492737523","-0.05396973029833643","0.35432761730141465","0.26294609146945147","-0.7445188150117188","0.10609517533525388"
"0.09606325039406474","0.014871061358095619","0.005913587278872681","-0.06496568715091754","0.03389538448431422","0.18895248791133878","0.23148783263340886","-0.7854688460309451","0.07716564009183005"
"0.09860911801833185","0.019224326016959274","0.05249741515348444","-0.015568930703370749","0.11094518987512007","0.016309327505642766","0.20092121620901726","-0.8069860820465244","0.07576010366398166"
"0.09378423777616704","0.02330752414962285","0.06452131326866398","0.0285500324401016","0.1360365162004356","-0.17856020369391423","0.19649086797612916","-0.7939781147188963","0.10018375061487288"
"0.07444273788458354","0.03585938531347597","0.05684270571245691","0.05329269714544878","0.12050401831305502","-0.34240639641381504","0.21192742722782745","-0.7548882494128502","0.13842251317576704"
"0.05251741603062107","0.04592351828406293","0.04193158506807418","0.06753272647061569","0.1320181704449792","-0.47503558534250395","0.2427169542551319","-0.6973154609566956","0.18168361694919397"
"0.025086693229839824","0.061905224330657115","0.017163015831497715","0.09549867683485402","0.1309435800672544","-0.5529142801773004","0.28253436070039684","-0.6232386490453052","0.23151478635047026"
"-0.005472229584270262","0.07394915268177238","0.0059036740684719835","0.09185370685141259","0.10056067395318719","-0.5614083727893847","0.3130731132994248","-0.5294124181790881","0.28250634047706336"
"-0.008052585397049955","0.08423660989517864","-0.0016667142741941302","0.06858886278119025","0.032859086859470484","-0.5110748068537763","0.35311343034760256","-0.4499925770915422","0.3045536502580807"
"-0.015042653755550223","0.08686664237340408","-0.006932074673481357","0.0429152192131944","-0.028668511821291577","-0.45712518434902316","0.37136423596107243","-0.38937228310528416","0.30530544881251126"
"-0.022071234887375522","0.11115912640510162","-0.015034265449101566","-0.019717418727313977","-0.05443642322407437","-0.3475513896531347","0.3950763513459015","-0.33347496305745494","0.2892561840201028"
"-0.003979859617923798","0.1214839774452125","0.0021465673266075707","-0.047088389839104634","0.05023442347925213","-0.19665504784125742","0.4052466476037895","-0.3026305131467103","0.2746124556555427"
"0.005345045623408831","0.10400028602598248","0.036518559138859895","0.0025256591930334707","0.060997080335885474","-0.08378554521188022","0.40569246880961457","-0.2871687101974406","0.2720301910555422"
"0.009030718030618045","0.1005839444695514","0.03838967760199158","0.039172048770611145","0.008037963771671939","0.0496687841419826","0.40198658003619253","-0.2817333323688577","0.28123155162389857"
"-0.0024586050715835125","0.10403560241787017","0.003489600810685422","0.01917573959045314","-0.01805112809590076","0.1479939733358679","0.3973054573750277","-0.29055922500798864","0.29195285274795146"
"-0.0002633769920545133","0.09780018181487361","0.009485337638765717","-0.025543979303063437","-0.09162107956864014","0.22688467863330414","0.39939524427733347","-0.31656196699861205","0.28825923376314055"
"-0.00020368219340065677","0.08703595331098335","0.016638648306344147","-0.028896273408278175","-0.09998325947904195","0.319283418067558","0.40468937109650804","-0.3608233568405916","0.2783714484276954"
"-0.005886241897514759","0.09903106194390093","0.005831803293066926","-0.010472134323989118","-0.10835740587471908","0.39381301352958975","0.39535498959954224","-0.4148077405167109","0.26130888993148926"
"-0.010064877803284886","0.10057459601287523","0.0037890623748731644","-0.036632929189296455","-0.12546708652138835","0.44851496995141316","0.38618779105476103","-0.4757974291126784","0.24344550254034622"
"0.0012973531469439622","0.08590375133575993","0.002760773321017463","-0.052155340980903936","-0.1510227124753868","0.4940675751882199","0.36693388772818436","-0.5359823651660646","0.21172287223274458"
"0.022539073274386423","0.06442411404617712","-0.0009254952715252993","-0.03741660736323235","-0.1445799568031482","0.5192828958280933","0.343500410596996","-0.6058771023889579","0.1701778303770396"
"0.042310568280144345","0.05079510292974906","0.0008855243535521544","-0.03667529017167137","-0.1296888625265254","0.46790576994300004","0.30741675675051705","-0.6720251228562263","0.13463083350994345"
"0.06895081640842853","0.02878987463148455","-0.0003978233429048286","-0.05190406333545274","-0.09147269515122604","0.37767423756662943","0.2793300207835281","-0.739360483140418","0.09253338315120038"
"0.08423075922515014","0.02145549101033535","-0.0009630828609612766","-0.06266760385707848","-0.019662056343665912","0.23465313304795615","0.24452810290379665","-0.7828039277751836","0.06373786417182718"
"0.09477814654556047","0.018782871118362986","0.032189790597221914","-0.03055316546889695","0.07145339516947033","0.06676860601191019","0.22725253117806934","-0.8019332914922835","0.052303988765748835"
"0.09238564641286712","0.027144546256480964","0.05174566336476487","0.014391836830886212","0.10539034741031107","-0.08647210536090233","0.21775096672891922","-0.7990572906024023","0.07004970333967662"
"0.0830888554960618","0.029998941694934153","0.04607241566253227","0.058288404816890266","0.14402534177024706","-0.25105849757985615","0.21783455820501138","-0.7733447872336936","0.10516359886563344"
"0.06347430004160354","0.039358824262583976","0.03714846104973756","0.07462530276961542","0.14728022576513727","-0.4000206131597816","0.23477576402637007","-0.7174210818565991","0.15653105226944178"
"0.0377602841117873","0.058376701294112175","0.01694203384964883","0.07836173396500266","0.15403650335158958","-0.517651661419133","0.26537024427612593","-0.6513258320478609","0.21183727636059274"
"0.014836518609372393","0.0661047588130684","-0.000796417011099549","0.08791220999134679","0.1563508216038387","-0.5724021555130254","0.29682850311216824","-0.5839772790990366","0.2637767504036417"
"-0.004827140631075334","0.08566588504922218","-0.008038636784459235","0.07681652085791775","0.09553953673165802","-0.5658981074557722","0.3249709667298854","-0.5006392166156434","0.3028702752340297"
"-0.012057913822857277","0.09459573860976879","-0.009299473232297968","0.034803091088398484","0.02585629967634637","-0.5059540824504911","0.3499648180814617","-0.4231982752229698","0.315618163765678"
"-0.01075810772313616","0.09203218404568492","-0.010167292192792374","0.0016922068648070488","0.011659500875398326","-0.4379770727177815","0.3757109927178684","-0.34871249070797244","0.30445558957706803"
"-0.01728602280173555","0.12096461874098156","-0.0024541949253995506","-0.032864727257128024","0.0014224120520575536","-0.2815886933112908","0.38515682951629027","-0.3035276143417192","0.29165867070491336"
"-0.004162795291217883","0.1192507350170195","0.02290586253175188","-0.03917458813179126","0.051100797013186164","-0.13432782313738573","0.3810887110131354","-0.28769641678273994","0.29489467317833185"
"0.002339123665387112","0.10056317012138218","0.03500266404841988","-0.015203085855587406","0.01057366200151473","-0.005997858512213227","0.38331781704226126","-0.28240615826511434","0.2966270785428891"
"0.0022149199714137594","0.09419687112491941","0.024474421552445603","0.015282380210358824","-0.019800867572859763","0.10232730456969884","0.3789989241108296","-0.2886067106423812","0.29737887709731964"
"0.001307944159608349","0.08526494012955589","0.009890044453374198","-0.004814343753019712","-0.05043961714211358","0.1922117925907757","0.37337043138728576","-0.31483372793175685","0.302804901446688"
"-0.00014206175608055124","0.08875399190457929","0.0146231687167523","-0.023570342624232243","-0.09919586474792512","0.2572037354912384","0.3724230613249075","-0.3484222520860578","0.2956791586264332"
"-0.005857357317520955","0.09736599793813658","0.019471348178343503","-0.029140811806533357","-0.11127004839073483","0.34323675923363595","0.3779122349216303","-0.38466250183148787","0.281100804049215"
"-0.004162795291217883","0.10174523053221175","0.015196689243475997","-0.047899987751424","-0.14531948559316368","0.4111166936222073","0.3684106704724805","-0.43958356469651333","0.25599726970996917"
"-0.004692345924437595","0.09254842659769044","0.01612336789072455","-0.04981104570629225","-0.16529154951769232","0.4648964342747187","0.3618069438611941","-0.5020376390666865","0.22505912485046892"
"0.009389849641874327","0.07806766720632366","0.004056099480041957","-0.03835528822267646","-0.1775021510926408","0.4912766590442494","0.33932083679238473","-0.5758110196915299","0.18418416431501725"
"0.02635568911090088","0.062422505600071114","-0.004475457221058468","-0.029617372858251133","-0.16510726564445222","0.48741791411475954","0.31953752078389047","-0.639386470555464","0.14334189067323644"
"0.051784710518111614","0.03931000454438627","-0.00038563835512064046","-0.03496255863428567","-0.11783246891572673","0.422523046558435","0.29406998440112453","-0.6917349638171554","0.10826885376436826"
"0.07343177758480045","0.024442842277071664","0.001354130070201801","-0.04412793482085784","-0.058287238185676125","0.34318822156156686","0.26445073803911123","-0.743212741213103","0.07899937482676712"
"0.08761892045842318","0.02454048171346708","0.02086828474397515","-0.0448037850396576","0.0019216538177443923","0.18515198818833187","0.23299247920306926","-0.7830018177446709","0.06172925455575082"
"0.09117047213252785","0.023343879258919013","0.04147722959137554","-0.01768794257171585","0.06406289386342547","0.020279709080891346","0.2160234095563466","-0.8011153462850698","0.055386362838914016"
"0.09231853790534819","0.025746432624691295","0.049886936414634056","0.03347738488998358","0.09729382347302162","-0.13621351169726847","0.2092803638182402","-0.7882261129391339","0.0736027686817027"
"0.08121135779646463","0.03193614966171553","0.04722689162378019","0.06254279529677079","0.1355865763540831","-0.28945179618647754","0.22190267670816688","-0.7614318110705616","0.1090533392124697"
"0.05983484296238441","0.0462974565511092","0.027061149891377645","0.08227338558748615","0.15380435353724814","-0.4431948724652048","0.23747855508668525","-0.7070648401201004","0.16208782419349357"
"0.034171856457223884","0.05587754720935294","0.012454447416383007","0.08588658483414638","0.1708733481339813","-0.5736641349868208","0.2700235031119265","-0.6390170759457544","0.21342259070363104"
