"AccX","AccY","AccZ","GyroX","GyroY","GyroZ","MagX","MagY","MagZ"
"0.007093525532367014","0.12116197504858929","-0.016806251808226275","-0.04128589800334093","0.0006771393491098947","-0.08613962230722932","0.416754407479153","-0.3072875237619767","0.27037950292516205"
"0.01472772002472905","0.09511925218363357","0.011004826267975987","-0.007660905493653952","0.012330102710227919","-0.0013642096481410262","0.41449743762466285","-0.30596825729872845","0.27137645318212433"
"0.006616929962469269","0.09358818272356077","0.018560778497996085","0.03029260921506963","-0.007659432282802699","0.07110059324407321","0.4084509875206582","-0.31041418527987513","0.2810027433682023"
"-0.0008795813652556371","0.0972122677616842","0.021174148589880003","-0.0003787637985265034","-0.040057494517235774","0.17989050453604646","0.40246026506738186","-0.3301240262408043","0.2843041196289625"
"-0.0035465909180167413","0.1019321996657349","0.030810202149791497","-0.033685952665441686","-0.09736259920374431","0.28295297052387136","0.3988936954207799","-0.36549356012049045","0.27153988765047876"
"-0.004663461344443774","0.09499668352943505","0.029847381589623734","-0.01762921484615063","-0.1102050312012303","0.36740851992402457","0.394853440742989","-0.4120768589377869","0.25795848333022275"
"-0.0002614513533882643","0.09804739655808756","-0.0045223384452451","-0.02267209724796419","-0.11337375650213814","0.44082174892846815","0.38069861745803796","-0.4712591524791044","0.24073249036566213"
"0.009020127017953659","0.08242716416963809","-0.00331375287722671","-0.03328737433127772","-0.12018507992085696","0.464678014750408","0.36333945425621844","-0.5328293183189011","0.22025415148084768"
"0.021082327623365642","0.07095453039317684","-0.005868056757139807","-0.037014178030670676","-0.11021221109239548","0.464678014750408","0.33366448024347695","-0.5952833926890744","0.19219245326438605"
"0.03746277293785113","0.06072939622427829","0.00012819638398218976","-0.06131494066987954","-0.1061436060987827","0.4265274045041318","0.3094786798274589","-0.6538588236572975","0.15705404256817604"
"0.05656029441042031","0.03952501904793787","0.009673957119160657","-0.05197723230500941","-0.05207423903072389","0.3950992618394197","0.27180678793522733","-0.7164184393445306","0.12345191587449807"
"0.06924158784703281","0.03459318879256096","0.009921209108571393","-0.04806461793292651","0.0062532821577089654","0.27513840532075373","0.23215656444214705","-0.7635294447471263","0.10124934334854399"
"0.08767197180367847","0.017879186973001168","0.028421738018873405","-0.04433396323513584","0.03371588720518424","0.12365961144404788","0.21655282223826414","-0.790112663981579","0.08411323934157834"
"0.09618911976548439","0.013687235127671638","0.03871392219218107","-0.0013330412014813716","0.070034170015816","-0.0469842822491238","0.2066890280593808","-0.7962076750417859","0.08768918550917405"
"0.091286299298303","0.01778154753660575","0.04531240286514546","0.04731209663379054","0.10943501943337319","-0.23854305883685065","0.2107014189118081","-0.7736086405263433","0.11750290122639555"
"0.06960553355495473","0.03641613784441152","0.030082200760990264","0.07237246870694956","0.13163763621322366","-0.4065974677251384","0.2300946413652052","-0.723014771660772","0.1621205110871645"
"0.038683627852255854","0.06187406280840326","0.011030641920061137","0.08838588279426626","0.17486297432477688","-0.5273591958329437","0.253751029099306","-0.6549142368278961","0.21593948151628978"
"0.007613447972255464","0.07739873319527422","0.010897701638083448","0.08736729371806949","0.1691286345808379","-0.5433523587796969","0.28782848751957135","-0.5854416648732422","0.2668656618555411"
"-0.004326474577849408","0.0792808891394071","0.017816461617077034","0.07133943838676134","0.08844580426044137","-0.5197145124820677","0.30939508835136675","-0.5088054760231502","0.3055015701745366"
"-0.013588796562528807","0.09000149151214198","0.013055642322141984","0.052777626109753804","0.0073295478433723004","-0.4707642702004272","0.3394044282684769","-0.43887116080635935","0.3197367123682105"
"-0.008177751910356431","0.09908715268395785","0.0005635515407461629","0.024366885430578897","-0.05664064981179047","-0.3878861951425182","0.36776980248910657","-0.365071394852251","0.317742811854286"
"-0.010488518309860646","0.11420256841189486","-0.004991770262761469","-0.028795184700338042","-0.043070655509564314","-0.21941678915804014","0.3852961486431106","-0.3259155662230423","0.29683954335174995"
"-0.0003586961060340622","0.11781730499334211","0.0008601217519003687","-0.05180104912831375","0.013186663726236163","-0.12885520061159994","0.3953828534249062","-0.31148279111510624","0.27856756978972075"
"0.008918068168642221","0.10698867601012722","0.019412075441155998","-0.009070370907219254","0.01470521070767576","-0.0018978813525402705","0.396720317042382","-0.3071160191217544","0.27817532706567005"
"0.006958730825729275","0.09753738631053274","0.027560114814879428","0.031030075408232896","-0.01230769382315255","0.09124615403633389","0.39463053014007615","-0.3118258003955508","0.284287776182127"
"-0.0014283883851378913","0.1051480687623328","0.021449240178499362","0.0031061009265297276","-0.043647440099835295","0.20926793055584111","0.39265219853922706","-0.3394248548067046","0.29218166100364773"
"0.003045833055902145","0.09095711152792689","0.03716704831923887","-0.035823256776175955","-0.09787715807058356","0.29404382859165007","0.3855747868967514","-0.37508462730830544","0.28381381622389906"
"-0.0017846315383947984","0.08833227263674376","0.01573737226074738","0.010073423502643616","-0.13565056549069568","0.3520220778781346","0.3880825311795183","-0.4104805465172565","0.27078808909604823"
"-0.0051352428176758965","0.09518780753259204","0.008915472608377278","-5.537620807801648e-05","-0.1479712587301772","0.4132038135211767","0.3779679625723585","-0.4626707278033581","0.24896958757072715"
"0.004130930444336","0.08315322763815293","0.008565949331666014","-0.026028242351576646","-0.15830790871100872","0.45031086381796814","0.3707233679776985","-0.5221036819726926","0.22172506169603787"
"0.01592643009447187","0.07972857634245417","-0.005483300278462729","-0.011975949198298542","-0.15490703359575944","0.4719343967247315","0.34667688668850083","-0.5938321995795012","0.1823700417162827"
"0.035780727562878686","0.06376556720921231","-0.005212958769827038","-0.0314870325803439","-0.13614597798109437","0.44798105555865353","0.32190594593983674","-0.6551517047912808","0.14891500604412372"
"0.06100177999413403","0.038166376677669756","-0.005000444321862082","-0.0475899823804076","-0.07282173120109402","0.39281799125217415","0.291227874213989","-0.70722315209569","0.12185025808462428"
"0.07383712452404681","0.032212448492366375","0.00021411087412157056","-0.04482111453244734","-0.011105301382687218","0.29622802383475755","0.25327734406811675","-0.7554423413274144","0.09671240250702404"
"0.08828105131381445","0.022970979709281206","0.015731383029463628","-0.04769203383794716","0.03372067379929436","0.13652452142595053","0.22719680352734112","-0.7845453595066713","0.08098510361727386"
"0.09645559927231388","0.015118276101309542","0.025397382745793888","-0.0029679825712331446","0.08288138860741211","-0.043040596393513195","0.21137015072054569","-0.7956140051333243","0.0837749299920846"
"0.09147443419599595","0.019224326016959274","0.02610349246162692","0.05119101476989341","0.1296416264692983","-0.22726775761520954","0.2130977078931186","-0.7723553373862574","0.11416883807196443"
"0.06617019417435846","0.045616057931158215","0.019377792255186918","0.06431136631092342","0.17110549794832272","-0.3921575102845949","0.23065191787248665","-0.7295583333184833","0.16172826836311374"
"0.03752439337517124","0.06558955497847133","0.020269568140816346","0.043335940788145254","0.18261725678319182","-0.5157344233724053","0.2627789085172669","-0.6645316893449761","0.21005584065552907"
"0.015986124893125727","0.07197247345346947","0.015298919225733194","0.05845977424558878","0.17923074145027296","-0.54395907968056","0.2928439760851052","-0.5894654275861495","0.254673450516298"
"0.0014417760469129638","0.07757843130693812","0.024266657184464316","0.06844637584047464","0.10733370461902493","-0.54036729194745","0.3229090436529438","-0.5014967398167547","0.3056486611960556"
"-0.015475922455457262","0.09496759944199812","0.018231783827822933","0.048627212586611714","0.027579473555994133","-0.49607666618443863","0.3456180613246661","-0.42736715724683433","0.32135471360491974"
"-0.017045317968453856","0.10603513342915924","0.012562047054273915","0.012169810755402117","-0.041517405720826246","-0.3654617906466155","0.37136423596107243","-0.37294741563784317","0.31636996232010856"
"-0.006223228664109125","0.11078518813805532","-0.0027864939990396046","-0.05295827414682843","-0.03734349565679055","-0.19520134456278926","0.3878596205766058","-0.34212935105636355","0.29355451053782516"
"0.006444585301839588","0.10881162506197782","0.0007079126672063214","-0.05833523065964415","0.029991916987501005","-0.10137559756970524","0.3880825311795183","-0.3322876232405315","0.2792866814504804"
"0.00967099288714735","0.10098488938921767","0.023640885777920277","-0.0014189184657505145","0.038670012109171564","-0.03259043559704596","0.38863980768679973","-0.32243270276006686","0.2754459714441505"
"0.0044476980049347","0.09813257138558142","0.03581843865431063","0.027622904575850656","-0.0011221413768889828","0.04893343841013644","0.3865778846098582","-0.32168072087601535","0.2843204630757979"
"0.001447552962911728","0.09406703144886168","0.03662595225153412","-0.0018711219526027154","-0.06643880795523209","0.16965633638028654","0.3869679781649554","-0.33528235811210505","0.2894686488289635"
"-0.002439348684920988","0.09606760117755925","0.04079363112416076","0.014437086062059415","-0.12157079891574037","0.27741967590799926","0.3862992463562175","-0.36727456984587564","0.281247895070734"
"-0.0032384887314161797","0.09569470162792142","0.030843246184460486","0.015530769607011725","-0.16829753061885563","0.34690135347484946","0.3929308367928678","-0.40930639936496555","0.2643324275960469"
"-0.0009373505252432446","0.09160319375599017","0.018246034067773937","0.014516031529212662","-0.1918882596906446","0.40623865757926747","0.3935995686016054","-0.4617736266083493","0.23855881193654777"
"0.007743428582227581","0.07927777298718172","0.006870625132973368","0.015355549179915492","-0.18229831839099375","0.43429343203518045","0.390534547811557","-0.5154281936686564","0.20801290980109824"
"0.01351649330365561","0.08580922805158991","-0.012572484866261648","0.00016692267443033613","-0.15449777979934312","0.47261392413369824","0.3690515384558541","-0.5709033484482463","0.18057226256438358"
"0.02960905563753619","0.07465755795434337","-0.011081372801823374","-0.02150428198385578","-0.11670761929984555","0.4711092562995576","0.34425273388182603","-0.6338587440744539","0.1511540582605799"
"0.055064073166741334","0.04454825643525943","-0.014257730634380248","-0.049754243479925894","-0.07061750461337792","0.4254353068825782","0.31014741163619675","-0.6946901206948315","0.12019956995424422"
"0.07702983343269512","0.02136616131320763","-0.02193633819058731","-0.04768914558914887","-0.0024994838320796632","0.31870096600272935","0.2632247297230922","-0.75701226841868","0.09103468907638991"
"0.09144786038240167","0.018272860870808212","-0.0030254436747397537","-0.0323833524574131","0.07071147308239976","0.15559739966548516","0.2283392203672683","-0.7905084439205535","0.08379944516233777"
"0.09606445391823114","0.023590055284724475","0.03403819128651867","0.001097805262119059","0.11470745284568433","-0.019211997044652717","0.20863949583486624","-0.8007063736814627","0.09732691610803683"
"0.09260391755568696","0.027141430104255574","0.041939846076741435","0.029929652616084577","0.12508239557939693","-0.20841329889998564","0.21215033783073997","-0.780547982123029","0.12415468408842227"
"0.07095925753733094","0.03907109954044004","0.029514875990767","0.04765964923918471","0.15130814470881396","-0.37817866072870754","0.224939833672851","-0.7361546656347246","0.16435956330362061"
"0.03949528455008171","0.0575156045624973","0.011075065494169263","0.06430558981332683","0.16293956839643636","-0.4938439332692622","0.2571782796190873","-0.6656926438326346","0.22180677893021508"
"0.020763634424100685","0.06429427437011939","0.00932348382645266","0.049511016718888315","0.1682335414822431","-0.5560934976978233","0.2920637889749112","-0.5907846940493977","0.2706083111808583"
"0.00347332483981042","0.0729218611648036","0.020025661859915847","0.059822064928782025","0.1338681890685455","-0.5581806175967927","0.31925888253024975","-0.521101039460624","0.30453730681124525"
"-0.018874674701394686","0.0862122504060731","0.026161319522297655","0.04883131550169085","0.03835170360084775","-0.5176759302551674","0.34199576402733595","-0.4449793645311988","0.3268461117416297"
"-0.014541987702324297","0.10598527499355308","0.003993315814170871","0.02966971022423851","-0.021202382328306613","-0.416717572351536","0.36255926714602443","-0.38083662908806787","0.3231688362036543"
"-0.015706999095407657","0.12382109161425166","0.0008053925694798496","-0.03717303171457661","-0.07014841839058492","-0.2167714860302767","0.38270481288425157","-0.3289234937592484","0.3023145980416246"
"0.005981469202605621","0.11720446172234965","0.009191824000818393","-0.0628168300449901","0.006645304215328833","-0.08372244623819046","0.3903116372086445","-0.31703690292538145","0.28546450435427917"
"0.011254830690140848","0.10036892996599979","0.02309070260068155","-0.010280547153702576","0.0020293521852223773","-0.020221580623689034","0.3964416787887412","-0.3161002237364752","0.28074124821883517"
"0.010650180148937254","0.10706138622871957","0.025219358009014693","0.03728409680612921","-0.01954023752356304","0.07753183479322281","0.39660886174092586","-0.3176569581631081","0.28798139516693794"
"-0.00251637423157112","0.0920539971112626","0.022825317697246213","0.027697999044606184","-0.04815880504863536","0.17919884270906244","0.3931258835704164","-0.3330264124599505","0.2913318017682045"
"0.0009536266450177079","0.09034322953952592","0.028246604635127744","0.0078036450470278","-0.09970085042654411","0.2582715642767576","0.3955500363770908","-0.3654012114680631","0.29489467317833185"
"-0.005953639250833629","0.0897064957681388","0.0206677487585777","0.012218910984973038","-0.12655125008733342","0.3409554886463904","0.3987265124685953","-0.404398728121682","0.2842550892884562"
"-0.0040953979378990125","0.09196674484895183","0.023842041338967765","0.01833814743894917","-0.1509868130195608","0.4123301354239337","0.3951042151712654","-0.4486865032929264","0.26088396031376765"
"0.00544036473738838","0.08104670873379227","0.0129653908024523","0.011190694412781959","-0.16581807486980693","0.44084601776450266","0.3912311434456591","-0.5051247225906875","0.23926158015047194"
"0.015354515410594578","0.07848419288711686","-0.007984320652472076","0.005900481638874871","-0.15790104821164744","0.4836805133654425","0.3748750779569462","-0.5696500453081604","0.21007218410236453"
"0.030359091898041927","0.06796302425680668","-0.011963235477052102","-0.007771525422628441","-0.13613401149581905","0.4867869243778619","0.33792764552418075","-0.6446371510791922","0.1756855719605851"
"0.05548097393798523","0.04318961406499131","-0.03422458858311879","-0.04344727085406094","-0.1127850054265918","0.4283232983706869","0.3015374895986971","-0.7116031167536744","0.1421324756074134"
"0.08134422686443611","0.030245117720739612","-0.04935049545284997","-0.05356095539607152","-0.00865983045182043","0.30625105311701706","0.2558129521762476","-0.7608645264913649","0.10892259163778613"
"0.09490756872031936","0.030141245979893427","-0.009409757698005729","-0.03414807247316801","0.06140872742935689","0.15858003961412848","0.22708534822588472","-0.795416115163837","0.0963266971617075"
"0.09832999669365838","0.027990062226968915","0.020491995799181997","-1.571092458150653e-05","0.09781795552808117","-0.029600514997592253","0.20415341995125025","-0.8050203750162844","0.10763145933778585"
"0.0944620625866883","0.024394022558873955","0.0187836192067951","0.024968603930222558","0.14064361303143832","-0.22268094760468396","0.2061596153774636","-0.7856931213296973","0.13443471214791808"
"0.0719259281477902","0.04300991595332741","0.010644687595127307","0.03582649391259241","0.1875522353107386","-0.3903373475820054","0.2283392203672683","-0.7379620606893748","0.1793465040517251"
"0.04122258243371111","0.0566711273094178","0.00836229481549668","0.01886958521783445","0.21275604659764225","-0.5297132729282928","0.2611628066461504","-0.6725924074354229","0.22684056055553262"
"0.022833695990323217","0.054005778439304666","0.015942658326128494","0.02751989036871166","0.21543893259637165","-0.6003355857887658","0.29002972972333363","-0.5970116317559296","0.2712130187137698"
"-0.005144871011007158","0.07286680914215513","0.028641274324205518","0.06779170611286232","0.16257818054112136","-0.5980300463654857","0.3141876663139877","-0.51273689008363","0.3179879635568177"
"-0.030293711992278004","0.10108772241265541","0.04144212030453974","0.027203145750499237","0.02403500061744088","-0.5187437590406867","0.3351133991624091","-0.4232246605522348","0.3421108910859368"
"-0.014936743628906252","0.10315061518586066","0.01761737130819636","0.011221502399963714","-0.0465983753687321","-0.37514505622439165","0.3592156081023353","-0.3627890638708315","0.33281146983656773"
"-0.011643901509612744","0.11837821239391154","0.005795454854931035","-0.025159842212890922","-0.07612926773119572","-0.2101994852321268","0.38120016631459147","-0.32592875888767486","0.3148009914239056"
"-0.0009662351052370483","0.11187584141694028","0.007974089365701027","-0.051458310270916734","-0.01711917822265793","-0.09118996708601435","0.3864664293084018","-0.314345599340355","0.2972644729694716"
"0.009492871310518888","0.10629689021609165","0.0160293989171346","-0.011524419636165946","-0.011421216593955976","-0.0067999435431543385","0.3923178326348578","-0.3111265891700292","0.2895503660631408"
"0.010989092554197867","0.09523351109856436","0.019991378673946767","0.03554055728156175","-0.03344720805114254","0.08422760665514877","0.4001475675621635","-0.3180527381020826","0.2838301596707345"
"0.002649151490653923","0.09426750390869483","0.017929843961035016","0.01978516008689224","-0.04630399983095893","0.17407569142217386","0.39694322764529477","-0.3309023934541208","0.2869681014631403"
"-0.012982220382658945","0.12987681410558433","0.01640424218541098","-0.011871009491960691","-0.10027524171976003","0.3072703442304672","0.39886583159541567","-0.35989987031631776","0.29028582117073587"
"-0.009833801163334457","0.08982802570492886","0.029022519874199015","-0.011517680388969935","-0.15167608257141987","0.390463914156825","0.39964601870560995","-0.40761773829200776","0.2738606571011122"
"0.0074613225176214494","0.07548541572888748","-0.005528942351349275","-0.006727327207086826","-0.15020899147666422","0.4404819852239848","0.3911754157949309","-0.46319843438865743","0.2469920305036381"
"0.004590195266237452","0.07515406487558814","-0.0017784444164186607","-0.022419856852913568","-0.13957557266100445","0.4643382510459246","0.37465216735403367","-0.537090548995193","0.21656053249603674"
"0.01363299444296395","0.07831488194953758","-0.005114239716253423","-0.034440748351394684","-0.133317100862006","0.4789480903387098","0.34634252078413186","-0.5999799812982382","0.18024539362767464"
"0.034015879725257346","0.058368391554844475","0.0015402092904315625","-0.04992753840782327","-0.1301507688581532","0.4734876022309412","0.31917529105415726","-0.6584234856201366","0.1462837111036168"
"0.06666893458891812","0.027892422790573503","0.0022386775732473854","-0.0372404241865367","-0.07586361175808334","0.40497667810547205","0.28259008835112537","-0.7218010465145834","0.11145582589728033"
"0.08740267123620292","0.022226219327414053","-0.001968860666198726","-0.04402203236492056","-0.009608772734154235","0.2664016243483241","0.24416587317406377","-0.7696508411365984","0.09076338785892153"
"0.09605061820441411","0.02377079211379684","0.021952335606334774","-0.02071675281152216","0.0394143274932972","0.08431982823207997","0.21003268710307021","-0.805468925613789","0.0710074293242338"
"0.10140187177599931","0.020031409443334144","0.03272675616059304","0.011423679815843983","0.09603016262794663","-0.08574889404707343","0.20437633055416246","-0.8014715482301465","0.0846640134999329"
"0.09468679424723339","0.02267910011750342","0.019416825521139665","0.05723997050311116","0.16451435785867002","-0.29039828079182406","0.21223392930683213","-0.7728038879837618","0.12350094621500442"
"0.06403273525481706","0.04016486897155038","0.014029408718793848","0.07593367947524059","0.19548840834533862","-0.455183677466261","0.2327695686001564","-0.7152442921922396","0.1823700417162827"
"0.027741186131270284","0.06262090062508734","0.004204797636052422","0.07073964538631654","0.20599019582296976","-0.5716740904319896","0.26570461018049485","-0.6389774979518571","0.24195824887832063"
"0.004500653068256668","0.0637821866877477","-0.0025324679825217272","0.06701380443652301","0.19108474176401655","-0.6167413189481059","0.30318145529517754","-0.5431723673907676","0.2990622521213707"
"-0.017045317968453856","0.09046891434594981","0.005777900211513132","0.051790807770338204","0.09831576131553497","-0.575702717213721","0.32594620061762797","-0.4594385249683998","0.3360147854163152"
"-0.014262770095717522","0.08165747456996784","0.015988506924231725","0.023612089744625895","-0.03219790698839791","-0.5044979522884194","0.3486552182893502","-0.3930794218670118","0.34238872968213935"
"-0.03401982281147855","0.11991551415843509","0.009321645752024196","0.0026918297738950632","-0.06401679133550495","-0.3437169135596794","0.3657636070628932","-0.33520320212431015","0.3244109381631482"
"-0.011952003696213324","0.13815539185102532","0.010852782403455288","-0.05040024846114332","-0.014691657019704134","-0.14243118748931421","0.37963979209420323","-0.3095170840848663","0.30004285893149746"
"0.008785199100670731","0.10534542506994059","0.022353820627563026","-0.04487984225801256","0.021541185086061752","-0.037196660676399144","0.3889741735911687","-0.3000447508787437","0.2904819425327613"
"0.015328519288600165","0.08987996157535194","0.01879559766936261","0.01790105912080802","0.004876179032223793","0.05062983004894986","0.3850175103894699","-0.3064168078962329","0.2908251549163056"
"0.008284533047444823","0.08899393562593397","0.018184076502769573","0.02865400939684002","-0.026216100328965094","0.11144510626787055","0.3851289656909263","-0.31260416760886733","0.3008436878264344"
"0.0038266795350679365","0.08804766406682521","0.014430067639155377","0.008381968731405313","-0.07851777819215192","0.17595409933124623","0.3862713825308532","-0.33181268731376207","0.29731350330997786"
"-0.003979859617923798","0.09843587686885227","0.02243828944118564","0.0029316506991130388","-0.13459512148941138","0.2629797184674558","0.392707926189955","-0.3631452658159086","0.2875891524428872"
"-0.0116342733162815","0.104257887943281","0.016827618879607445","-0.009129098632784475","-0.1508264621168713","0.3793973249250808","0.390534547811557","-0.4067470224262639","0.26915374441250356"
"-0.005712934417551954","0.09659007603401557","0.00780267343585563","-0.028152067967918904","-0.1980031336663391","0.4312598275308646","0.39039522868473664","-0.46549395803470944","0.23444026333401521"
"-0.0006542816413039712","0.09023312549422896","0.0033861316771281397","-0.04457272513579444","-0.17985236880071595","0.5135797193599795","0.37877601350791673","-0.5279744177341475","0.19773288174160242"
"0.023916867740090813","0.06509928036167732","0.0029499504194974435","-0.03307653216900259","-0.15744392847412977","0.5097452432665243","0.3484323076864377","-0.6014047890785463","0.15479864690488443"
"0.05123494067889624","0.037328131729041036","0.0032574664671357525","-0.029075344833772124","-0.07820186298088316","0.44761702301813566","0.3173084147547643","-0.6640567534182066","0.12222615736183959"
"0.06291297637039066","0.03145833965382307","0.003153790808361789","-0.020867904498632645","-0.0042587964972589315","0.3774315492062842","0.2754290852325575","-0.7294264066721584","0.10383487663791162"
"0.07036808646679112","0.03554880880834587","-0.0005624239405997467","-0.04190879699417204","0.013330500879245649","0.2375241363508407","0.23778505716569023","-0.7731337045995738","0.09038585423702272"
"0.08854996675355675","0.025169944462994965","0.008145711820763105","-0.02698328995421106","0.05806529144342921","0.09987372524660817","0.21580049895343378","-0.795086298548025","0.08772350674752848"
"0.10070392404141572","0.012656411971514089","0.019387911990804297","0.026968234848238355","0.12400301860756201","-0.07531086766862347","0.20014102909882295","-0.7944662433102984","0.10388063828905086"
"0.08837088235759519","0.022165973717723268","0.028752384890780008","0.06275845120704307","0.1873272653875624","-0.29449971408165915","0.20515651766435677","-0.7658645463870758","0.15113771481374444"
