"AccX","AccY","AccZ","GyroX","GyroY","GyroZ","MagX","MagY","MagZ"
"0.06859938735183727","-0.033305690763773925","-0.006915965706580224","-0.0855444598387306","-0.05872042495264313","0.25222862410416047","-0.027952245331506257","0.8106456845299758","-0.20976644993000285"
"0.05197920002340322","-0.048778425280221784","-0.029354723973776062","-0.08203331204960992","-0.11546310483121106","0.36570970140160775","0.0229828274340253","0.7746956734064604","-0.18067674890759164"
"0.03710652978459423","-0.056367294666444134","-0.039036626131790784","-0.06273981007703572","-0.1593178800682467","0.4528348227655589","0.08386528585453203","0.7347614775639352","-0.1670152616978419"
"0.025338951895119026","-0.05430544061064734","-0.0747820106349731","-0.07938863889997613","-0.17098280991464007","0.5148902365058439","0.1718313825289215","0.6788377721868409","-0.1668943201912596"
"0.010291048537680971","-0.07949122161362207","-0.09382157036081303","-0.12924751515524927","-0.15668286001061868","0.5176811526498145","0.2590451559184806","0.6194048180175064","-0.15552254988315592"
"0.00014196994719184659","-0.10702346524231211","-0.11655380096091285","-0.10357098333845514","-0.17293813360862928","0.428881481599481","0.3434725467716321","0.5571618262814529","-0.16457355074062618"
"0.005035980617475145","-0.10989032528966688","-0.13012250769686778","-0.04707779959351091","-0.15004864057397477","0.2731968984379916","0.4015128950050029","0.5177421443595945","-0.17937090750543946"
"0.017594033179447407","-0.09836367820796563","-0.14919924196171033","-0.0016931095516681358","-0.08360114113711282","0.1261495940211903","0.4334448388722349","0.4968053855878446","-0.19335436061784747"
"0.03501913747037542","-0.07208205033906362","-0.14210097026437746","0.022953569018615876","-0.049161596514708146","0.042157579389296554","0.4544820270221124","0.4822406838335836","-0.21672222090316887"
"0.03465615458178664","-0.07878800992809339","-0.12224770118481358","0.017198251913224227","0.020787296513715855","0.02555793823004058","0.4651817359619176","0.4764622967245561","-0.2206936784841824"
"0.026274812286918234","-0.09016196555075078","-0.116442277343905","0.016452120973666093","0.06017378614894266","-0.05528179728932851","0.46091857068121417","0.47954938024855714","-0.22170370349861301"
"0.017633508772105615","-0.08712475584840829","-0.09791696540760124","0.025613646161840555","0.06616420867777371","-0.1798804283741925","0.43918478689723445","0.49209560431404814","-0.2073378137302555"
"0.014160619437517397","-0.09159124070479428","-0.10716929511491907","0.040776952352860704","0.08793603198771223","-0.2789919278555965","0.4104014552961437","0.5152223454147904","-0.18237319868911098"
"0.011440654821434323","-0.0815873533438981","-0.096568355742673","0.06049791514758177","0.06489097464447842","-0.3679372119221372","0.3690794022812184","0.5546024493427513","-0.17500884154505877"
"0.013029306721093462","-0.07949537648325591","-0.09958568915838535","0.06778592961526575","0.07748450374823751","-0.4271774406824171","0.3046025103887454","0.6018321887270394","-0.17449238862505867"
"0.018237196493976086","-0.0706828979898655","-0.09549235936376395","0.0645559047091786","0.08014585007347129","-0.4405981070095104","0.22037016631314255","0.6645501163898623","-0.1845926387693646"
"0.03102440005723252","-0.059985147400116796","-0.08278279752920281","0.0594023061034306","0.11120366595706722","-0.4460100574452099","0.14196136173863141","0.7169249949808185","-0.19155331277658127"
"0.04339662848791132","-0.042484836502351374","-0.053545022603645166","0.06989435123801713","0.10568711624513931","-0.3997293871273673","0.07433585758001796","0.7603948249448491","-0.19660180350405068"
"0.06391719693484185","-0.02549245841732381","-0.024323769695422","0.08301951652704428","0.09209318897236249","-0.3268258036796488","0.012812531176137294","0.8000123968361946","-0.21564845644608005"
"0.0780687154931389","-0.014932857242900536","-0.024678993068113664","0.07603861918157843","0.08306327918359716","-0.19179642686714515","-0.03840117984303499","0.8255797808939461","-0.2374113902521606"
"0.08499523777565278","-0.01623125400347786","-0.011938452451050355","0.027801013251745173","0.057084039650852014","-0.050826038993389396","-0.07186563410529065","0.839128647471506","-0.252104148957227"
"0.08497983266632275","-0.02936479691606962","-0.00012996013686931206","-0.03450332707535763","-0.001341128057427553","0.08044652200096948","-0.07532074845043618","0.838178775617967","-0.24182412089773112"
"0.07704235008402578","-0.030243551843628355","-0.007519225864506014","-0.07402227263275414","-0.04862071138026316","0.22950571292503305","-0.05038262474958776","0.8233634132356891","-0.22187694403506875"
"0.059851210891047564","-0.04128927276521177","-0.030418328839684247","-0.09062007572692476","-0.09700599794253942","0.3517551206817548","-0.005800504167065484","0.7944582850259194","-0.19500178005886049"
"0.04165199985628564","-0.05257285997333297","-0.04810927890059595","-0.07677573648712352","-0.127257272718578","0.45506755568073537","0.0656423440664264","0.7478090228854605","-0.17475061508505874"
"0.024769925669241116","-0.053399679030468605","-0.058906417228689154","-0.06619126739099174","-0.15237013871738914","0.5175840773056765","0.16163322244566952","0.6858166917774244","-0.16143560894822048"
"-0.0031229504114409644","-0.08364505253006105","-0.07597159588305681","-0.08007507936436961","-0.1924147850427592","0.5058864983370345","0.24489033263352986","0.6280460133517825","-0.16996688819632352"
"-0.004730858697762661","-0.09774771878474774","-0.08181419426296799","-0.060753657653411945","-0.2121523058558913","0.4318908172677623","0.31128982847612396","0.5794178515164513","-0.193646908316202"
"0.02060862051146728","-0.11690166779678446","-0.11524856159148765","-0.058093580510187266","-0.1707123673474176","0.3124881439778905","0.36604224531653395","0.5392066097166439","-0.22053187836051147"
"0.030927155304586715","-0.10776095460232006","-0.13580814691210125","-0.07586690086526174","-0.08700440954941716","0.13478687276587842","0.4150825779573086","0.5140218129332346","-0.23366874092684334"
"0.02697093066476888","-0.09560588348849935","-0.15563250246132979","-0.03422316694192354","-0.046548116130575704","0.04571296386835474","0.4374293658992976","0.504852911013659","-0.23647981378254018"
"0.03675606354733609","-0.07133625123978801","-0.13015555173153676","0.0041393237966378445","-0.0017264488832932343","0.04301426930131535","0.4481290748391028","0.4952486511612116","-0.2352050249293753"
"0.02588294481833565","-0.06768204339681919","-0.10337542688448541","0.024434277902538992","0.05032058217323453","0.006049677072046563","0.45916314968327726","0.486106134570901","-0.22554604784962648"
"0.016913319910926806","-0.08072417917746631","-0.11796436819084545","0.01465081647313284","0.08412350977899155","-0.10396265549098578","0.4546213461489328","0.48580270328435393","-0.20884304518380015"
"0.010541381564293927","-0.09682637644344208","-0.12013288296599807","0.030953055440278505","0.11801259607873098","-0.25234474588968603","0.42514141891373985","0.5099848575556948","-0.18628091682746623"
"0.0072360227936697835","-0.09420673113930124","-0.10049233485961584","0.0859000633285384","0.09092047341537995","-0.3667723077924799","0.377717188144082","0.5486129795996042","-0.17492712431088156"
"0.012449689482551155","-0.08229471989906063","-0.09406733536866366","0.1182561518661768","0.07591210758305893","-0.4432919478093429","0.31368611745743447","0.5962648842521316","-0.18538202725151667"
"0.019743045930986327","-0.0728423914820577","-0.10763810735678539","0.0846484888492796","0.09419689708376579","-0.4869758526714911","0.2405993035274618","0.6509616718184051","-0.19939326422354495"
"0.031245848503851672","-0.05844472948336786","-0.07659530203743403","0.03770481838108005","0.11743820478551506","-0.4669055252709374","0.15820597192588795","0.7087851209025767","-0.19880816882683597"
"0.04614066358732257","-0.0424380942189706","-0.04387964246296495","0.031165823101752508","0.11206525289689112","-0.4047287673504798","0.07787456340125563","0.7590227878230709","-0.19500014571417695"
"0.061457193538702985","-0.02849435172777858","-0.030907793603218697","0.050479542815914755","0.09286383062409384","-0.3173609576261833","5.089915939053416e-05","0.803139058354093","-0.20218962797708986"
"0.07445814299391357","-0.017238809889685864","-0.02698174923410906","0.06603179984510457","0.06721247278789277","-0.20892051757310728","-0.04990893971839845","0.8309228100701016","-0.21924401474987826"
"0.08181311987966884","-0.020393394659184532","-0.019018136878881937","0.04716287044587891","0.05122285516299454","-0.06455491953812119","-0.07050030666245125","0.8451840805378155","-0.22812831244962697"
"0.08426156944381019","-0.02570124061642464","-0.00785049231206266","-0.00043720269921189534","0.028936472986216752","0.055418071398561995","-0.07027739605953841","0.8448674565866359","-0.23219783071165317"
"0.07935022802553061","-0.030958189420650116","-0.004970911215876669","-0.05557021381008162","-0.021345740821905084","0.18104084736408302","-0.05364269231718502","0.8306985347713495","-0.2139307601836746"
"0.06576773569311148","-0.04266037974438144","-0.01817757924698945","-0.07861940197003167","-0.07612926773119572","0.32035124685307714","-0.012376366952987593","0.7967010380134415","-0.20012381629708942"
"0.048874107674069425","-0.049526301814314326","-0.036106033307084534","-0.07725903678603731","-0.14043237300671824","0.4430302130076101","0.050177920989363835","0.7538116852932402","-0.18249087150632617"
"0.03197181428102924","-0.0587023314006664","-0.06453835988758551","-0.08316550557853944","-0.14024569583642305","0.5119779761817007","0.12956195945161753","0.7072151938113113","-0.1633837478110057"
"0.012746237837154206","-0.08092361291989097","-0.08078156817956199","-0.09922898264502651","-0.1619074274818285","0.5227048017089615","0.21624632015925913","0.6460671932397538","-0.1539176234039151"
"0.010136034625047566","-0.08553655693087012","-0.0972540194620546","-0.10603562231299556","-0.15617787433199967","0.4679300387790346","0.29496162681277494","0.5890484966981637","-0.14835104541176197"
"0.002322755736723944","-0.09414233065997661","-0.12319358667721347","-0.08452490801293439","-0.13403748327558093","0.3714614155417906","0.38002988564930035","0.530763304351855","-0.15726639566049808"
"0.018192906804652256","-0.08908377688076737","-0.1330820140519094","-0.010858196913360487","-0.0903717785058955","0.24248711331990142","0.4288751715125264","0.4932169808078091","-0.17485848183417269"
"0.020358287484854326","-0.09004147433136918","-0.12375327001441953","0.023164411180891013","-0.06435903281437942","0.1563837099530038","0.4515563253588844","0.47379737846879466","-0.19184749481961932"
"0.02498270874186213","-0.08471181530855136","-0.12355707105857239","-0.0006765422496301562","-0.024647533439074613","0.07464627018871758","0.4774418191221111","0.4552352993308915","-0.20642911808620468"
"0.021239267174665306","-0.08589491443678944","-0.10209910104539559","-0.002191139919453198","-0.0014844865510260266","-0.03182111349475146","0.4799774272302423","0.45213502314225806","-0.20459048031721697"
"0.019791186897642664","-0.09062523351492476","-0.09924492255086137","0.022595426167627972","0.029326580406192564","-0.14325390103088464","0.46994645009917496","0.46264957685434677","-0.2118992697420286"
"0.0208791727440759","-0.08534854907993851","-0.10241714987908462","0.03211220595799205","0.0512970473717016","-0.2599651604045275","0.43937983367478306","0.48826973157062814","-0.2007938976173427"
"0.010694469838261084","-0.09108538532687335","-0.12056039016452816","0.04730054363859738","0.07693165212851719","-0.3616273145531602","0.40078843554553717","0.5215680171030146","-0.1844193982329089"
"0.010415252231654326","-0.08628131731273726","-0.11560791546851296","0.07483518218229111","0.05637562372255237","-0.4471021550667636","0.34168926194833094","0.575011501529202","-0.18071760752468025"
"0.018862066241175347","-0.07652152854282962","-0.1306780605297402","0.11635953515530002","0.11326429472147934","-0.4931644058602954","0.2698563201597422","0.6322940513634421","-0.1958401988815189"
"0.031082169217220127","-0.06344199893547788","-0.1025472607655938","0.08199033720525378","0.11151958116833598","-0.4733610356561216","0.1743391268116884","0.6987718884465224","-0.21032539581177512"
"0.04669813598120296","-0.04602997901743171","-0.07689476360162177","0.07361537843981349","0.1383101484027486","-0.3999963443237471","0.09657119022055119","0.7449725999894767","-0.21928323902228336"
"0.05423316008225295","-0.03293694608376996","-0.04322702277825235","0.06238779261126257","0.1505781891070187","-0.33541697163587125","0.03933889292273826","0.78261127218595","-0.22185406320949907"
"0.06435239127341515","-0.028707288796513266","-0.0061196044710575105","0.06117280261678211","0.11512867312737604","-0.2369728651454168","-0.00554972973878901","0.8098277393227619","-0.22804659521544973"
"0.07410189984065667","-0.024440237682551942","0.010456047462210698","0.06452605947159629","0.06219851545752879","-0.11498070705066095","-0.03374792100723407","0.8263317627779976","-0.2442266075825418"
"0.08239851403420992","-0.022308789560388204","0.009688186706589993","0.024946460689435665","0.025155063639211935","0.01574531975620036","-0.042580753647646304","0.8260283314914506","-0.25620635411292403"
"0.08239658839554367","-0.02409434478553414","0.010141364989553552","-0.028059644006373632","-0.007390425693813241","0.13877909629355809","-0.03750953743138458","0.8163844936451057","-0.2528886344053284"
"0.06982216790490824","-0.03805782290748693","0.0008167514563973156","-0.07935783091279439","-0.05499406143790483","0.2647028058259072","-0.005828367992429743","0.799009754324126","-0.23254104309519752"
"0.05537121253400877","-0.04740108599660136","-0.028144486204024224","-0.09310685794225208","-0.1319242019759574","0.38539172742560895","0.0372769698457964","0.7648011749320984","-0.21288151089683896"
"0.03775450719578854","-0.05238381340499291","-0.05627115546383702","-0.09966221996476994","-0.15539047960088287","0.472832343658009","0.1104473752518612","0.7176373988709726","-0.19065115451126463"
"0.0217967395685457","-0.0565179086906711","-0.086494055672964","-0.08096562274384222","-0.16322134756505993","0.5373874475098502","0.2093918191196963","0.6542730306411582","-0.17466889785088152"
"0.009869333669771461","-0.06985192406309601","-0.10304292128562867","-0.0955618694207982","-0.14887831831404733","0.5592293999409244","0.29303902286265376","0.5886922947530867","-0.17569853500151464"
"-0.0024489768782522503","-0.10623404001188114","-0.11509986343547719","-0.08454512575452242","-0.13059352881334046","0.48790329083545014","0.36150044178218943","0.5308556530042824","-0.1849325824635419"
"0.0037313604210883877","-0.11744180084918458","-0.11601683539754173","-0.051165634392690056","-0.11208855598356751","0.3283842315805055","0.41800827962053655","0.48436470283941335","-0.1991677246572158"
"0.014729645663395316","-0.09140634900608806","-0.1259692855894088","-0.012112659641417584","-0.0655126019949214","0.1557794159357441","0.4547885291011174","0.45501102403213933","-0.21437530193759874"
"0.025137722654495535","-0.07968234561677905","-0.11611803275371552","-0.004770057271445939","-0.030622399537047734","0.05706592536530637","0.4811755717208977","0.4398790376986816","-0.22708233185215843"
"0.02810609465852532","-0.07412416876409963","-0.10857573184051805","-0.016756000959467755","0.027246805265339912","0.019299005416736122","0.48847589396628555","0.43437769654693636","-0.22296378324962587"
"0.01574638287917718","-0.09284393389939928","-0.10557492044214019","0.007970585827568936","0.04250886058549798","-0.06927278126323319","0.4883644386648295","0.4360531649552616","-0.21460574453797854"
"0.016330814214385106","-0.09061692377565704","-0.09428005634184529","0.022169890844679976","0.035939260169340875","-0.2098985516652987","0.4721755561283008","0.45208225248372813","-0.20236777154759622"
"0.014604479150088839","-0.08461209843733904","-0.10665298207321607","0.04133438437093059","0.05740234815917584","-0.3255395553698189","0.4390454677704141","0.48666022648546525","-0.19194392115594847"
"0.011137366731499385","-0.08620964581155338","-0.1145009403071017","0.058767854117406336","0.0812970259569582","-0.4266435262896575","0.38565837837284384","0.5352356176622667","-0.17899010519417355"
"0.012660546916505918","-0.0827392909498823","-0.10671287438605362","0.06936580170793014","0.057103186027292537","-0.4819764724483786","0.31519076402709456","0.5917398002831901","-0.17729202106797068"
"0.024222081468691994","-0.06930244255401968","-0.10344564545815702","0.07641890527335322","0.06349568246137474","-0.4829957635618287","0.24519683471253453","0.6490355427820625","-0.1923802911864549"
"0.034412561290505565","-0.05788797695243231","-0.09344982497078687","0.05474452354138899","0.11160095326820822","-0.4659833095016254","0.16085303533547524","0.7053682207627637","-0.20190852069152015"
"0.048876996132068806","-0.04250976572015447","-0.05519928958926159","0.034660604147682864","0.13060133858837994","-0.4011612484534044","0.08300150726824587","0.7559488969637024","-0.19590884135822778"
"0.05791690685079592","-0.032196340571536655","-0.033524468098569515","0.06505749725048156","0.09870826203256584","-0.3121188890427256","0.010276923068006436","0.7983369284278693","-0.197803046846456"
"0.07517833185509237","-0.015831347801220044","-0.03497220986750474","0.08860442695333685","0.064082040239866","-0.20426332793808155","-0.03881913722349609","0.8251444229610742","-0.2229964701432968"
"0.08527638102092579","-0.018543438954713963","-0.021969382225256306","0.057562491618920165","0.062411518895429695","-0.05580600414767429","-0.053001824333811086","0.8339967009294702","-0.2434584655812758"
"0.08526867846626077","-0.028430989965862408","-0.002583066660608621","0.0014169567543300544","0.05155073685953862","0.07047931104158933","-0.05339191788890793","0.8308964247408367","-0.24447175928507348"
"0.07696436171804251","-0.03615281518036788","-0.00014834088115393788","-0.04623154269561207","0.006483756664111854","0.19481341181367698","-0.02856524948951624","0.8157380530781142","-0.22559507819013278"
"0.06276855347042164","-0.026681789850012634","-0.00616607264481078","-0.08060074064565832","-0.057411291463521835","0.3343543652449991","0.015431730760360621","0.7796693079729062","-0.21083204266367397"
"0.04415340448374895","-0.026862526679085","-0.02689913914743658","-0.09543189822487518","-0.12044116270574903","0.4630762715721292","0.07893338876509066","0.7365688726185853","-0.18564842543493446"
"0.02000685842826306","-0.05461290096355206","-0.06155407050654215","-0.05647231018474739","-0.1687690101387037","0.5811198900440676","0.15455581080319417","0.6870963802467751","-0.17687036013961613"
"-0.0034214244047102815","-0.0914707494854127","-0.08142386160344053","-0.022612406772799538","-0.1575564134357179","0.5913856076866723","0.24500178793498598","0.6184153681700701","-0.19770825485481042"
"0.0014725862655730166","-0.09951249966172442","-0.06709514207009878","-0.07354667433063579","-0.1743525721681735","0.5070271336306572","0.32720007275901125","0.5514625951602203","-0.2256277650838037"
"0.019141283847782103","-0.0941350596381174","-0.08709917455783993","-0.18471151957840298","-0.13844593645101316","0.36551555071333147","0.40031475051434784","0.4994834965082385","-0.23167484041291886"
"0.005441327556721504","-0.12798478254507248","-0.1269647371338122","-0.10854839876750746","-0.10212765364038139","0.21026780660046365","0.44584424115924876","0.47242534134701647","-0.2233233390800057"
"0.02132206963731421","-0.1051641610811654","-0.1779516826280672","0.021296676957997102","-0.037568465579966785","0.06920519714977667","0.4684696673548788","0.45825641953173","-0.22775241317241174"
"0.03394077981727346","-0.069593283428389","-0.14259043502791188","0.01066214488269497","-0.010674507912775277","0.009577152389665031","0.48596814968351865","0.446857957289265","-0.23726429923064163"
"0.02417682896003504","-0.05527871882237611","-0.09164685982915999","-0.007570407031307546","0.01773823606556133","-0.03171918438340645","0.4841012733841257","0.4462774800454357","-0.228896454450893"
"0.016482939669019137","-0.08369698840048413","-0.1025679132872619","0.03365645631547753","0.0732196483961093","-0.08921691071640732","0.4766616320119174","0.44724054456360696","-0.22347043010152473"
"0.004917553839500556","-0.09735196745212377","-0.11447822253326677","0.08316104071816047","0.08827827346658672","-0.24227317893535744","0.4595532432383741","0.46330921008597087","-0.21555039576506738"
"0.007019388443716255","-0.09264138400474921","-0.10727875347976011","0.08998597262851868","0.0721235183448889","-0.38645433381648114","0.41622499479723546","0.49664707361225463","-0.20765487659886317"
"0.01086874013755703","-0.07981010785801985","-0.09071749635409458","0.07405631775635237","0.09143742557927428","-0.4938439332692622","0.3574601871043985","0.5535470361721526","-0.20660726165671103"
"0.014195280933509963","-0.0742425825486643","-0.08964149997518552","0.06049887789718121","0.09322761177646392","-0.525393420114147","0.27796469334068835","0.6184417534993352","-0.20462316721088786"
"0.027489890285324205","-0.062230854437211346","-0.0745920074356264","0.0590826732364199","0.06688937768545881","-0.49607666618443863","0.18130508315270735","0.6900515371244512","-0.21515815304101668"
"0.04945179927394548","-0.04234772580443442","-0.060730034891984155","0.028357482520215627","0.07665163637307443","-0.43618117885122654","0.09941330040768673","0.744840673343152","-0.2230945308243095"
"0.05812198736875192","-0.036915233758178886","-0.04187428260899049","0.013732353355276764","0.09579083292243999","-0.3484736054224467","0.03585591475222878","0.7862920256184126","-0.20759113715620495"
"0.06774729224202009","-0.019686028104022008","-0.02754762832781555","0.05438156694240393","0.0690936042731749","-0.24036564842304362","-0.019258731817914387","0.8175718334620291","-0.20933334858886352"
"0.08268158291814917","-0.015414822120426839","-0.028526557854884445","0.0663937936944902","0.057033780412695606","-0.11513845448488538","-0.05386560292009724","0.8349597654476414","-0.23252469964836212"
"0.08353849212463199","-0.025221353173715263","-0.01404500966119861","0.0158879497084002","0.034105994625160056","0.027263794714907467","-0.06473249481208707","0.8354874720329407","-0.2428537580483643"
"0.08049213175461893","-0.038256217932503146","-0.005585736785936607","-0.06483764145419336","-0.009702589978712834","0.14604761268589886","-0.05250027547725752","0.8273212126254339","-0.22329065218633487"
"0.07003880225486177","-0.035094362141145245","-0.00841616488055247","-0.07372478300653032","-0.06313366472218547","0.28370530444094166","-0.021376382545584455","0.8078620322925218","-0.2018366095254442"
"0.05509392056606827","-0.03885555787718564","-0.03335511742089093","-0.07321356296923308","-0.11478101517051714","0.4073307552008212","0.03683114863997135","0.7715162412300319","-0.18529377263860528"
"0.03330339341874355","-0.0424515975452806","-0.043573985142276776","-0.07927599719684285","-0.14790185311558027","0.5254957178529321","0.1142089916760114","0.7173867382429555","-0.17530302358809682"
"0.01147435349809375","-0.06493879072107141","-0.07734705382615362","-0.09342456531006393","-0.16556199208491482","0.5726986039400866","0.21543826922370118","0.6471357990749851","-0.16019514133341006"
"-0.006184715890784059","-0.10098851709914876","-0.08975095834002655","-0.09694726609437776","-0.1657989284933664","0.5343053053334653","0.3008687577899592","0.5796685121444684","-0.15921290017859974"
"0.005341194346076333","-0.10379305410199577","-0.11233655603628272","-0.10981922823875488","-0.1679169963871001","0.39551183205200663","0.3715035550878928","0.5301300564494958","-0.1726848034050583"
"0.012396734419229187","-0.10409428215044968","-0.1386189551111324","-0.08291422793308824","-0.12666852164303166","0.20676824044428485","0.42508569126301193","0.4975177894779986","-0.17760908393657832"
"0.018188092707986617","-0.08703646486868902","-0.14988903618542557","0.0041817810539727","-0.08968729554814654","0.0983957531321055","0.45205787421543797","0.48176574790681426","-0.19782756201670917"
"0.03003365896344509","-0.07842445883513174","-0.13938516366501966","0.017697918955328316","-0.048278469901388676","0.0655260416069424","0.4704479989557282","0.46838838596947674","-0.22148633565570153"
"0.03019156133407788","-0.07379489534561723","-0.12515970674001853","0.014758644428268982","0.026093236084797935","0.011606027082151473","0.4792529677707762","0.4581113002207728","-0.22387901627241089"
"0.022828881893657577","-0.0829439182793493","-0.10758028029611466","0.014880913627396576","0.05927869305034784","-0.08926787527207983","0.47808268710548507","0.46031447521439733","-0.21793327031367546"
"0.016827628990278516","-0.09160058916147042","-0.11000282108778515","0.029694741713823688","0.07758741552160536","-0.19035243112309083","0.46281331080597105","0.47563115885270985","-0.20135938087784916"
"0.006861486073083477","-0.09929956259298976","-0.11518866927865012","0.07626775358624274","0.1157557169558034","-0.3439110642479557","0.42257794698024503","0.5073859026230957","-0.1869166769093651"
