"AccX","AccY","AccZ","GyroX","GyroY","GyroZ","MagX","MagY","MagZ"
"-11.988","-5.583","-1.7797","0.000806","1.2225","2.1928","0.38672","-0.70812","0.42578"
"-7.2227","-5.8456","0.97974","-2.3241","-0.65027","0.074122","0.32793","-0.71854","0.40456"
"0.55839","-11.562","3.4756","-0.89194","-1.0765","-1.1972","0.34628","-0.71816","0.36084"
"1.162","12.451","-1.2876","2.5742","0.049495","-0.71144","0.37708","-0.68432","0.37966"
"-2.4959","5.8325","-5.6228","-1.8401","0.93378","0.06594","0.38188","-0.67633","0.40619"
"-3.0646","6.003","-5.687","2.125","1.1947","-0.087202","0.40791","-0.7012","0.37684"
"-19.953","-32.104","9.1333","-2.227","-1.4143","2.1291","0.36796","-0.75681","0.32525"
"-9.7348","-11.867","-3.588","4.6958","0.97681","-1.8036","0.38459","-0.72409","0.41954"
"-23.298","3.2854","-4.6272","-0.28542","-2.168","-2.6889","0.49633","-0.64432","0.46432"
"-14.919","-4.2307","-12.509","-0.14721","-0.82886","-3.1671","0.60065","-0.57377","0.43774"
"-14.663","4.521","-4.9652","0.54424","-1.1996","-4.0595","0.71185","-0.42483","0.46135"
"-12.301","8.8695","-0.601","-0.17578","-1.1199","-3.2259","0.78089","-0.28974","0.44053"
"-7.6308","11.067","-5.0715","0.57883","-0.87439","-2.34","0.80951","-0.18858","0.41444"
"2.4765","23.261","-6.0821","0.31916","-0.13449","-0.027103","0.80963","-0.12281","0.3881"
"-1.7244","9.0621","-0.62911","-0.22839","0.2726","1.9895","0.81593","-0.18803","0.37707"
"-9.2322","-1.8335","-6.305","-0.52733","0.57079","2.9767","0.81944","-0.28134","0.38489"
"-24.545","0.73665","-4.1396","1.5913","0.23253","3.2465","0.75141","-0.45342","0.39958"
"-25.674","-1.4185","-6.3582","-0.98113","1.4233","4.0906","0.63157","-0.57652","0.4253"
"-17.769","-8.1611","-4.1213","0.10504","1.2733","3.5216","0.46226","-0.70702","0.42435"
"-11.432","-5.6322","-0.23795","-0.94899","0.54528","1.4733","0.34324","-0.72574","0.44504"
"-2.7238","-11.801","-1.6919","-2.4397","-0.50413","-0.53698","0.30506","-0.71586","0.41925"
"3.6296","-1.6741","3.6916","-0.60622","-0.91783","-0.9541","0.34367","-0.71169","0.38664"
"2.1977","13.111","-7.3971","1.7812","0.31836","-0.48746","0.37868","-0.68039","0.417"
"-1.6632","-0.20068","5.0242","-1.9019","-0.87605","-0.10626","0.41992","-0.70773","0.35969"
"-30.166","29.294","-12.709","-1.3472","1.8216","0.096962","0.43682","-0.72183","0.35556"
"-1.0655","-31.983","-1.8317","2.8913","-0.015127","0.29737","0.38262","-0.75992","0.33944"
"-24.297","-0.33401","-2.5279","3.0891","-0.33647","-2.8372","0.46533","-0.6725","0.46872"
"-13.687","-1.5504","-10.079","-1.6102","-1.5261","-2.8971","0.58322","-0.60205","0.44304"
"-15.019","-2.9439","-8.0857","-0.57434","-0.11899","-4.0212","0.6855","-0.51065","0.41163"
"-16.106","8.074","-0.51152","0.4377","-1.1827","-4.129","0.77432","-0.34879","0.41521"
"-10.263","7.7381","-0.7239","0.72816","-0.90699","-2.7747","0.82566","-0.21999","0.40492"
"-0.30114","20.664","-4.7093","1.3715","-0.23032","-1.1636","0.83488","-0.12216","0.40538"
"0.50464","15.592","-3.5772","-0.17683","0.075789","1.7669","0.8425","-0.14786","0.4011"
"-6.5659","-0.29424","-2.5465","-0.21769","0.64904","2.5692","0.82711","-0.24562","0.39397"
"-38.471","-1.4653","-3.8465","0.23364","1.2983","5.129","0.76907","-0.42617","0.40563"
"-25.961","-0.88208","-5.9216","-0.61237","2.1446","3.9415","0.68758","-0.55533","0.4325"
"-20.849","-9.9372","-5.719","0.024489","1.4017","3.8452","0.52592","-0.67301","0.43657"
"-12.992","-6.3115","-0.85346","0.090121","1.0978","2.2379","0.38312","-0.70182","0.47247"
"-6.3713","-8.9321","0.83544","-2.3243","-0.75215","-0.049801","0.29146","-0.70958","0.45974"
"2.2468","-5.1153","5.5735","-1.3602","-1.3671","-1.1395","0.32134","-0.70998","0.41252"
"2.8829","16.293","-3.9353","1.9262","0.29045","-0.82734","0.37354","-0.68361","0.42219"
"-3.5407","4.4992","1.853","-2.4841","-0.34198","-0.038073","0.38217","-0.71103","0.37482"
"-8.8807","10.498","-10.317","1.6367","1.3291","-0.018243","0.39898","-0.73273","0.34229"
"-7.5594","-29.703","-0.92145","0.48463","0.095536","1.2985","0.36707","-0.77045","0.31847"
"-18.638","-4.8423","-0.65339","3.6373","0.70596","-2.4152","0.41349","-0.71199","0.43716"
"-15.256","-0.27987","-7.0727","-1.4764","-1.7841","-2.7527","0.50765","-0.65864","0.43399"
"-15.57","-5.8495","-13.405","-0.5263","-0.037899","-3.5396","0.60937","-0.58932","0.40026"
"-16.133","5.5301","-1.9573","1.0444","-0.80426","-4.186","0.70877","-0.42965","0.42433"
"-11.717","9.3162","0.73069","0.15013","-0.86347","-3.2116","0.81107","-0.24765","0.43337"
"-5.6935","14.733","-4.9312","1.2926","-0.39381","-2.177","0.83342","-0.14028","0.41982"
"0.80289","22.541","-4.329","0.5219","-0.16079","0.76963","0.81156","-0.11932","0.39907"
"-4.1695","5.3745","-0.028696","0.19727","0.13063","2.1821","0.81702","-0.19547","0.38699"
"-20.969","1.1794","-9.965","-1.0093","0.92266","4.1721","0.80233","-0.32493","0.38166"
"-22.044","2.6163","-6.642","-0.021049","1.5007","3.1893","0.72622","-0.49696","0.41031"
"-24.902","-7.2875","-8.3392","-0.97342","1.2818","4.1881","0.57985","-0.63718","0.41137"
"-13.796","-7.1523","-5.0102","0.60281","0.99136","3.0874","0.42326","-0.70184","0.42507"
"-8.3505","-6.943","2.1365","-1.6488","0.18508","0.73382","0.32185","-0.70919","0.43548"
"0.089316","-14.724","3.8375","-2.1491","-0.54667","-1.1941","0.31619","-0.71665","0.38466"
"3.2447","6.7741","-1.3068","0.83257","-0.41074","-0.71943","0.3386","-0.69827","0.34942"
"0.15069","5.7368","-10.889","-1.5121","0.91919","-0.31294","0.35339","-0.69481","0.35389"
"-6.3996","12.154","-9.2641","1.8926","0.80396","-0.009228","0.38481","-0.73678","0.30214"
"-20.886","-26.721","5.1023","-1.376","-0.29645","1.7179","0.35072","-0.77612","0.2747"
"-10.761","-12.949","-3.9525","4.0238","0.87422","-1.8796","0.37987","-0.74876","0.36489"
"-24.36","2.4608","-3.9274","-0.42291","-2.0273","-2.6492","0.48362","-0.66998","0.42508"
"-14.409","-3.3721","-12.897","-2.0331","-0.56464","-3.5835","0.60287","-0.60969","0.3609"
"-15.476","2.4738","-5.8046","0.30795","-0.18515","-4.352","0.71139","-0.4877","0.36919"
"-13.247","8.1359","1.7591","1.0495","-0.88325","-3.2824","0.78135","-0.32918","0.38316"
"-7.0293","12.892","-5.3462","2.1083","-0.67247","-2.2807","0.80779","-0.20336","0.37941"
"2.6336","24.788","-5.4051","0.62956","-0.059059","0.39303","0.80264","-0.13341","0.37327"
"-3.1945","7.7977","0.6935","-0.13826","0.17822","2.2464","0.80524","-0.21155","0.3608"
"-11.473","-1.3329","-8.1209","-0.75028","0.65848","3.3613","0.80753","-0.32211","0.36247"
"-24.119","1.7595","-4.5895","0.93962","0.44245","3.0929","0.72889","-0.49117","0.37393"
"-24.816","-3.7034","-8.0863","-1.2088","1.3023","3.9304","0.59846","-0.61628","0.38143"
"-15.519","-8.8713","-4.4727","0.86077","0.74305","3.5637","0.43268","-0.72887","0.39064"
"-10.842","-5.2456","0.9742","-0.52446","0.44036","1.1711","0.32349","-0.72908","0.4313"
"-1.0433","-12.731","-0.2388","-2.1984","-0.34705","-0.83947","0.29614","-0.71219","0.40874"
"4.06","2.5966","-0.47555","0.46348","-0.32895","-0.91121","0.33371","-0.70957","0.37672"
"0.97811","7.6436","-10.551","0.10003","0.77239","-0.37347","0.35739","-0.68568","0.40841"
"-6.4687","3.7745","0.19695","-0.96807","-0.98089","-0.28256","0.41213","-0.72384","0.32502"
"-28.722","-3.4739","8.7459","-3.1419","1.5417","1.3546","0.4001","-0.75051","0.31592"
"-3.4771","-25.629","-2.8996","4.1587","0.3234","-0.95438","0.37486","-0.76008","0.34526"
"-31.935","4.0211","-4.0213","1.3064","-1.3956","-2.7456","0.47941","-0.66769","0.45055"
"-13.091","-1.6648","-11.004","-2.4036","-1.1534","-3.3225","0.60024","-0.60561","0.38553"
"-15.341","-1.0313","-6.7885","0.018574","0.29238","-3.9454","0.70072","-0.496","0.39022"
"-13.76","9.2347","2.1528","1.2056","-1.1279","-3.3862","0.77624","-0.33485","0.40692"
"-9.0975","9.5068","-2.9382","2.0163","-0.72232","-2.218","0.80899","-0.22007","0.39267"
"2.0489","22.563","-4.8667","1.7414","-0.35804","-0.13441","0.81588","-0.13718","0.39762"
"0.32044","11.134","-2.8183","-0.2511","0.14461","1.7983","0.81987","-0.18365","0.39061"
"-7.2284","-0.45837","-5.1856","-0.17857","0.83843","2.5421","0.80554","-0.27421","0.39537"
"-30.48","-0.13946","-1.2566","0.56092","0.16665","3.8233","0.74117","-0.45202","0.404"
"-25.132","-0.63957","-5.7402","-1.721","1.4704","3.7964","0.65612","-0.5814","0.40398"
"-18.203","-9.4842","-3.9107","0.15935","1.2012","3.5633","0.50206","-0.68087","0.40615"
"-11.533","-6.6364","-0.67375","0.097423","0.71305","1.7868","0.37769","-0.69514","0.446"
"-3.209","-10.648","-1.8226","-2.1384","-0.47609","-0.34317","0.30746","-0.70134","0.43179"
"2.2878","0.68087","4.0525","-0.78466","-1.1176","-0.81455","0.33799","-0.69405","0.40348"
"1.2011","13.749","-6.9374","1.2896","0.069409","-0.48364","0.38742","-0.66936","0.41837"
"-2.0677","1.0727","1.2636","-1.9034","-0.76155","0.087092","0.39646","-0.70635","0.36413"
"-14.537","27.745","-7.7864","0.47195","1.3584","-0.007225","0.41282","-0.72334","0.34565"
"-1.7053","-34.369","-2.4718","3.2253","0.43899","0.63371","0.36502","-0.76413","0.33439"
"-26.444","2.7144","-0.17322","2.2294","-0.24647","-3.1869","0.45457","-0.68193","0.45777"
"-13.635","-8.5344","-9.7546","-0.48235","-0.95441","-2.3852","0.53695","-0.63799","0.4344"
"-15.846","-1.7208","-7.3981","0.36775","-1.0194","-3.9529","0.65071","-0.51912","0.43565"
"-15.49","9.8068","-1.8215","-1.2744","-1.0725","-3.9208","0.74651","-0.38114","0.41685"
"-10.407","4.6996","1.2272","0.33547","-1.0543","-2.7886","0.83083","-0.23323","0.39567"
"-6.525","11.366","-3.8789","2.1703","-0.90836","-1.7991","0.85333","-0.1206","0.38121"
"1.1569","20.658","-7.3134","0.78403","-0.18912","0.14064","0.83695","-0.084974","0.36563"
"-2.2319","8.3069","-1.8086","-0.76378","0.32791","1.9456","0.84501","-0.156","0.36213"
"-20.202","1.9006","-9.5152","-1.5908","0.97049","4.0049","0.84304","-0.28599","0.34944"
"-24.548","0.88061","-4.6422","1.1994","1.3031","2.924","0.78131","-0.45568","0.38893"
"-25.659","-3.3642","-3.8871","-0.61881","1.1061","4.3538","0.6545","-0.5829","0.42763"
"-17.335","-6.3224","-2.3662","-0.099252","1.1799","3.1279","0.50189","-0.6768","0.43377"
"-9.7097","-6.3705","0.2479","-1.957","0.27612","1.1978","0.39272","-0.70939","0.42614"
"0.9868","-18.021","-3.1108","-1.8773","-0.44003","-0.54667","0.35693","-0.72514","0.36898"
"4.6936","1.9121","0.63331","1.34","-0.57386","-0.40735","0.36502","-0.68337","0.38138"
"0.33887","15.738","-13.619","0.39459","1.4063","-0.018958","0.37213","-0.65575","0.4317"
"-3.2214","-5.5293","4.3312","-1.358","-1.9852","0.040372","0.3876","-0.71395","0.36582"
"-27.855","15.321","-10.351","-1.9753","1.9305","0.59439","0.38677","-0.73091","0.3627"
"-5.2342","-24.654","-4.7291","4.3362","0.2906","-0.80707","0.36744","-0.74687","0.38008"
"-23.776","2.4903","-3.248","0.85054","-1.37","-2.8669","0.45446","-0.66861","0.45317"
"-14.718","-4.9106","-11.138","-1.5103","-1.1282","-3.2311","0.57881","-0.60653","0.40395"
"-15.03","-0.066869","-5.7779","0.29166","-0.81202","-4.199","0.6939","-0.48059","0.42715"
"-15.858","10.011","1.0969","0.30814","-1.0274","-3.6395","0.77346","-0.32195","0.42775"
"-8.9678","10.615","-2.4866","0.82536","-0.93054","-2.5961","0.80446","-0.20415","0.41184"
"3.0702","21.532","-4.7925","1.5637","-0.37065","-0.12681","0.8041","-0.1242","0.37553"
"-1.5291","11.959","-2.9689","0.43139","-0.11929","2.0244","0.8116","-0.16993","0.36087"
