"AccX","AccY","AccZ","GyroX","GyroY","GyroZ","MagX","MagY","MagZ"
"0.0046017490982349805","-0.0028226587211253994","0.004495585141139554","-0.04745808568528571","0.017393601289631782","-0.22786719786526233","-0.03898632017568072","-0.37947778463092213","0.7230439499265238"
"0.06275507399975785","0.003726963510756776","0.008846844278874114","0.12691127076505118","-0.42326982567740357","-0.15366037792248974","0.052351299367761804","-0.3362454226302763","0.6943121703898087"
"0.1432612125391515","0.00474623612933223","-0.09026107562522913","0.0493136530510052","-0.07184526600262696","-0.22904423641293686","0.13195824843292803","-0.2667464653463573","0.668146312006259"
"0.1289681595388848","0.03693861270086784","-0.12906509858746004","0.009109326053774564","0.25793431510612963","-0.22486028908058447","0.1332957120504038","-0.2268254621684647","0.6840648292239838"
"0.07791273876117237","0.07576379199435526","0.04994063297097118","-0.26822041983294825","-0.0542712857272748","-0.07089151262673614","0.10465169957613307","-0.2523796535615837","0.6995420733771516"
"0.07862522506768617","0.022282310067470994","0.0714708868099864","-0.301367888541318","0.01413105874416534","0.029134921973169484","0.13831120061593763","-0.34924019729327177","0.6278597155568832"
"0.06660442569359863","-0.04743640238848906","0.08287933977945595","0.14139102474047613","0.18183464864618515","0.07998056034910657","0.07715010394178985","-0.37573106787529703","0.6535516139822051"
"-0.1313223446172684","0.18484573936138596","-0.09132881099547092","-0.035189767539751116","0.16687414875496542","0.43050749361379426","-0.0025961642501967416","-0.3988446163114068","0.6991661740999364"
"-0.05271777426080013","-0.08280369142920693","-0.16080802439136066","0.2354901705887498","-0.508782329454924","0.4318908172677623","-0.08172942828417366","-0.4358500406055208","0.7254627800581697"
"-0.1053069662361835","-0.1667393290547845","-0.2129432500903631","0.04003370966210087","0.4518631754781554","-0.14914152065286088","-0.1760763409669365","-0.4052034806642634","0.794611903618944"
"-0.13220813840374504","0.019236790625860818","-0.0583136898568141","-0.2407146637772374","0.050696329810879945","-0.4197754456918864","-0.16401130458429142","-0.4140161806387619","0.7828119350037516"
"-0.05693492293989533","-0.06850470758432098","-0.003592561919746331","-0.10514026518552579","-0.3593448613365815","-0.44067091351761395","-0.03394296778478264","-0.39201081603178073","0.7242860518860177"
"0.031130310183876464","0.023283633649228225","-0.02029446271797176","0.32982037634088657","-0.04605509693723204","-0.2187348348654699","0.049425597704533794","-0.3392665428311148","0.7112930116518377"
"0.060412534562260464","0.10378319408761394","-0.048801138376477975","0.47674559270987615","-0.21438764530532328","0.04940910759641316","0.09069192306873092","-0.18944404693232492","0.7369195362898178"
"0.11535870826513812","0.19472394191585823","-0.1743085778058108","0.30769639054598863","0.25238186593837575","0.18748179644764645","0.15302330040816983","-0.0781269812963623","0.6954562116682901"
"0.07299947170422653","0.009479910264696873","-0.001880467873459173","-0.11629853304291776","-0.19257752924250368","0.5400570194736483","0.15962702701945589","-0.11324717381449452","0.7085309691366473"
"0.09584080061533914","-0.06563057651510701","-0.09711151706254456","-0.07728310552602305","0.15226067693673034","0.24162556964067572","0.13571986485707854","-0.20830428029092218","0.7055891487062669"
"0.10114037004512208","-0.04809287179063696","0.09521509097182412","-0.07261665821758656","-0.002207501591361569","0.11651729299908666","0.06271664240319838","-0.2775512576803607","0.7223411817125995"
"0.07844517785239145","0.009696171229138632","-0.019621190511591047","0.08364049001867653","0.06076971711565419","-0.1812977283986089","0.052741392922858954","-0.2726567791017096","0.7239755263961442"
"-0.08800510281989572","0.17374185026492867","0.016857358510809536","0.13949440802959934","0.45739169167535865","0.3916530871225169","-0.03299559772240433","-0.25727413214023476","0.7780559919746367"
"-0.10928341008199698","-0.06321451982302471","0.0383070675153191","-0.037375209130456874","-0.3154996592877662","0.35231330391054894","-0.07077894491609198","-0.3051107340976171","0.7739047564784333"
"-0.1502513727065404","-0.030989350942903972","-0.33091045385866535","0.1254190088859349","0.4584926083206892","-0.03622105346781117","-0.09359941788927031","-0.3085012489081651","0.7905587288037531"
"-0.09442710777185115","-0.015942490563925462","-0.11099001162352129","0.0757892670353261","-0.2970473389932046","-0.23437124592251551","-0.06841051976014544","-0.30016348486043604","0.7826975308759037"
"-0.11025585760845502","0.016660771452875405","0.023371783420584668","-0.0845354982585281","0.023429496462509095","-0.3839303748688903","-0.004602359676410392","-0.2693454202789564","0.7641150318240008"
"-0.0019097980517012584","0.017892690299311172","0.06522556425754689","-0.11685692781058708","-0.03631677122016709","-0.3801444364475042","0.05510981807880519","-0.24885721210471082","0.7424436213201988"
"0.10088618574117661","-0.008604990790550883","-0.09081249795376793","0.10816653606415197","-0.17658312502349535","-0.4310604544479414","0.14976323284057286","-0.12501898846605883","0.715476934041712"
"0.12280611580687358","0.07293328705629668","-0.07253501627748161","0.22594932205839993","0.18027661226333694","-0.14847170077830793","0.15653414240404356","-0.04049490543220535","0.714561701018927"
"0.07872150700099884","0.1635831940101717","-0.0011861300949769747","-0.08682202855717401","-0.07656245449816272","-0.05518229506158696","0.13605423076144718","-0.02133783711937721","0.7256752448670306"
"0.0697990602409132","0.031553901655401555","-0.062179841913086197","-0.2484070330766819","0.019975968812048363","0.18958105076463302","0.12571675155137518","-0.09598325287642763","0.7347622013075389"
"0.10229026517467536","-0.030713052112253114","-0.020978061185186535","-0.2856269325906399","-0.16197683309642544","0.05435995014745663","0.13257125259093772","-0.18835301356721856","0.713907963145509"
"0.11710141125809756","-0.05222177348927286","0.012865639122795279","-0.057125054413160826","0.0865598861810491","0.05884725793024063","0.10222754676945864","-0.256350645615961","0.7077301402417102"
"0.055675463443276826","0.05377518317462614","0.01122880286546675","-0.1528059978532977","0.17055025303154733","-0.10362531867010587","0.05037296776691241","-0.2861264896914745","0.7338959986252602"
"-0.16349013853703329","0.004168272988915881","-0.18373851919947443","-0.24006962154561937","0.9329637494875918","0.5234571356260319","-0.10321243763987686","-0.37699756368001536","0.7800498924885612"
"-0.26500980902191834","0.1513159414162371","0.17105115053716122","0.18452220679493345","-0.7650805110819786","0.18231010748868878","-0.22634268192373017","-0.41321142809618044","0.8219871770683169"
"-0.08021589441490026","-0.17465435570726387","-0.25414503081826273","0.25145255894729673","0.06799029433078933","0.08132748074902281","-0.17159026508332004","-0.36743288182146544","0.8118378965835046"
"-0.11539731284735186","-0.014173554817314917","-0.14288783133993282","-0.23003777071956036","0.16907119545151633","-0.2743808490090364","-0.24303311331681207","-0.35686555745084675","0.8610153281113632"
"-0.042531145716319066","-0.01176892401672571","0.010856995517875584","0.05130558197222556","-0.5453758414268883","-0.39625894357443","-0.11402360188113848","-0.3225778220710242","0.8201076806822406"
"0.03237234712360997","0.019307423409636225","0.054924086449488554","0.134516992600547","-0.30592647106750076","-0.40344251904064987","0.07115938148851347","-0.2638968497857411","0.7463497051138703"
"0.12711184386461644","0.05091351671431371","-0.11336505161535511","0.41490818593849677","-0.25260381268062265","-0.022930225413502568","0.17550940747697955","-0.1285625381863437","0.7048863804923425"
"0.09692572469629303","0.1844302523980012","-0.09945970877620981","0.2631403390843751","0.3302597521102345","-0.1682799247496887","0.18319982327746456","-0.031329961312019615","0.7067331899847482"
"0.07416255745864365","0.027388644847469498","-0.03579624548206273","-0.1380374189980438","0.0599009502846651","0.32413718527446334","0.14951245841229607","-0.045529226255960745","0.7320818760265255"
"0.0941242092826941","-0.02094806975530317","-0.013912833522522643","-0.19635116223550983","-0.11002553392210032","0.21262673746301966","0.15327407483644662","-0.12790026642179306","0.7209029583910802"
"0.1071025324835762","-0.031144119836764787","-0.028828084671239","-0.19741981429087702","-0.06247072143793208","0.03900748447201498","0.13808829001302478","-0.21137421335090092","0.7111459206303188"
"0.08402182742986163","-0.006415478365254128","0.019398238251638358","-0.14194618237172899","0.09012589879309794","-0.06423942466967235","0.10036067047006565","-0.261654096798219","0.7166536622138642"
"-0.06040107253915164","0.10863504310253927","-0.013105319925299144","-0.13955856336514297","0.5568810502544665","0.3881341058975105","-0.022908892940608487","-0.28950381183739005","0.7773041934202062"
"-0.1490767331201258","-0.06808610446871084","-0.209308406276774","0.023735321693352913","0.3686721698440494","0.31571589917048254","-0.2738505041694805","-0.39873907499434685","0.8543145149088301"
"-0.2481893552721939","0.07522677509418046","0.15799462633857567","0.1358263320557716","-0.10156044223833066","0.21573557535904253","-0.2342002806764","-0.37486035200955314","0.8365818750923706"
"-0.07815546104200902","-0.1076570828614739","-0.17671872708448041","0.10246705843552725","-0.43210109181059836","-0.007531891637955665","-0.20987516113356125","-0.35088928037233214","0.8405860195670549"
"-0.11594611986723416","0.004054658078778323","-0.10669222186438548","-0.12401015733435088","0.23083501255161346","-0.4074468769863468","-0.20965225053064857","-0.35347504264029866","0.8535954032480703"
"-0.02419906561358565","0.004345031530313836","0.01657090803527271","0.03624817823714269","-0.41194953060693973","-0.3507306071736577","-0.0942681496980082","-0.28544047113058535","0.8299137487835083"
"0.06724855182746042","0.03370716284314299","-0.01674016373888829","0.17016761026743438","-0.36757780320600975","-0.39659870727891333","0.19415030664554658","-0.1786313389995421","0.6972376473733536"
"0.11026635681223071","0.0585937932324807","-0.09520322406041028","0.26612486284260767","-0.13102910887736255","-0.0629386150582217","0.25249715695792274","-0.07217577028064934","0.6733598715467665"
"0.09856530973867457","0.18780608397550225","-0.030752899690707793","0.05540882076499559","0.2541529057591248","0.0037999559716459293","0.18657134614651794","-0.03496849821765835","0.6983163148644932"
"0.08789216858516455","0.005711755122019782","-0.07234501307813493","-0.15583865909150174","-0.07484885380673521","0.32433133596273955","0.18205740643753737","-0.11086721711479462","0.6920240878328463"
"0.09809632044150852","-0.04610684410565788","-0.04436704197433258","-0.227091756945305","0.006640278291513195","0.09809481956527737","0.16531124739372757","-0.19913010130549372","0.6849964056936043"
"0.10102001762848124","-0.015501035665329174","0.0029511895707975307","-0.14416050645041767","0.012845618895889208","-0.007463696208698645","0.13948148128122875","-0.2432107516420082","0.6835581823720849"
"0.06875728972247004","-0.0028940186070867285","0.01780324400320944","-0.04149866566481493","0.21644172406244444","0.019788993216273216","0.07152161121824636","-0.27453013747952215","0.7082204436467737"
"-0.06707341051772003","-0.03140068303665487","0.10978337975651606","0.05288737956408881","0.43408097835901255","0.21303688079200317","-0.04188415801354447","-0.3032373757198045","0.7619086665012154"
"-0.292238339762743","0.12162939788239716","-0.07023019485931942","-0.038449637683420586","-0.017525799392313694","0.28923859905681376","-0.25788453223586494","-0.3418391124344489","0.8631236327531356"
"-0.1794247985002811","-0.10057303013576398","-0.0847200040616725","-0.13135593677800064","-0.6030303674834366","0.338310185518627","-0.14470167360698635","-0.36933262552854285","0.7968019254948938"
"-0.08246889165441688","-0.10105084014365644","-0.13973212602904408","0.2683488144172906","0.0893169643884855","-0.289427527350443","-0.06411949065407739","-0.32712929136923075","0.7882216159062843"
"-0.049270881048206365","0.04767479583472963","0.03151032263434077","-0.051598871712433485","-0.10337695470312604","-0.39371071579080463","-0.01413178795092446","-0.2518519469762844","0.8055783564455286"
"0.05720538336361524","0.033847389693285344","0.007309078167987558","-0.020909302731408133","-0.15859031776350657","-0.19725448809131024","0.1018931808650897","-0.2287911691987046","0.759653270837924"
"0.11794580381324972","-0.01997063667394056","-0.059992739868432274","0.1524241351499422","-0.7535687522471096","-0.16644520074547847","0.25238570165646634","-0.16744791719058646","0.6719379916720826"
"0.11630323403093547","0.07913962357185629","-0.07360481689989024","0.0033228158613613883","0.36510615723200046","-0.2807878217221515","0.27367366423462064","-0.10061387816242907","0.6682770595809425"
"0.08173994561035121","0.10901936854367018","0.0199800197870293","-0.24032956393746546","-0.1008759592805817","0.12039302611380058","0.2380915592446949","-0.09521016272896415","0.7084329084556344"
"0.08168313926969673","0.023559932479879083","-0.015011547675266633","-0.20863584712423475","0.08582514398514372","0.10415960169030561","0.2314042411573167","-0.18011155597130662","0.7106229303315845"
"0.1133348620269057","-0.05000930540924909","0.06476088252001416","-0.08400502322924228","-0.06664702479902286","0.056517449670926055","0.24040425674991325","-0.2501764785679591","0.6978586983531007"
"0.07180076163448372","-0.020444291812199165","-0.03966859329483525","0.04228558097516728","0.20216570712897372","-0.03609485552043164","0.1960450467703038","-0.25517649846367","0.7441923701315915"
"-0.19444478009705843","0.28099980986270034","0.10005604205083148","-0.019148433714050936","0.46775466792379594","0.5427023226014116","0.08963309770489619","-0.31270970892592714","0.8194702862556582"
"-0.1095818840752663","-0.0635583352852256","-0.24478943850260432","-0.13781598659017494","-0.047409703070399586","0.23947049700080972","-0.10198642932385751","-0.45372610118253487","0.8555566168683238"
"-0.10823393700888884","-0.08238093344396297","-0.144292202813365","0.3141083028781914","0.4108181309837676","0.1862270976246614","-0.1844912162268875","-0.4352959486909565","0.8975919621290923"
"-0.09032549741273119","-0.022411622583825928","-0.13822655719943813","-0.0872023146489488","-0.19504741180333215","-0.2148833705867905","-0.1817326975158441","-0.39133799013552406","0.9190672512708691"
"-0.09948190927076664","-0.020048540479575196","-0.020554684490990075","-0.22860327381640985","-0.23369676594559854","-0.35599694459315","-0.08585327443805707","-0.4191745125100626","0.867634424079719"
"-0.00405688516457393","0.013067328578301599","0.05894513241827155","-0.03193567389367822","-0.29381638796886506","-0.4226634371799951","0.0705463773305038","-0.3702165340589193","0.7984362701784384"
"0.05796408499811912","0.028217541339422062","0.018820174170147672","0.4399300480276786","-0.3028630508370158","-0.17487134061666618","0.22722466735270508","-0.2106275085327024","0.7626114347151396"
"0.1065055844970376","0.06700013321916254","-0.21112582818356854","0.4333352132715841","-0.18836293312853186","0.08099742457895324","0.31499571724954595","-0.04591445206322924","0.7163594801708261"
"0.09313192767797367","0.18641420264816336","0.0601243914055212","0.009733380344124994","0.03226554918981403","0.18515198818833187","0.2622216320099854","-0.014836491988489728","0.7242043346518404"
"0.07518699722909052","0.021107520678500625","-0.04766938018906499","-0.15451969214028285","0.03147815445869721","0.3012031352218355","0.2534166631949371","-0.10096612230811636","0.7229295457986756"
"0.08382059818923814","-0.03143392199372565","-0.01247541801442148","-0.1972176368749967","-0.027506087441645854","0.25470404537968216","0.22245995321544834","-0.19508786886210103","0.7232073843948782"
"0.09731431857914298","-0.010735400195306158","-0.011009088975984953","-0.1360156448392411","-0.04731875778230707","0.11590571833101658","0.19972307171836184","-0.27058553075440983","0.7074686450923432"
"0.0692377365697003","0.02816041188195666","0.06935400333900409","-0.0083306903899773","0.23747162528531243","0.09849768224345051","0.1297012785784379","-0.3076305330424213","0.7384885071860207"
"-0.09633349005144214","0.0712443325501377","-0.1599158354552979","-0.22030437226932453","0.7171122880911581","0.2922236658890606","-0.01374169439582731","-0.3830529967463249","0.7893493137379302"
"-0.21285388574644204","0.09204153250236105","0.38447224420334775","0.33700248835263324","-1.2118851382923141","0.17854358413613025","-0.15573574845116064","-0.4292273229600144","0.8303550218480653"
"-0.12667192723826623","-0.15983185828851312","-0.2462557675410409","0.09368389383992874","0.3207583628016211","0.012534795437192813","-0.10371398649643011","-0.4556522302188773","0.7802787007442574"
"-0.12510253172526958","0.0366020682605262","-0.1183154610592035","0.15682390081933667","-0.12377023890934631","-0.2602563864369418","-0.06988730250444125","-0.3871954934409245","0.8151065859505938"
"-0.05754149911976517","0.003227600116638736","-0.038786730619606524","-0.004683506082457196","-0.11390506844836286","-0.212859349661511","0.012283118494219777","-0.34238001168438076","0.7976190978366661"
"-0.027289715672922515","0.015472478737595037","0.12766639826894127","-0.02460626119321876","0.010019135073855856","-0.4735309175083633","0.09804797296484702","-0.294503831733101","0.7840540369632455"
"0.07774039410054268","0.019983628442544896","0.04820169064651546","0.2367417450680086","-0.14822255492095918","-0.48221916080872385","0.18637629936896938","-0.17685032927415692","0.7622518788847599"
"0.10813660044735433","0.09452406710858491","-0.10838779389333816","0.13751114385477384","-0.12086238298744072","-0.003190924936459859","0.2750389916774604","-0.0983737637078335","0.7107209910125971"
"0.10096301872396013","0.04952890640883405","-0.026013145967874223","0.006780531047713697","0.06761215339608885","0.05748820311230713","0.23647545737357872","-0.08104519871306747","0.7247600118442457"
"0.09002346546097395","0.013257309992309273","-0.06281800483263111","-0.08258304207088438","-0.10344396702066788","0.12953024288079992","0.24840117462940328","-0.11735800811397613","0.7202819074113331"
"0.1006961252048174","0.008631070398501842","0.01063248195482145","-0.20752868508489045","0.04799669073276511","-0.06835299237752462","0.25536713097042224","-0.1563001155761386","0.7201675032834852"
"0.09168683214088373","0.022058985824651697","0.05251600242298575","-0.13754641670233458","-0.07948227690534365","0.0330009475534696","0.2684352650661743","-0.2203478638339157","0.7136791548898129"
"0.05917723735785884","0.016202697075743726","-0.04431954117449591","0.027027925323403007","0.17504965149507207","0.06390002959262912","0.22240422556472014","-0.24852739548889874","0.753001487975897"
"-0.09978038326403592","-0.010943143676998529","-0.05390024597633684","-0.12220981558341706","0.6012288446848458","0.3069548493620184","0.053493716207688995","-0.3334617703928225","0.8560632637202227"
"-0.1621903324373122","0.07308286236311519","-0.13099197885909564","0.13119550648251402","0.05645460252536956","0.07955100195129544","-0.1778596257902373","-0.410137537236812","0.9552516425645475"
"-0.1401995388686971","-0.02942088765612656","0.05673531259978269","0.08149355841194797","0.02026316445865632","0.24141928453438224","-0.1902311642518874","-0.40401614084733994","0.9612987178936628"
"-0.09361833953202468","-0.1287742077755035","-0.20369092038304526","0.0386126912533424","-0.276895777789546","-0.38043566247991845","-0.08794306134036288","-0.3323799718929588","0.9380910233873286"
"-0.117091874873655","0.025500256598885836","-0.008551438897478655","-0.00374963897101024","-0.010789625501123968","-0.2241613466027901","-0.019314459468642596","-0.32542743763164045","0.9171387245442864"
"0.011730463440705469","0.029535673730760163","-0.03523862739702348","0.03230956962587517","-0.25016264968445495","-0.31481272984255804","0.14536074843304903","-0.23430570301508238","0.8384613714784469"
"0.07646465848414973","-0.0013574439447490998","-0.030676485360535747","0.4083326061743909","-0.745072547701624","-0.26620225126540087","0.26375414240500944","-0.10700308564394044","0.764376526973368"
"0.10435772712869845","0.1267502747061141","-0.0675598238076315","0.16423707273494648","0.20558572862066354","-0.1323960237890374","0.2981659667296437","0.0016925975295478599","0.7270480944012082"
"0.078335416448415","0.158399994141947","0.018487048995640895","-0.18510624691416921","0.01598921457771885","0.2238292321765572","0.26832380976471787","0.0017361333228350598","0.7428685509379203"
"0.09073778112422068","-0.014482053887628087","-0.05792335719728663","-0.1729178369853873","-0.07944877074657274","0.3528957559753776","0.2705807796192083","-0.10952024605581814","0.7404824076999451"
"0.10151827663337434","-0.03854809752428093","-0.03834889716024238","-0.15202617067775953","0.07947572689805271","0.11022438381533385","0.24650643450464635","-0.17281337389661722","0.7278652667429805"
"0.0910181541140272","-0.013201315322994614","0.07518627545808122","-0.07075084949389152","-0.041941019299573","0.09758274712494885","0.21187169957709925","-0.22744551740619137","0.7428358640442494"
"0.07481149768917109","0.020613091192072785","0.0018985305413734474","0.04531920496297075","0.13186021283934482","0.07391092445687142","0.1861255249406926","-0.281522249734738","0.7764053038442567"
"-0.08236298152777291","0.14306852519304994","-0.3556315222954051","-0.22731318935317385","0.9435421224709849","0.22423694862193727","0.02406951662322428","-0.34573094850103137","0.8559325161455392"
"-0.17329163934826367","0.01332659244345368","0.11022327846804703","-0.028707574486789924","-0.6839477409152296","0.054015332675766345","-0.18669245843064972","-0.4486073473051315","0.909293870063272"
"-0.1745433044813285","-0.1419451445147999","-0.14640082527568005","0.05789945397872061","0.4830717690762205","-0.03325297482078854","-0.16649118504169438","-0.4575123959320574","0.8770482494569359"
"-0.12793322056466225","0.0002411421468737035","-0.170109920150682","0.21111335073118595","-0.2654797508368796","-0.21756265008500222","-0.0852402702800474","-0.3941876056961403","0.8878185809214953"
"-0.08926639614629174","0.024797044913357158","0.049670084937118796","-0.045625973197570696","-0.14360827819879127","-0.4514462767169439","0.04000762473147584","-0.34013725869685874","0.8569948401898433"
"0.00460848883356687","0.021189579353769115","-0.007635912611930893","-0.007304688141864908","-0.04989155211650338","-0.4697449790869771","0.12159290539749176","-0.2741607428698126","0.830044496358192"
"0.11562926049774674","0.020922628979794418","-0.025164327327314488","0.3263448502869448","-0.6791372138345463","-0.30765342321237266","0.2506581444838934","-0.1324596513187791","0.7513017695050108"
"0.09625872197507612","0.1285160943004993","-0.03397882357526816","0.04795136236781195","0.14957300434389081","-0.19573768583915233","0.29657772868389143","-0.01753439190583244","0.7283555701480439"
"0.09740029834559119","0.046131261765755306","-0.010509297951616444","-0.12414494227827107","-0.08980935369795492","0.24866110520708498","0.2872990748376539","-0.03869014891048172","0.7281594487860185"
"0.09578845212819703","-0.04131939557005717","-0.028982978583749902","-0.16369469582284932","0.010004296632114447","0.007365533361838606","0.2798594334654456","-0.10548724847766817","0.7166373187670286"
"0.08990349817206635","0.00012168964490058948","0.03451319928488543","-0.1921535739819957","-0.018472587707297945","-0.05170699774144271","0.2823950415735765","-0.16056530405182023","0.7164411974050033"
"0.09697242143394967","0.008430078579964471","0.024572727555585854","-0.03875482930643985","-0.045358647494207725","-0.018433210096304754","0.28615665799772666","-0.1904598821090261","0.7240899305239923"
"0.07522358436374933","0.05048660385943588","-0.015503077690967893","-0.012905002561748351","0.11053354278164866","0.039405493382981216","0.2923702910539159","-0.24931895536684773","0.7532139527847579"
"-0.007763739597111935","0.0248095095222587","-0.12500894333184123","-0.08222104822149874","0.3412928515340904","0.35270160528710137","0.18740726090744014","-0.2976832639095293","0.8425635766341438"
"-0.2852097586309177","0.04504891822613804","-0.16412481937126075","-0.22622528230581815","0.8851935402684674","0.28787954423888035","-0.09984091477082349","-0.41463623587648857","0.9488776982987234"
"-0.13203483092378224","-0.08208489898255135","-0.07373079728206577","0.1823078827162448","-0.06412688300003799","0.17134059360108267","-0.06191824845031548","-0.40512432467646853","0.9215351117430216"
"-0.10856129558215191","-0.06495021661256449","-0.17316442810539692","-0.0513832158021612","-0.2611000172261082","-0.18814154016034543","-0.07994614346087284","-0.365453982126593","0.9499236788961921"
