"AccX","AccY","AccZ","GyroX","GyroY","GyroZ","MagX","MagY","MagZ"
"-0.1765170841142383","0.014116744776070618","0.19402708089294485","-0.5795640127925678","0.3686721698440494","-0.5303928003372594","0.263949189182558","0.1478594060586768","-0.5630709118952675"
"-0.14653489008067114","0.07854132234458226","-0.08133505576026762","0.14199755698811695","-0.16381727853177144","0.28203075475455935","0.2798872972908095","0.16772755899519576","-0.5350255571256414"
"-0.0828443911943363","-0.1334380489394972","0.038484679201664936","0.1842333819151045","-0.38562326300120997","0.5102548888232493","0.2912836018647169","0.05950813101494012","-0.5833040990775503"
"-0.026500203819758605","0.06676434436744169","0.006113297163403404","-0.14562388584155103","-0.31932893457587225","0.2774924824161028","0.28289659043013005","0.012154380583106658","-0.6014616685117313"
"0.07330275979416145","-0.0016628268628368864","-0.10974879507126728","-0.2629830620120498","-0.42417927855832877","0.011243936048516333","0.24196463097030185","0.02243674339766368","-0.6360934323560425"
"0.145544057177995","-0.2008196472264181","-0.11390614768305986","-0.3801785707506456","-0.08650421046490832","-0.013157407830758975","0.17793356028365429","0.06289864582548814","-0.706353910301627"
"0.08757848204643186","-0.03147547069006412","-0.00894776078828988","0.18713125820938833","0.07768075410675296","-0.1880177690965693","0.17478494801751343","0.09595946339448982","-0.6887356746130157"
"0.06928684035568976","0.0401316300144796","-0.03746083872851321","0.14369199628311347","0.1948063186846447","-0.3551718041679761","0.19194906444178467","0.14031320188889673","-0.6573235697952875"
"0.08996463719971991","0.019497508695384747","-0.011828994086209322","0.10460436254626153","0.08803655046402503","-0.12473192536933382","0.1955156340883866","0.15489109630779013","-0.6521753840421218"
"0.08443872820110551","-0.022147788362076617","0.03542397549044953","0.08607624650523406","0.1164880658546537","-0.20553258806268732","0.19579427234202734","0.1644953561602375","-0.6597587433737689"
"0.05304407820584141","0.007789501554166042","0.04493859222295248","0.04858677710343567","0.09191608499028756","-0.16211321351331545","0.1834784615311053","0.14669845157101832","-0.6849603383940275"
"-0.06916272847060512","0.004951621722507393","-0.020759144455504464","-0.059912214503510246","0.26243371356965434","-0.21026986485662694","0.17269516111520763","0.17859831465236156","-0.6813484366433938"
"-0.22318493719089208","-0.06112462039719946","-0.03950130786932348","0.1325626109137044","-0.07994657653402652","0.10104833691067928","0.1617725415724899","0.24891521714349435","-0.6554113865155402"
"-0.22349303937749268","0.025395346140631186","0.2689213854702157","-0.19616823981161816","-0.39823593848140965","-0.31308964248410664","0.15271679832916513","0.29109216597354165","-0.6296377708560411"
"-0.11005366554849837","0.11357933796681775","0.09683631392277155","-0.31060065719985025","-0.03162590899223705","0.22561784539230184","0.14380037421266043","0.3325962889073322","-0.5791365201345114"
"-0.05775331937305306","-0.04553347209618694","0.01857337653621364","0.11976766873728167","-0.39495712151596873","0.47904516568284783","0.18609766111532863","0.2536381910819232","-0.5904134984509696"
"0.04113496587439657","-0.027582357843149066","-0.015546447986470945","0.10120585646027415","-0.39330574654797296","0.3463189014100208","0.19702028065804636","0.16487794343457948","-0.6380546459762961"
"0.17896447905015783","-0.1368865907355906","-0.11435843790759168","0.11717787231481538","-0.02079504316953432","0.16859093447837079","0.18244749999263454","0.09390140771182252","-0.68724842095099"
"0.09791646579008045","0.041404058839845374","-0.04906962115816353","0.16915672318803304","-0.024685347532544664","-0.19098584774359198","0.1913081964584107","0.08971933302332553","-0.6795996878320011"
"0.09877876678482878","0.023449828434582123","0.009804419098538172","0.19020242943156956","0.3193223845685813","-0.02852783244486617","0.242048222446394","0.05256878941825419","-0.6465532383307282"
"0.0891884122533531","0.06270815288739813","0.03990763794459841","0.0738214068540915","0.16133366607248684","0.2087073204434436","0.26548169957758205","-0.0005739022543126665","-0.6338216932459154"
"0.07721373192532235","0.054032785091924676","0.06565720196041058","-0.04376401547227336","0.032098018395959396","0.3386499492231103","0.28415046257151333","-0.05542900179617579","-0.627218940724395"
"0.04638040560127114","-0.21721060793194627","-0.21709440694565527","0.06026492974451975","0.25597181152097526","0.15965272216685455","0.2693826351285529","-0.09953076039610224","-0.6423202856003476"
"-0.1637982407236339","-0.09357934582459027","-0.021940468694920938","0.0854292787744172","0.20413299730823825","-0.3407803843995017","0.34065830040986017","-0.09212439847142644","-0.580623773796537"
"-0.13553949329636364","0.04806223742808591","0.09957277304379747","-0.05678039005656494","0.2005669846961894","-0.30961919893116935","0.3557883575825538","-0.009815363829366812","-0.5629238208737486"
"-0.05721414054650208","0.12090229569647384","-0.15594229028635154","-0.3621462707533245","-0.0922146172382966","-0.09867690300266586","0.31864587837224007","0.036258698133115816","-0.5683825321167876"
"-0.12119348523277496","0.04065825974056976","-0.055471902875280775","0.039114283794645356","-0.22892213832074118","0.4290513634517226","0.3418285810751516","0.02922436935107603","-0.5387028326636168"
"-0.052294133754224356","-0.056977021785211246","0.02426438540708082","0.24025578110592752","-0.296664411464394","0.55663263448523","0.3276180301394724","-0.06022189685715675","-0.5800844400509674"
"-0.011547619576300072","-0.03358198959442477","-0.07102738219570885","-0.12344213507068727","-0.17413478213616246","0.2793369139547269","0.29738577961944973","-0.12034350812030697","-0.6009550216598325"
"0.07318529583552","-0.09895574713078888","-0.026956966208107315","-0.3829994270769751","-0.3522607020535852","-0.1946358806831848","0.2701906860641112","-0.06604645829239787","-0.6343937138851561"
"0.12571671865091577","-0.1566014471481967","-0.0938670059084829","-0.081332430341225","-0.05566897120743355","-0.45758629223367914","0.2221255873110794","-0.0263009175541172","-0.6897979986573195"
"0.07377742972539295","0.039248720217287016","0.010680209932396476","0.10336241556299702","0.16952592189197893","-0.38521662317872024","0.22502342514894316","0.021021170482598276","-0.6711010954775687"
"0.07878794153498458","0.060088507583257324","0.015139275233238624","0.11489615576416663","0.11300103204542204","-0.3624767238143687","0.23527731288292333","0.10115737325968802","-0.6425981241965503"
"0.08863652421160485","-0.008486577005986231","0.02068303162461211","0.11662910504314036","0.021043379298607952","-0.28282640394905173","0.2265002078932393","0.119877764373181","-0.6434152965383224"
"0.092459205809918","0.04921936862111242","-0.02114534661069831","-0.05692191424768114","-0.06506744874267907","-0.176189138413341","0.1913081964584107","0.16603889792223797","-0.6596606826927564"
"0.014097073361531041","-0.07559603133189009","0.008210209645932644","-0.1271005835485207","0.245608835272538","-0.12171288216663868","0.19069519230040105","0.13995699994381966","-0.6586473889889586"
"-0.3096846260789998","0.018524230483655982","0.09896558890675475","0.035105394462619455","0.12762647034893246","-0.029911156098834196","0.1903608263960324","0.20946914989237106","-0.6073126224788212"
"-0.2647209632219803","-0.013164960213698448","0.1201736634077473","-0.10887573363131361","-0.15664696055479269","-0.24017635150197433","0.17244438668693116","0.23450882736482326","-0.6236397258674322"
"-0.10986110168187302","0.05652259072000775","0.06845561864644086","-0.18807151568041316","-0.10964021309623465","0.2452391993262167","0.16375087317333928","0.266751699726611","-0.59134507492059"
"-0.016506139141902864","-0.0025344146402772327","0.025853183899009303","0.05194484770624699","-0.2260980477957629","0.4322548498082802","0.18645989084506154","0.21300478401387646","-0.5933716623281853"
"0.06811701486594077","-0.010728129173446925","-0.058452061751990504","0.15952922719373452","-0.12124531051625134","0.4185914951208416","0.2071069854398422","0.09722595919920815","-0.6198153593079377"
"0.12366398783268952","-0.08215760920114368","-0.10511436920894111","0.10818579105614057","-0.12797286853804282","0.09298865646361293","0.22485624219675884","0.020894520902126443","-0.6251106360826224"
"0.10555720745390776","0.030216033633302684","-0.01830355962916498","0.05995781262230164","-0.08504429926131785","-0.034939658925188154","0.21145374219663815","0.03361488814076627","-0.6406205671294611"
"0.0962673969772676","-0.0289295743219241","0.06312520280389906","0.23769486717144414","0.1915586145809197","-0.1099424966898932","0.23176647088704957","0.004761211323063332","-0.6239502513573058"
"0.08344124737198619","0.00029827160433910585","-0.018338668916000785","0.19053939179137003","-0.006200717727739762","-0.06434863443182771","0.22981600311156444","-0.023927557186733565","-0.6220217246307231"
"0.08150116641573578","0.04199301161044325","0.016066366930920537","-0.21240019805800547","-0.0024602337603765747","0.12649906526008753","0.20025248440027937","-0.02206607220709025","-0.6358646241003463"
"0.026256518719588826","-0.05068966531179161","0.017887506291615368","-0.4519900633721182","0.28567262797434856","-0.1305637266684306","0.19236702182224574","0.026266573940473395","-0.6199787937762922"
"-0.16115048755753533","-0.13850698989279112","-0.25290587951817556","0.24141108062524336","0.5321822246461818","-0.2965382963085594","0.2119552910531914","0.05391444121076742","-0.5818495323091956"
"-0.0408558400766785","0.026292797981542233","-0.0151437238139426","-0.0045908895709920435","0.262529445451857","-0.31697265624963095","0.2253020634025839","0.07706756764077459","-0.5530687224319742"
"-0.13790802885585543","0.12597123664976773","0.015662197081875426","-0.03168054524982931","-0.04975274088730954","0.15381606710055087","0.24332995841314126","0.1116059636486143","-0.507960809166142"
"-0.08345096737420618","0.050838729060904454","-0.040624805048069215","0.20027279024160585","-0.162646956271844","0.40085097597960256","0.2577076923010048","0.07106490523299495","-0.5145635616876623"
"-0.09365685230534977","-0.034643558785872795","0.01794781165488628","0.10499908988202776","-0.25056951018381624","0.5075125103513478","0.2630018191201794","-0.03914397657383912","-0.5557490477129874"
"0.005859191147298517","-0.03033599769298146","-0.025480310908836727","-0.1832000027072981","-0.28381240627868776","0.19294228455541498","0.23616895529457374","-0.09074972281672174","-0.6010530823408452"
"0.07123943796327081","-0.036145544158508645","-0.08593850284009157","-0.3928098454951653","-0.24146780148339897","-0.07972536894330388","0.21019987005525453","-0.0328299672807329","-0.62978486187756"
"0.12196942580638642","-0.15995650437752856","-0.07365438295189373","-0.30717326862587996","-0.1826070537110973","-0.24625326804501985","0.18620911641678475","0.05609123087512708","-0.6418299821952841"
"0.08067025333124739","-0.029707573660862033","0.020897817849960556","0.13485395496034744","0.1514373827497875","-0.3796105220547446","0.16483756236253827","0.13387518154824513","-0.6238358472294575"
"0.08076172116789443","0.038169492829895145","-0.013605110949667655","0.2589331233348667","0.10600303145640808","-0.28658807353440335","0.15976634614627624","0.13458758543839922","-0.6285100730243952"
"0.08835287763606571","0.0005536922150798774","-0.0011877822967104237","0.1435860938271762","0.11159855997115319","-0.2296994949858691","0.15940411641654337","0.13615751252966465","-0.6311577114117377"
"0.07355790691744005","0.025125279614431104","0.05580388387255047","0.021735690775337112","0.08738078707093684","-0.2930435839195875","0.1420728170400878","0.1666721458245972","-0.6326122781800924"
"0.0026963296379771268","0.012524598732380278","0.011663806929362364","-0.06611713567183564","0.15032449961918168","-0.11390802449793487","0.11537927234130255","0.19697569648540997","-0.6377277770395872"
"-0.2836211067312585","-0.010963918025167767","0.11394692812480908","-0.1471161477206673","0.10693881060493898","-0.08011609720345977","0.1268313045659381","0.23126343186523254","-0.5862295760610952"
"-0.24183474767355737","-0.1215135730903551","0.06688396174749692","0.008792196335722372","-0.14154525613732405","-0.1564585747172707","0.10596129936824489","0.24408670188800569","-0.5960356441623631"
"-0.14293394577477708","0.027783357462685003","0.0917909028792498","-0.12608969646911936","-0.0890363187491685","0.057272210471599846","0.1035650103869344","0.2703796825005437","-0.5799863793699546"
"-0.030755865272178846","0.009767842730322501","0.042683336856793756","0.0982598426860188","-0.146233725068199","0.34661012744243513","0.13106660602127762","0.2227805485065461","-0.5868179401471711"
"0.058157611684077605","0.0205227227775366","-0.0182209495424925","0.11017868272696037","-0.2606692237561962","0.40706379800444137","0.1577601507200629","0.1479649473757367","-0.6032594476636305"
"0.12252786101959993","-0.06801235553271005","-0.11480040187128945","0.09265856551653595","-0.22127316093274912","0.3764850646009376","0.17592736485744062","0.02949218044311544","-0.6470435417357916"
"0.13924047900401415","-0.035504655517487674","0.06063657394289058","0.013966301507938216","0.06266520838326672","-0.08795978500981882","0.16754035342285345","0.028134655252432965","-0.6580263380092117"
"0.09679304819218815","-0.0423072158255044","-0.00913487263460305","0.2896640905486675","0.25680946549024847","-0.11202233593805215","0.2090853170406916","-0.004324576809327508","-0.632416156818067"
"0.08723369644323917","-0.017715581180169856","-0.022310148832780284","0.20667507507781435","0.09811951095701951","-0.03435477997675606","0.22722466735270508","-0.046221841149166096","-0.6152718810876836"
"0.09710769755025399","0.06067330548422134","0.022934982587303927","-0.14973482663111648","0.1474429699648818","0.027501629308045828","0.23527731288292333","-0.04902660165003193","-0.604779388219327"
"0.06383150601419357","-0.07152945267776192","-0.06815874693600697","-0.04817340863766208","0.043873039906885805","-0.02316927344844266","0.22482837837139488","-0.014887943380556407","-0.5977353626332497"
"-0.18201478250639205","-0.0761434354061495","-0.18185707447550872","-0.09192941518214937","0.5751179738140721","-0.5310480589101918","0.25489344593923324","0.050959284333091284","-0.5474792636142516"
"-0.11068912630836208","-0.058691944226581784","-0.0731814402056938","0.5141387871517314","0.07191051490698801","0.19808727779473467","0.28066748440100386","0.046081956218462436","-0.5262654696218421"
"-0.05334360682733252","0.22598933591056022","0.0800850535977593","-0.39504342456584257","0.14350120971518754","-0.44642262765779683","0.29281611225974125","0.11247667951435819","-0.46507560466993025"
"-0.20871376261399702","0.025081653483275703","-0.08492446402618689","0.010609193654726328","-0.6297874285590782","0.4617657544262648","0.2849306496817076","0.10343970424110754","-0.4706487200408176"
"-0.022100119467369325","-0.05701960919895819","-0.03820846001289916","-0.014218193015370667","-0.25944864225811237","0.4628335832117839","0.2745095789955431","0.017602951076322013","-0.5373136396826038"
"0.0005193951257775443","0.021731789840986206","-0.055172441311093036","-0.20074130040890995","-0.26631740480615274","0.24718070620897883","0.26732071205161134","-0.013748097156309905","-0.557121897247165"
"0.11215733398249166","-0.05537012595432075","-0.12590732802440446","-0.4222411007497358","-0.4737444605687527","-0.0424969744663398","0.2333268451074382","0.014518506085247546","-0.6002849403395792"
"0.12012658960278182","-0.18601792415583662","-0.07139293182923459","-0.2506887496273306","0.03057827476599226","-0.2943055633933829","0.18267041059554706","0.11913897515376196","-0.6149286687041393"
"0.062386314195170316","0.00022836592274962252","-0.006450870918614156","0.1427870116596494","0.27949792157227743","-0.43239524042984034","0.19654659562685736","0.16582781528811827","-0.570621584333244"
"0.07057894390074586","0.07967975662425647","-0.027328711598133475","0.1648243499905987","0.0359584065457814","-0.2534853811833088","0.18732366943134798","0.21880955645216887","-0.5498817502990622"
"0.11353705408686231","-0.03400578629707721","-0.011878560138212809","0.18462810925087073","0.15864838677670243","-0.11903845643563385","0.18406360186375104","0.21650084014148435","-0.5702783719496994"
"0.07263552599630461","0.003736093836777155","-0.0008145912301674946","0.3399677571188772","0.1742431103875147","-0.15392733511886955","0.1788252026953047","0.18223949009092677","-0.5960519876091985"
"0.014040267020876558","-0.029102001411728768","0.043790312018205","0.22131849648514237","0.7031832992306721","0.13952657644342153","0.24962718294542263","0.10581438387495443","-0.5743152033180546"
"-0.21540535697922797","-0.005629273158789347","0.06167539578279702","-0.06915461065803681","-0.1297247619823514","0.15693218564738412","0.3170019126757596","0.08739742404800856","-0.4990699740876591"
"-0.17259840942841245","-0.14945507137797912","0.00536836070683431","-0.16619784478136693","-0.5999908802235023","-0.9235722129326281","0.2349986746292826","0.17651387364042925","-0.5306618568205771"
"-0.14702592794056576","0.14289194323361143","0.03949045700690239","-0.20821223730048563","-0.11382130305143555","-0.05220936264735742","0.10838545217491934","0.30367796803293007","-0.5398632173889335"
"-0.05355542708062042","0.01772961166618266","-0.007164622067464388","0.06765114467134557","-0.3068119909778753","0.3218073770151488","0.11393035342237066","0.27654065688391316","-0.5577919785674184"
"0.03834375262766211","-0.06015757448992147","-0.01566829786431285","0.14504947321830955","-0.23627913346801513","0.45497048033659726","0.1393978898051363","0.18420519712116667","-0.6057436515826184"
"0.10555720745390776","-0.0289513873875018","-0.13183666699532176","0.10046453926871318","-0.045858846578716604","0.3540849289410694","0.16539483886981973","0.09329454513872833","-0.6282485778750282"
"0.1255771098476124","0.011392292885416003","-0.009623924347704132","0.004783692103536243","-0.06252098067608847","0.01847386499156221","0.20426487525270637","0.04674290871654982","-0.6299156094522436"
"0.11170095761858959","-0.04583054527500703","-0.03743399045034465","0.2198166071100318","0.1528326749328912","0.12790180398288317","0.2188376559181182","0.011213743594810635","-0.6340341580547763"
"0.10199949373607109","-0.044443857534710446","0.04013894618728135","0.14956476883963557","0.1394565376921254","-0.014970289882538127","0.23034541579348197","-0.010018530864707047","-0.6207469357775582"
"0.09888053678834027","0.05266791041720579","-0.019009875870214687","-0.15011992647088843","0.14241943944629754","0.075522375169564","0.22755903325707433","-0.012992157472868639","-0.619864389648444"
"0.04618880455397891","-0.01640368109328253","-0.03702713577348269","-0.08094636775185363","-0.03734828225090069","0.1289769134192127","0.22672311849615212","0.017357567514157825","-0.6110225849104676"
"-0.20118451542894575","-0.18733709526458317","-0.08116157457825539","0.09797101780618986","0.541204954543782","-0.6651333780009523","0.28833003637612464","0.011726938249014213","-0.5554875525636204"
"-0.0956306319382596","0.14357749672319625","-0.01631472179252501","-0.043717803491500735","0.28349472765423817","-0.04278334673154721","0.29749723492090613","0.07445542004354302","-0.5218363955294361"
"-0.15016471896655903","-0.1086750259217665","0.04639252974838813","-0.23065393046319543","0.17333605080364453","-0.26979403899851084","0.3089214033201774","0.06404640764851414","-0.5157402898598145"
"-0.2146736142860516","0.22770321963452228","0.09492182516413682","-0.04692472240720156","-0.2311598710672282","0.6078641473541161","0.3415499428215106","0.12039227829384783","-0.44394352791169794"
"-0.02464196250682395","-0.1378733722736294","0.05109304368005227","0.3014577731416832","-0.48918122657393065","0.520472068793785","0.31025886693765287","-0.012870784958249806","-0.5516958728977968"
"-0.026991241679653232","0.04057308491307589","-0.016539834278707522","-0.10401384815419287","-0.2351901833079599","0.20626587553837017","0.287689168392751","-0.09477216626316573","-0.5871284656370449"
"0.09950781358387235","-0.03270635081909142","-0.09720651866221794","-0.27324597274197204","-0.36082870551072266","0.06064557868039907","0.25857147088729127","-0.07623515318806426","-0.6260748994459137"
"0.1329051277920401","-0.17366757416922513","-0.07777456102468369","-0.3881019999539533","-0.09400480343548621","-0.42877918386069586","0.2094475467704245","0.02467158078640625","-0.6525349398725017"
"0.08732150556642032","-0.012181294827885067","0.0033665117815434254","0.10010832191692413","0.08240033589934379","-0.3613118196847114","0.19805124219651715","0.09591988540059238","-0.6331189250319912"
"0.07673809917475773","0.044195092516382393","0.009456754548777039","0.15793106285868097","0.09362968568171506","-0.32333109129067694","0.19008218814239167","0.11891469985500974","-0.6207796226712292"
"0.08749577586571627","0.012528130371569048","-0.016859948364563386","0.1395521730055651","0.024738629951630387","-0.1758226789892196","0.1638066008240675","0.16011539150225326","-0.6439219433902214"
"0.08026201793400164","-0.008588371312015492","0.010227258827171265","0.07422864993465031","0.05239317742292198","-0.24404480396587794","0.14318737005465107","0.17089379850699163","-0.6580099945623762"
"0.04090388923444615","-0.001599465100920713","0.031673477555518914","0.06194781604432314","0.06768155901068577","-0.13103939585470736","0.11429258315210387","0.15957449225232148","-0.6752196440801014"
"-0.1839693057526394","-0.002324178236804553","0.029536561138518526","-0.22016958732540437","0.35359439839713136","-0.38820169001096705","0.11153406444106018","0.21231876545298733","-0.6382997976788277"
"-0.15269693381268237","-0.0751898928251815","-0.10194627238505148","0.048275808982819815","0.009067081505350466","-0.08344578150739684","0.06817795217455724","0.26469364404394363","-0.6266469200851542"
"-0.1458224037741573","-0.04898928491413955","0.025886227933678296","-0.007589276923456372","-0.07563624853785203","-0.017903178717310685","0.06845659042819799","0.27221346288445886","-0.6346388655876877"
"-0.08063953492147603","0.035351452500738116","0.01805458519191046","-0.13243421632936206","-0.20864373237316405","0.2313865477177089","0.07723369541788201","0.27012902187252663","-0.627039162809205"
"-0.031160249392092082","-0.010850697827645426","0.027777585868044737","-0.03602928519045394","-0.24697956460121673","0.4315267847272444","0.1190572972893606","0.219060217080186","-0.627039162809205"
"0.0909719387860371","0.0008814075574495945","-0.11091359729334925","8.614798303817168e-05","-0.31011474091386687","0.5651024582612798","0.1243235602831712","0.15689638133192746","-0.6578302166471863"
"0.15353064354628146","-0.08283381423405234","-0.07484396819997746","-0.09425445546477246","0.018547170470173756","0.0707632564231933","0.15976634614627624","0.11606508429439345","-0.6592684399687057"
"0.09857272344753966","-0.014582809476248888","0.012710125634634334","0.19219532110238935","0.09279921160360706","0.0002605889243705423","0.18099858107370265","0.11764820405029139","-0.6460956218193357"
"0.0937846229039003","-0.02279802545977374","-0.02330353512501686","0.3433373807168817","0.2736104108168142","-0.07139387753265085","0.2235187785792834","0.05281945004627137","-0.6405551933421194"
"0.10309316021656978","0.02236540746014794","-0.007911210725766931","0.14580041790586484","0.17475288266024383","0.05589131370123527","0.24018134614700073","0.008700540982322673","-0.6327103388611051"
"0.0805267932506115","0.10150736424567398","0.05958329533781646","-0.19449305550861024","0.2390512013416562","0.12052893159559394","0.2711937837772177","0.008315315175054176","-0.6043381151547699"
"-0.0022275284316330825","-0.15104430901292576","-0.28667275244555196","0.038966983105932586","0.36364624602841","-0.08440925429796756","0.26163649167733966","-0.0031491103905732856","-0.6120685655079361"
"-0.06767998669758991","0.036086864425929115","-0.04010229624986577","-0.10043241964431382","0.07112551347292624","-0.1812855939805916","0.33188119542017613","0.027829904699422602","-0.5415956227534909"
"-0.10241850823680324","-0.04789239933080382","-0.01604417375867264","0.2792086298988593","-0.08086081600906186","0.17997544546216732","0.34728989084651046","0.011850949296559546","-0.531609776737033"
"-0.0576185246664153","0.13350193786111622","-0.13348680347660455","-0.42279949551740514","0.04328668212839455","-0.13689061222263174","0.3553982640274566","0.04401334640408917","-0.5011619352825961"
"-0.13376790572341038","-0.021989903315990413","-0.05067638734394328","0.21764079301532036","-0.5087344635138227","0.5478715846767658","0.36052520789444686","0.013365467196368556","-0.5144655010066497"
"-0.02214826043402567","-0.092852243638667","-0.0068961392857788285","0.191376983942874","-0.3228231482762692","0.4065298836116818","0.3280359875199338","-0.11050309957093811","-0.570376432630712"
