"AccX","AccY","AccZ","GyroX","GyroY","GyroZ","MagX","MagY","MagZ"
"0.04925057003332199","0.07145519218405545","-0.11830100429403581","0.13235080600182983","-0.30166640230948266","-0.4867331643111458","0.3739834355452958","-0.05210181177586364","0.8091412278556558"
"0.12327308318344005","0.009139730313425614","-0.0435450716119414","-0.10737384425620304","-0.23126278284059604","-0.22663191411110492","0.40583178793643493","-0.01564916012985066","0.7339777158594374"
"0.09305432443972365","0.04574278145499057","-0.025868578316197384","-0.09434880492551659","-0.002119188930029621","-0.20166898936599065","0.3418564449005156","0.018366806358542754","0.7587870681556453"
"0.08983677479228067","0.04646469005387156","-0.005244970178412623","-0.2652647785626986","0.04457427594402023","0.09716532314515498","0.3374539604929914","-0.020395880864617934","0.7656022854860264"
"0.09664034504595424","0.023580706828048317","-0.0005636630918998351","-0.39767173097228603","-0.043207073441703096","0.0060387560958310256","0.3679648492666551","-0.1361799827451392","0.7550444188303279"
"0.0877466865839291","-0.018501890258375488","0.10079127182221656","-0.2051795760622816","0.20192398412641202","-0.05700003088057301","0.36016297816471365","-0.25517649846367","0.7859008464556508"
"0.04742313893904741","0.014024922157162587","-0.001734248020048883","0.11487690077217803","0.22167107812776438","0.09622854607422227","0.34528369542029713","-0.2831581401491659","0.8614892880695909"
"-0.20290796203524267","0.08783264956327362","-0.19583263588832556","-0.036945822809111156","0.6671881115224743","0.6424472387033168","0.2505466891824373","-0.29850120911674327","0.9926617923708847"
"-0.08222818682113517","-0.04470353688682591","-0.12216715635030789","0.15235674267798213","-0.1898946432437743","0.05603692671744243","0.0813018139210372","-0.32455672176589656","1.1194705963671139"
"-0.10914861537535928","-0.08904118946702042","-0.20815186506335928","-0.15713837105073203","0.6547190338655786","-0.1577812262811524","0.04524602389992249","-0.3053218167317368","1.1318589290683825"
"-0.1304654354107856","-0.03570928284695466","-0.12581439167689792","-0.04090272366276784","-0.47372052759820205","-0.2887722687775108","0.012283118494219777","-0.31356723212703846","1.1324799800481296"
"-0.022523759973945085","0.02933416255351856","0.021869312469228932","0.020031623984346277","-0.4583794934752268","-0.48879601537408063","0.23513799375610295","-0.2400577047948448","0.9575233816746747"
"0.026249778984256945","0.03141886839230151","-0.018489432324178063","0.2736054272301776","-0.07616516718702171","-0.11776191566021774","0.2747603534238196","-0.14407183472829038","0.8732238828974417"
"0.0859062574286573","0.08623821834128466","-0.07150858595057605","0.4673106466354635","-0.13131391122691546","0.08593127894477254","0.2701628222387469","-0.00748817778819685","0.8259913215430013"
"0.1055841663952353","0.188875962906218","0.09677229110560039","0.1447510208424863","0.0658315403871195","0.2638533965646988","0.29746937109554183","0.07615727378113327","0.7625297174809624"
"0.07675061582608837","-0.003559109363724858","-0.026463370940239244","-0.2765000663880449","-0.03429922180274616","0.3888864398145808","0.3428038149628942","-0.031055553887663973","0.7604540997328607"
"0.09969594848156532","-0.04279749044229839","-0.06505673818145533","-0.2762690064841818","-0.12030474477361026","0.11351766486521914","0.3696366787884998","-0.16017743971162526","0.7459901492834905"
"0.09789749824921785","-0.04076783662616393","0.07772447037109317","-0.19682290953923048","0.033292273626437496","0.06074508090814063","0.3558719490586462","-0.25661449890861066","0.7454671589847562"
"0.08365980736060596","0.006029291033786574","0.02169252688374982","0.01601118165712722","-0.17323490244345752","0.09057876104538441","0.39234569646022205","-0.29711597933033257","0.7512854260581753"
"-0.04506336056244243","-0.02226204727700742","0.09987843036448565","0.05070963997017849","0.5231116288074804","0.2529324203491617","0.3225746777485749","-0.3500713351651182","0.8504084311151582"
"-0.2892054588633937","-0.000403693620299419","-0.12343522118073048","-0.16813297147622094","0.2661911899461085","0.13047430060254303","0.1207848544619332","-0.37852791277738335","1.0134343132987371"
"-0.16480920102341695","-0.046707222767748836","-0.1523735345421004","0.025811009829723675","-0.19700512879437643","-0.05256368765346151","0.22789339916144327","-0.3759157651801518","0.95003808302404"
"-0.08525143952715318","-0.07354456445017793","-0.11975494181947148","0.0022838164936566925","-0.05105948107937576","-0.06798895983700673","0.21995220893268144","-0.3827231801305129","0.9315046143126439"
"-0.026346152726458304","0.012592738594375376","-0.06379073860319956","0.24021727112195035","0.32506629750074056","-0.38740081842182766","0.21685932431726881","-0.2609153075788","0.9046196442683345"
"0.043760574195833235","0.020698266019566657","-0.03382599491492407","0.3108445817361242","-0.30539994571538615","-0.313477943860659","0.21092432951472062","-0.139026959772829","0.8644311084999714"
"0.13364072176254893","0.09723096467503652","0.09601021305604675","0.14360534881916479","-0.15363379956246415","-0.09320185359327662","0.3090607224469978","-0.023163701904512814","0.7460718665176678"
"0.10823769647733264","0.07915935920261707","-0.06836114164835455","0.10131175891621144","-0.04669410725093475","-0.10952992647730625","0.3268935706800066","0.026947315435509524","0.7122899619087999"
"0.07651183663147294","0.04706402999855405","-0.0213146972883769","0.022218991074250898","0.15102812895337117","0.06970998893929484","0.25483771828850504","0.033802223978547534","0.7621211313100763"
"0.09231776764988169","0.0043144309154605496","0.0398890506750971","-0.06657540448116425","-0.04027767784630189","0.20885050657604728","0.24831758315331112","-0.0020277338968122597","0.7782521133366619"
"0.09766545878993431","0.023472680217568286","0.01606037769963678","-0.1342634405682788","0.042829562390876874","0.14418619296205068","0.2509646465628984","-0.05767571258308759","0.795968409706286"
"0.06744400415208515","0.014348586501639303","-0.04100481144676263","-0.17230167724175222","-0.13077302609247046","0.06495087019292412","0.2528872505130196","-0.1334464626332888","0.8218400860467978"
"-0.03398131003815347","-0.0014100030456172695","-0.20028325430780547","-0.30660524636221637","0.8663343594745446","0.3357376888989671","0.1587632484331694","-0.25174640565922457","0.9087545363177023"
"-0.3355170687867906","0.028714048260666834","-0.06103569221267234","0.03046686689256643","0.19710149056045334","0.2004753312605321","-0.153645961548855","-0.328804759777556","1.0693289014759642"
"-0.09301176335215484","-0.05416209760827961","-0.09115739506562552","0.09163516269234202","0.037954416289706736","0.04926834834741291","-0.012766460508084745","-0.26698393330974207","1.0239594930607647"
"-0.12373532827222962","-0.04811260742139774","-0.21566938295055493","0.07665574167481297","0.12533608506723398","-0.27241507329023973","-0.0681876091572326","-0.2269310034855245","1.0479026426746938"
"-0.04826954894175453","-0.0010908051859969395","-0.04704154353035414","0.10978395539119414","-0.420182472476368","-0.3135022126966936","-0.05456219855419907","-0.15187793439133038","1.0037099624316463"
"0.026456785140879194","0.05156271509460237","-0.0027189602531848497","-0.08089823027188213","-0.4088621774059042","-0.33464036888276644","0.08681885134312428","-0.11056114729532103","0.8901556938189643"
"0.11868813751909044","0.045326255774197355","0.002198818206427914","0.22273373839630425","-0.17975185032440316","-0.21058535972507578","0.2016735394938473","0.005418206021760969","0.7978479060923623"
"0.08426445790180956","0.1519599462094835","-0.09992232526157571","0.09259791229177187","0.0859472021349521","-0.08575860158148725","0.21281906963947786","0.05482473507040874","0.7664521447214697"
"0.07682186445673975","0.02004179661741876","0.012225493561170227","-0.17407313650470313","-0.0835317355225159","0.2846275202102537","0.19665805092831348","0.003638515562839065","0.7798047407860293"
"0.10130327907628714","-0.06373907211429797","-0.06866060321254229","-0.05332123074581349","-0.13319025611808746","0.22921448689261872","0.18230818086581416","-0.07077470929667967","0.7809160951708397"
"0.10328659062059493","-0.04272685765852299","0.13172874928106051","-0.11769451996209104","0.0325383850540916","-0.01182310722558069","0.15436076402564528","-0.10397800764371216","0.8036988600594522"
"0.08496827883432523","0.030210840046260373","0.008835753874738334","-0.10673842952057935","0.006097717849129654","-0.09501716252865922","0.20551874739408965","-0.14712461732424686","0.8047938709974273"
"-0.0455736548089996","0.05842552101230988","-0.41366510818282265","-0.4451930512001434","0.45198284033090874","0.24985027817277683","0.12691489604203027","-0.19585832047663798","0.8723086498746566"
"-0.26577043629508845","-0.028616920381977082","0.07969059043389821","-0.10497659775362272","0.7100041958376111","-0.014173786683884956","-0.34108591477299693","-0.36513735817541343","1.0557638406025436"
"-0.14730514554717256","-0.1523219314253339","-0.12365413791041255","0.34024695450271186","0.07554832643068884","-0.18085360869917702","-0.24919101872227292","-0.28021617593612225","1.0367073815924128"
"-0.12651787614496587","0.00325146984268519","-0.1601264911763127","-0.06721467021518567","0.04080961967640088","-0.19438833855563262","-0.2547359199697243","-0.16878961118371","1.0579865493721643"
"-0.02333252821377157","-0.021168277845897084","-0.08063287002355152","0.029593653005883555","-0.9277289789442874","-0.31765218365859765","0.01715928793293323","-0.14663253093345527","0.9160764004999822"
"0.0720770907830911","0.06055177554743131","-0.0726692576683244","0.44807490963885516","-0.009534341195741671","-0.2555239634102091","0.1398158471855977","-0.01698293852419466","0.8158420410581889"
"0.10002513641156136","0.09031206801727205","-0.16558288740103005","0.24591674875057506","-0.24887026927471914","-0.031481349790268086","0.19897074843353182","0.09547133480308796","0.7288458735531074"
"0.07568381200498393","0.13127908260700785","0.12163999244618381","0.04164824074034472","0.12818889515687307","0.1891005278111494","0.17250011433765935","0.137041421060041","0.7083675346682928"
"0.0900754577049628","-0.021431073350237934","-0.020893385846347243","-0.11300592941286768","-0.008001913091382692","0.41364065256979815","0.2011162629865655","0.05398040453392984","0.7187783103024722"
"0.10482026553633253","-0.032932791214136115","-0.003652660757800562","-0.16264529875947079","-0.09540488221270003","0.1268533902661916","0.20404196464979352","0.0026899629757635617","0.7318203808771585"
"0.08822048997776077","0.013770644135571126","0.01706884033269109","-0.10231940885919633","-0.07552376357626392","0.1929981028782944","0.20891813408850698","-0.06208602036972656","0.7389624671442486"
"0.0765753827074593","0.016566248168705375","0.03484570488374217","0.02064970922718024","0.01317589388948836","0.25921804888210415","0.1964072765000367","-0.10058881209962736","0.7611241810531141"
"0.0037698731944134705","-0.017616903026365986","-0.009745154649895999","0.016681255378330397","0.18507756615580004","0.23545643152069898","0.15143506236241727","-0.16447956764827787","0.8214968736632534"
"-0.46699967691858024","0.0601871857370612","-0.06986877573012731","-0.13647776464696745","0.0980070259954314","0.7469245778319545","0.013481262984875179","-0.20083063577662075","0.9150794502430202"
"-0.1345959303498994","-0.04428285633639886","-0.1321733030985121","0.009761107532588574","-0.02395969986544855","0.25273826966088553","0.019360530136695146","-0.2378149518073228","0.9057473420999802"
"-0.04666164065543283","-0.09352325508453334","-0.09790663914676719","0.16131994144867404","0.27128891267339983","-0.15873256465370586","-0.002791211027745626","-0.22673311351603728","0.9002069136227638"
"-0.047431896121934235","0.011607099645485916","-0.008141073291933108","0.007721137406356662","0.08887420443329823","-0.7500985729578306","-0.041577655934539784","-0.11060732162153473","0.9124481553025133"
"0.03019156133407788","0.054289348291814754","0.004873526287666152","-0.014505092396000764","-0.6059501898906176","-0.49105301712529165","0.10618420997115742","-0.06347125015613725","0.794579216725273"
"0.10569103934121238","0.0367599533066124","0.04876137398372151","-0.20326370435941618","-0.09425370632921312","-0.3528905335807306","0.1736703950029505","-0.06765068631170776","0.7407765897429832"
"0.11237493115177831","0.053419941820932175","-0.08145277513377588","-0.04868751692375762","0.019851517365184913","-0.12828002919758164","0.17252797816302332","-0.04720205613135956","0.7389788105910842"
"0.0887333838365174","0.034005274739371545","-0.08429043161097559","-0.028660399756417862","0.1751023040302835","-0.14823871995237647","0.1315681548778312","-0.022168974991223618","0.7552732270860242"
"0.08477764060636613","0.0102812807453252","0.07673934508752385","-0.12613783394909084","-0.004496929554238033","0.004639900386800902","0.10167027026217716","-0.04885245847688315","0.7745748377986865"
"0.10544455759193191","-0.01992077823833439","0.03337937584530564","-0.0132968416487163","0.05616501358170654","0.0014767002980606797","0.07079715175878026","-0.10152812982146013","0.7956415407695772"
"0.07542481360437284","0.08376503219173698","-0.065137283015961","-0.03027300533546286","0.13192722515688668","-0.10138773198772251","0.007184038452593801","-0.08012566998818342","0.836271349602497"
"-0.2173213674521502","0.151347102938491","0.058455667654737094","-0.27918613777045426","0.37422461901180326","0.6694827220457795","-0.10477281186026514","-0.14272618293577713","0.8956634354025097"
"-0.10626978556931024","-0.1797025223123885","-0.20860622054005784","0.08990798991096487","0.09844021276239842","0.35034752819175224","-0.2224696101981237","-0.2519838736226092","0.9334985148265684"
"-0.0819874819878535","-0.11115756052799032","-0.19468435568357811","0.25503398745717576","0.28399732003580214","-0.18614664183830734","-0.29001152288064486","-0.18282660635267156","0.9726083831037918"
"-0.13248735601035178","0.04597649287189449","-0.04054632546573036","-0.1277167432921558","-0.1127514992678209","-0.38987623969734936","-0.4084885083286977","-0.23492575825280904","1.0147254455987373"
"-0.07479522156939664","-0.03575498641292699","0.009530793838957248","-0.24419981732717347","-0.794494131888744","-0.5848520683987376","-0.13734562371087025","-0.21991250590104372","0.8973468104265607"
"0.016523378081010454","0.03926845584804779","-0.06664904760206738","0.29588345296098434","-0.047543727705483305","-0.21175997138914693","-0.023633352400074272","-0.14146760272983827","0.8375297950088265"
"0.07321129195751441","0.06512628701429733","-0.1344554067428394","0.6293799142034846","-0.2174773918034139","0.048821801764377615","0.012701075874681188","0.027581882604331937","0.8002830796708439"
"0.13070123433851297","0.20499685708554605","-0.14916826317920817","0.34346253816480754","0.3063267815595711","0.10512307448087632","0.07258043658208109","0.15781986785620125","0.7100509096923437"
"0.05109822033359224","0.032378643277720276","0.02069707533934643","-0.20387023660705697","-0.09645075302576403","0.538576620475542","0.1044009251478566","0.08681694680417933","0.7281921356796893"
"0.07724069086664989","-0.04238096476150519","-0.012413460449417123","-0.22223949896417852","-0.14238051680954222","0.3295005980380938","0.15366416839154345","-0.0442046827268595","0.7273749633379172"
"0.09332352872526589","-0.06383982770291877","0.000722162907157326","-0.19816113148243797","-0.14992179583005627","0.15009565453645793","0.149094501031835","-0.11911527104302283","0.7261818917189296"
"0.10225550739674948","-0.04916690559098653","0.08009951036292699","-0.047293455503783194","-0.11006382667498138","0.06913967129248345","0.15926479728972298","-0.16878961118371","0.7231910409480427"
"0.03310986673278507","0.032582231889778795","-0.18801978694127575","-0.11587492321916863","0.38844080351889737","-0.002216288481313262","0.12148145009603535","-0.16143206211817437","0.760535816967038"
"-0.3815879738769058","0.0226115834859534","0.006100079549535806","-0.3909421112722714","0.28414091785910606","0.1969927532895775","0.006153076914123027","-0.2399785488070499","0.8298974053366729"
"-0.2318791957690267","-0.04463602025527589","-0.3114557784472961","0.13794438117451727","0.5021463466050993","0.29200524636474984","-0.08100496882470788","-0.29276240000161324","0.8771299666911132"
"-0.0904121511527126","-0.08115836305420336","-0.13979614884621525","0.03223447515711964","-0.28362094251428244","-0.32151092858808744","-0.11870472454230337","-0.25736648079266217","0.9064991406544108"
"-0.0952743887850027","-0.0068796811750957325","0.09179296813141662","0.08678194196161614","-0.03428725531747083","-0.5310237900741572","-0.011484724541337185","-0.1654281202353534","0.8417790911860425"
"0.07076476803203934","0.011945929264126175","-0.040081643728197655","0.34465634766810055","-0.37851517074766294","-0.655401574751107","0.029530826394583147","-0.032333923090551546","0.8002830796708439"
"0.11804882548189428","0.10916478898085484","0.09484747608613157","0.2797862796585172","-0.22125162125925354","-0.03448340480773905","0.12897681911897182","0.09160588406577054","0.7043307032999375"
"0.10912252744447613","0.14371252998629627","-0.09325569126710653","0.04649857322227231","0.11362568257679435","-0.04579753616703544","0.14210068086545177","0.13033954742673978","0.6800443413024639"
"0.09541417536883066","0.02819780570866129","-0.050209640354243766","-0.18270900041158888","0.01733137556620005","0.23113900559015668","0.12897681911897182","0.08745019470653846","0.696878091542974"
"0.08350960754463818","-0.014009437466777942","-0.007246199528053463","-0.18080275620471778","0.03826075831275522","0.11569700634111964","0.11565791059494328","0.013915601311543086","0.7242370215455112"
"0.10076535191486921","0.05108490508670992","0.08012842389326236","-0.20485224119847545","-0.033679357865483976","0.046574507547580433","0.11072601350550193","-0.061496308260654574","0.7396815788050082"
"0.06868604109181867","0.03989064757571645","-0.10871823424002808","-0.3313575385635579","-0.07801279251353292","0.14760809884291895","0.1475341268114467","-0.14699664847731178","0.7347458578607033"
"0.02520704564648066","0.10393484682924937","-0.12777431598320252","-0.10101969689996602","0.32913490249435334","0.35493433820227777","0.1368344178716415","-0.22484656247359228","0.7374588700353875"
"-0.2612740700093865","-0.05584585852739629","-0.07717563789630821","-0.1121009447894036","0.6021861635068724","0.5998554314627222","-0.040045145539515443","-0.3324327425514888","0.8043689413797056"
"-0.09221262330565964","-0.1597072121994977","-0.42791534813382553","0.0013973166625016857","0.30046320377465857","-0.017686943388243056","-0.11889977131985163","-0.3772482243080325","0.8373173301999657"
"-0.19635116237664949","-0.03395073427442873","-0.1333071265380919","0.2139630895454983","-0.29541989699575955","-0.11137435801593028","-0.11527747402252178","-0.31968862851651053","0.8609172674303504"
"-0.07984039487498085","-0.0012124389945278237","0.0210149176478188","-0.04452362490622352","-0.18891578474825216","-0.15485197777178503","-0.12277284304545825","-0.2628810146090399","0.8782576645227591"
"-0.046449820402144945","0.002749748560049942","0.05715455878964553","0.08650274457778147","-0.5674181073040494","-0.4834326026104502","-0.0047138149778665","-0.23154843610689346","0.8097459353885674"
"0.1343734272750584","0.03133369356480764","-0.054271991366362994","0.3742705253465628","-0.15671397287233454","-0.31971503472153245","0.10551547816241953","-0.05968891320600445","0.7533937306999479"
"0.10579598664852319","0.13619221594903244","-0.07664693334160434","0.2712466907115745","0.01977971845353292","-0.1535147649062826","0.16478183471181007","0.05006218313808248","0.6890168936151241"
"0.08600899025150194","0.1097776322518473","-0.003997351344441487","-0.019217751685209887","0.08471465415159295","0.06439511384773347","0.1418499064371753","0.09106498481583872","0.6861241035252501"
"0.08120269242246649","0.00774026634900495","0.018019062854641294","-0.1800229290291796","-0.10125410021528218","0.3009119091894212","0.13822760913984514","0.03286026772378826","0.7004899932936075"
"0.11126480046068317","-0.05643688873281109","-0.0009998443495305306","-0.160652407088651","-0.06516318062488173","0.12288300869094303","0.17247225051229512","-0.04170731131193052","0.6911905720442385"
"0.0999184560294509","0.01997947357291105","0.08945510267858542","-0.2766926163079309","0.0706372808736927","0.07670912125165234","0.17581590955598422","-0.12109944780374823","0.7028271061910762"
"0.07384867835604433","-0.06257674733422915","-0.0472253509732004","0.09521081470462447","-0.12786517017056484","0.1914182016524467","0.1663143451068344","-0.14930008772214326","0.7179938248543707"
"-0.0534976579206328","0.08631092855987699","-0.5031524845707872","-0.5828662439186122","1.0612205386685971","0.0970464058485858","0.05165470373365997","-0.21122117844116414","0.7777454664847632"
"-0.3214310219431462","-0.007374110661523579","-0.09722717118388603","-0.2980560299192793","0.25355458149535826","0.20703277075706125","-0.2690300623814955","-0.2595432704570218","0.9367181738531511"
"-0.1461401341540892","-0.028520319662990127","-0.09396613801248986","0.14433703851473148","0.16487335241692996","0.115012625164946","-0.280927915811956","-0.21474361989803703","0.9509696594936606"
"-0.09502405575838975","-0.11349467469702952","-0.2937978724210534","0.3591072191555426","-0.19992495120155737","-0.1921774475928872","-0.3172902079120757","-0.1558489264457077","0.9830845325253129"
"-0.03270076032509489","-0.006728028433460301","-0.0386111841854275","-0.017545455631000233","-0.6663091416193907","-0.4568339583166088","-0.15423110188150072","-0.06993037876020078","0.8943069293151676"
"0.0793463767481981","-0.0038702052275591853","-0.02139317687071575","0.06585080292041175","-0.43918525109359474","-0.5634226861802505","0.030812562361330707","-0.02758720235578427","0.7768465769088138"
"0.08477186369036736","0.11513741407951053","0.0735671177593006","0.14426964604277137","0.06673859997098963","-0.34121722344812316","0.08347519229943517","0.1008671346377734","0.7192686137075356"
"0.07340674428213916","0.16025929830309374","0.00619693987615929","0.25521690988106743","0.08458541611061936","0.3015428989263189","0.07910057171727529","0.2044559373320276","0.6768246822758811"
"0.11291507279766241","0.0209693712631752","-0.05935664220105417","0.09452726248902929","-0.016566805262348615","0.3386014115510413","0.06667330560489716","0.1971340084609997","0.6652044915758786"
"0.09377903855176817","-0.0015888701833544018","0.03469494147556489","-0.17384207660083997","0.027861882608491966","0.19043531379304834","0.060487536374072205","0.14887524123537796","0.6967473439682903"
"0.08269409956947983","3.7952190401686368e-06","0.032664798595588684","-0.23561209090025917","-0.06913126714218172","0.19853382437776995","0.06798290539700867","0.05354504660105792","0.7275057109126005"
"0.08765338939054913","-0.048003542093509245","0.015318539121317908","-0.025155028464893776","-0.05813167387709681","0.12709607862653685","0.12488083679045266","-0.0026240423382004703","0.712175557780952"
"0.025613355405060153","0.04165958332232699","-0.2974533687563107","-0.25509814279271936","0.2601361483967907","0.2274719844653397","0.09495508834943468","-0.027626780349681718","0.7372300617796912"
"-0.41072288689732145","0.05309170711985823","0.6066107672656479","0.230175792799897","0.18720281394069896","0.5862406144473526","-0.19945409044739648","-0.08504125683024648","0.9018576017531439"
"-0.06750667921762708","-0.1974542028230017","-0.3585848328939463","0.4161019954417897","0.13869786252566935","0.21150309035462103","-0.20466462579047903","-0.0756071823515581","0.8974285276607379"
"-0.2105431193469378","0.1144622477640103","-0.09426146907234399","0.05312517871514798","-0.20035335137441426","-0.23933179600797277","-0.2259525883686332","-0.06056358687113805","0.9057473420999802"
"-0.05205342892094267","0.027504981197217226","-0.09499050308722862","0.07852155039850803","-0.5024161592884475","-0.3079689180808215","-0.17161812890868416","-0.023217791829506","0.8853834073430137"
"-0.04371541349606497","0.03490584273250798","0.07052706656975331","-0.058522004081933546","-0.44435477273253804","-0.4590666912317853","-0.06300493763951447","-0.017455235918037545","0.8175417595290754"
"0.10796425578672465","0.017375409029897166","-0.06421205004522922","0.21745787059142868","-0.16267088924239467","-0.352817727072627","0.05162683990829571","0.08366389995701595","0.7318694112176648"
"0.11354571946086044","0.08116927738799078","0.06202029289465463","0.12384009954286995","-0.09631433509362525","0.17009074854530454","0.0823885031102362","0.12343978382395131","0.6976298900974045"
"0.09249675576390994","0.06589493789655912","-0.0528965334232662","-0.08568694677944622","-0.14132507280825796","0.2700419497535031","0.13591491163462682","0.09251617792541184","0.6727388205670194"
