"AccX","AccY","AccZ","GyroX","GyroY","GyroZ","MagX","MagY","MagZ"
"-0.2691788167343572","-0.06556721475319083","-0.38673421992759405","-0.11972592161688804","1.913162491360563","-0.020032283702619724","-0.36541103431583566","-0.12422083225579364","0.9100456686177026"
"-0.06398276045838316","0.03270376182656883","-0.13389572340563333","0.13980248790141686","-1.050720514604147","-0.13859185762865206","-0.36964633577117517","-0.11736064664690263","0.9073326564430184"
"-0.13483663518318106","-0.21110294957019055","-0.03229564305931637","-0.11239939716522687","-0.37183787196402784","-0.5254904954582851","-0.42016345115624576","-0.0755992667527786","0.9321093218455554"
"-0.0637131710451077","0.03083407049133749","-0.021851662851748017","-0.15520324435587807","-0.7295400498142434","-0.14852266533398045","-0.25426223493853495","-0.10317061656820423","0.8611133887923758"
"0.10890300463652323","0.06944423528127329","-0.10173355141186985","0.5080830921713178","0.11291487335143967","-0.15979553967201815","-0.09814122142361482","-0.00958449219829837","0.7711263705164073"
"0.07729942284597062","0.11348585340005614","-0.06724177497394243","0.5267508069042626","-0.4592410804150507","-0.05051539789214745","0.05758969853620815","0.14990426907671162","0.6452491429897984"
"0.10593270699382719","0.10588348068752383","-0.024619100755276117","-0.020882345742624094","0.2415880962200265","0.3309809970361999","0.10515324843268664","0.19598624663797373","0.5855301882530769"
"0.06155925238801443","-0.011317081944044799","0.05104347762804878","-0.26470638379502925","0.10564643019520316","0.5271702675393145","0.044967385646281756","0.10671148506996322","0.6531430278113189"
"0.10170092346086848","-0.04048115062142845","-0.0018620871291745473","-0.019735710969703144","-0.027223917718853533","0.3311994165605106","0.0585092047732225","0.02751196148177978","0.6569510509239781"
"0.0948764792840527","-0.0032025176773999016","0.03882544580918892","0.0058364587905127855","0.05702181392742028","0.23391778731611002","0.04360205820344173","-0.00353565546430504","0.6651881481290431"
"0.06381224962753104","-0.0418688770791335","0.13704883886276825","-0.015456289000237457","-0.09986598792334368","0.24255263917719463","0.04616553013693685","-0.08738031626958566","0.6798155330467678"
"-0.06908570292395498","0.0017361681128728586","-0.19943650091941256","0.25069198676374715","0.6107780999345607","0.053313963314368516","0.00311591994943891","-0.045588593246806926","0.7075667057733558"
"-0.4100489133641327","0.15341415058133007","-0.1899776459954135","-0.0010621234642018119","0.683845459025736","0.4766668197514642","-0.2804263669554026","-0.039208620630538295","0.8446065074885748"
"-0.1047196464429762","-0.006302154295990938","0.06958737683385385","-0.04151695790720409","-1.088965401544107","0.21954820950006668","-0.023382577971797797","-0.014261291810513483","0.7041836122784185"
"0.012157955224613761","-0.10576661717807329","-0.03269630197967789","-0.21902391530208284","0.1220405150224076","-0.1644333142382162","0.07859902286072172","-0.0976930222127974","0.6514596527872681"
"-0.011653529702944023","-0.002161618962380271","-0.04355333262060865","-0.008545672375529986","0.35785446715514946","-0.5119242161149846","-0.05258386695334999","-0.09141595238066212","0.7495366772467824"
"0.027795104013925386","0.05467055758072026","-0.019972283379949086","0.1927344608780701","-0.9016899069851656","-0.4329534236586345","-0.02366121622543853","-0.001489473179806967","0.7227170809898149"
"0.15543510018720616","0.0013826925787732882","-0.20433114855475704","-0.13757529919031747","0.3888955299593599","-0.020046116939159402","0.09055260394191054","0.08409925788988788","0.6155857869834631"
"0.10196877979934435","0.0709690724368953","0.011389231653784707","-0.22278826623585354","0.12479280663573392","-0.26127567755039194","0.00723976610332201","0.05762157997249505","0.6932825332391755"
"0.0725411697016582","0.0024161125284519924","0.025764378055836385","-0.226446714713687","0.039270729669993225","-0.12554735826009392","-0.01212559252471112","-0.0035765527246657317","0.7168497835758894"
"0.09959417847805384","-0.030415978933433025","0.023747246264511093","-0.1463844580251006","0.1215163829673481","-0.0435429612994279","-0.04756837838781617","-0.05652663149359835","0.7335527862417157"
"0.08299449920141537","0.015699957850048185","0.17664385340488817","-0.08859252507052551","0.17301534899826568","-0.06918541345350891","-0.11703289502045865","-0.08730511808118051","0.7663377405936216"
"-0.08644533550023036","0.06186886922136094","-0.15723926864710952","-0.08953698242756618","0.3704671426353491","0.39793871565545935","-0.21151912683004157","-0.07592380630273768","0.8167082437404676"
"-0.1952728047235475","0.021686086275013887","-0.014330014460218669","0.2302143027838742","0.4714642783591488","0.274919985796443","-0.4645226611358554","-0.10247668240853564","0.9313902101847956"
"-0.04402351568266555","-0.07320386514020244","-0.37190570936988376","-0.11176398242960317","0.18771258621342807","-0.20420022896439183","-0.38279806134301925","-0.04165981771925358","0.8907277144582049"
"-0.12002847383969159","-0.041092955175012484","-0.013741417592677246","0.04986145757308078","-0.5333375572399046","-0.3906528424504543","-0.4603988149819721","-0.03106742728583321","0.9246730535354272"
"-0.07841542226195322","-0.026358748735980996","0.028618143499937226","-0.1471450302086502","-0.5396079955241785","-0.19516494130873746","-0.3774760706984807","-0.0033905361533477316","0.8911853309695973"
"0.07897376566627805","0.040491026237807405","-0.1756324044447373","0.3706120768687294","0.00953257778256087","-0.2660566382491937","-0.22436435032288093","0.05357143193032289","0.8183099015303413"
"0.08836972697439542","0.09627015107220928","-0.08237800810450768","0.4958946822425358","-0.36341346633019433","-0.009683081264056119","-0.16275743244290797","0.18267484802379869","0.7397306091455145"
"0.10277283022443849","0.1638324861882025","-0.028443947768211963","0.04527876947979469","0.055997482787851896","0.24836987917467068","-0.086494142421431","0.23640857107190083","0.6613310946758777"
"0.07088608326801331","-0.04284527144308764","0.022537008494759255","-0.2141427748329735","0.0231518740041214","0.46644963978092846","-0.010983175684783927","0.16833442156828998","0.6640277634037265"
"0.11034049390088148","-0.08040944780270236","-0.038280743838737585","0.01202539831548764","0.08192885637949572","0.06877806563556901","-0.005494002088060801","0.129798648176808","0.6758440754657542"
"0.10152126137330703","0.016358504687013","0.08617341698552113","0.0021821501359569","-0.019860699999236422","-0.03804849682121104","-0.05882536383490285","0.09572199543110516","0.7135647507619647"
"0.050065115189147226","0.04255703516323804","-0.03045343812652005","-0.010814873181386143","-0.20546064728992583","-0.01463465188018062","-0.03831758836694284","0.10449511741170615","0.6876113571872757"
"-0.2282975078497952","0.16695902558767273","-0.18558485463660437","-0.09439405415668978","1.3730910779142922","0.7478467936012666","-0.16604536383586901","0.0441677005802892","0.7881072117784362"
"-0.17057648882884627","-0.047205807123810534","-0.09988928122690673","-0.39688227630075357","-0.65654448963472","0.2188808165091172","-0.14219392932421943","-0.04657408529485338","0.7920296390189434"
"-0.10390125000981844","-0.19478469908325471","-0.02108132379352714","0.010759382592237385","0.356322757039907","0.23011486070949966","-0.07228359148575206","-0.11269572043285675","0.7539820947860237"
"-0.006849061230641511","-0.04382374324185872","-0.0407776337084133","0.13611515693560053","0.009040755237744736","-0.24537958994777687","-0.10675114346111424","-0.08117052902707605","0.7901174557391961"
"0.023757039730791768","0.03741850014357722","0.025910597909246675","0.04212672729126136","-0.46297462382095417","-0.4590666912317853","-0.03461169959352053","-0.01563728673168143","0.7406294987214642"
"0.12640802293210077","0.01980600776569792","-0.0962234586308154","-0.1664866696611959","-0.11489350013210527","-0.31852586175584063","0.04340701142589315","0.015029062206524642","0.6820055549227174"
"0.12966427791673546","0.05786045874210663","-0.10778680551279586","-0.09527111904177038","0.17678000526588503","-0.05374315308473951","0.01877538980404973","0.07998314652455325","0.6935276849417072"
"0.10322574043874132","0.01376752798334574","-0.012605528900930637","-0.16599566736548668","0.03622406251889376","-0.025758758253326665","-0.019342323294006855","0.041208585903223335","0.7220796865632323"
"0.08358374463328896","0.05026639576884197","0.07680543315686184","-0.39394589002249253","-0.021337842941623365","-0.05209287223439169","-0.023020348242064906","-0.07250426762999816","0.7376876782910837"
"0.06470863442667205","0.053336844428255224","0.05971547147649242","-0.4229053979733424","-0.03241569702040895","-0.07742468328723075","-0.045534319136238566","-0.16926718564340587","0.7437674405138698"
"-0.0005551112499919242","-0.025389625393886082","-0.12607874395424984","-0.10484181280970253","0.15232529595721714","0.12780715552234853","-0.07707616944837305","-0.23274896858844943","0.7507787792062766"
"-0.409047581257681","0.1172356232446035","0.6440950940932858","0.40090017926679244","0.2955569448117725","0.8580515780340527","-0.37850703223695153","-0.3058627159816686","0.8636302796050345"
"0.07200295369444035","-0.2722626305804249","-0.23615668444533014","0.3750792350100839","-0.15488788721931893","0.0561048794583391","-0.17777603431414532","-0.22478059915042986","0.7981911184759067"
"-0.23245688736890274","0.02807731448927971","-0.4640572610530358","-0.427247398666771","0.7360432677967329","-0.06915871773387093","-0.3691169230892578","-0.24108673263617847","0.890629653777192"
"0.02130088761198542","-0.015082432549719043","-0.018553455141349234","-0.005851321346565605","-0.7884869562805275","-0.4003846457002995","-0.26568640333780624","-0.15837532172282812","0.8637446837328826"
"0.0021696674627567874","0.020001286638488748","0.0033247936877738235","0.2045955359430459","-0.14570480641902936","-0.32536967351757723","-0.10978830042579897","-0.13525913475379192","0.782060136449321"
"0.005395112228731425","0.11540748060571061","0.02014709868732439","0.4742328162553642","-0.5863969529507255","0.058340039257119024","-0.04096465177653011","-0.00184039805903101","0.7489483131607065"
"0.08974376644470063","0.18814886072029469","-0.13163633753514098","0.33574128637738015","-0.30468195659886627","0.168425906393336","0.04312837317225242","0.09287237987048887","0.6809105439847426"
"0.0760496833515721","0.02922509722563007","0.06490545017169101","-0.2128719453617261","0.0038367701212084805","0.6075729213217018","0.03479708938839375","0.04346189302245137","0.6923673002163906"
"0.08453212167641881","-0.06990282121611065","-0.04886929169798277","-0.10328215845862618","0.052474549522794234","0.41594619199307814","0.059790940739970065","-0.0655965884284302","0.6822670500720847"
"0.0874534118150587","-0.04668437098476268","0.02992214371806233","-0.02252864755764914","0.09501061808248835","0.0862152243263765","0.02200759354628242","-0.094364512926022","0.6979731024809488"
"0.08435400009979035","-0.02007450841478674","0.0762168362893204","-0.08648410344777413","-0.12045073589396932","0.06427619655116429","0.03449058730938876","-0.1434794840862919","0.6897033183822129"
"-0.09842280800432722","0.07915624305039169","-0.2529265320398437","0.014618082986752226","0.7494935972462058","0.11457578611632452","-0.026336143460390066","-0.14327631705095167","0.7288295301062718"
"-0.2889936386101058","0.18762950201606374","-0.025081717240642006","-0.0043731156116010115","-0.252292684063464","0.03505651796559402","-0.2592777235040688","-0.1716985937351724","0.8453746494898409"
"-0.10463299270299478","-0.06832604819006553","0.0021670133230590094","-0.06538255772747066","-0.1326780905483033","-0.03613853942529378","-0.14539826924108834","-0.18430682332443615","0.7869958573936259"
"-0.06817102455748454","-0.018521625889136265","0.027183206294436237","0.14925668896781802","-0.17102828255868635","-0.3453671944100273","-0.12419389813902618","-0.1596998652519294","0.7838742590480556"
"0.04700816380646978","0.07022742820725354","-0.0069376508543317495","0.01990550378682097","-0.34295077650937705","-0.5356106000846828","-0.08317834720310584","-0.08242778996655166","0.7655532551455201"
"0.10324884810273635","0.024188356511998507","-0.07832598335322251","-0.10280078365891127","-0.03743683424193814","-0.2279812613946246","-0.01535779626694381","-0.07372063130911306","0.7317059767493104"
"0.12115391783122806","0.002859208600553653","0.025069214176487463","-0.11600008066709452","-0.12581650789142804","-0.1944053267408568","0.04889618502261628","-0.05844880273055108","0.6992478913341136"
"0.10632264882374352","0.019776923678260987","-0.04874331131580724","-0.06311046867281621","-0.0851041316876945","-0.07370669760674124","0.08743185550113396","-0.07195281424836038","0.674700034187273"
"0.09704694365033367","0.015890043135796703","0.0026188904971574767","-0.0861375135919794","0.05034930173789533","-0.07830078826807717","0.0750324532141201","-0.08079321881858705","0.679308886194869"
"0.08757222372076653","0.001953987153427311","0.09118165349004025","-0.11422862140414358","0.0505503386905209","-0.1459817182011655","-0.006162733896798685","-0.13569317342020062","0.7195301088569028"
"0.05068709647834711","-0.0017844606713677703","0.015379670585455541","0.033727699785835334","0.2519271394979131","-0.08245803988079162","-0.05812876820080101","-0.11943189499420241","0.7505336275037446"
"-0.2968502443684201","0.23762297088533307","-0.1454590702876138","-0.12283560282304647","1.0084244056338334","1.2287823172974839","-0.16353761955310211","-0.15566290987438966","0.8035027386974268"
"-0.015004140982225139","-0.04938192009453813","-0.1564007762673838","0.2548318100412955","-0.753042226894995","0.14447741899446498","-0.269670930364869","-0.17326720155997463","0.8547067576328806"
"-0.1244189299987496","-0.1760566242086874","-0.1523198379857633","0.13339057556921408","0.6886320531358687","-0.3598071518505707","-0.2949991476208146","-0.11049914177154838","0.871769316129087"
"-0.057127486806520675","0.0401534430800573","-0.1436891491806559","0.01962630640298631","-0.38787296223297235","-0.4563971192679874","-0.3313057120702062","-0.10148459402817293","0.8936041611012434"
"-0.008360687583650517","0.023423860499370577","0.0586456708540838","-0.012539157713965009","-0.7152281334249467","-0.13751189442511563","-0.15189054055091813","-0.1060373825928427","0.8066733673835036"
"0.03565844950757159","0.04639821213973","-0.03433611220012663","0.25414825782570033","0.0057241241788337964","-0.1443338642344211","-0.031323768200559626","-0.031723102718067595","0.7416101055315909"
"0.10279324199430079","0.05826763596622368","-0.28295529854529033","0.5094790790904911","-0.5925716593527967","-0.0533694130098078","0.03270730248608794","0.09380905905939516","0.674634660399931"
"0.07581282979562291","0.1420194206105035","0.21681507330154862","-0.12562757666139301","-0.04047392820481732","0.39376447585752067","0.003979698535725059","0.1327669977191166","0.6869903062075287"
"0.09692620610595959","-0.005300726842492859","-0.07109760076938047","-0.18338292513118978","-0.1480765638006001","0.22293613901048664","0.03538222972103917","0.042198035750659536","0.6838360209682874"
"0.10237393417472408","-0.04768984943615376","0.0569087937817949","-0.19445454552463304","0.09625752584817791","0.1300908529931975","0.023902333671039656","-0.020303532212190566","0.6933152201328465"
"0.07263360035763836","-0.031611542670572625","0.09324484040468546","0.13218713856992675","-0.3033895761891304","0.13793696768316","0.06678476090635359","-0.039382763803687056","0.6680645947720817"
"-0.009833801163334457","0.04592247956665447","-0.27227794484287227","0.2575852738956649","0.5392424509586276","0.050785150599570825","0.034267676706476236","0.01306731297567446","0.676203631296134"
"-0.4103762719373958","0.0977326651833236","-0.014158598530373273","-0.3617900534015354","0.49867606587525304","0.22586296063625055","-0.28337993244399484","-0.05488018694746451","0.8665884434822503"
"-0.13378716211007288","-0.07301793472408777","0.025402958926644282","0.003497554913657906","-0.4130504472522703","0.10752568924829448","-0.12678523389788557","-0.0730108659518855","0.7867507056910942"
"-0.07205118646998539","-0.10489409455496533","-0.02609988655888033","0.08626301992752344","0.3298528916108732","-0.07759941890667935","-0.1149709719435168","-0.06523115161811044","0.7838579156012201"
"-0.009958967676640933","0.047657137638785776","0.015603130869904601","0.0855553989719425","-0.26648493560000747","-0.6361806566117618","-0.10064896570638174","-0.018792972111771295","0.7802623572974219"
"0.0856441780061802","0.0459868800459791","-0.03326631157771801","0.019026513402541512","-0.6300028252940343","-0.2686291348688536","0.020697993754170915","0.054165101838784604","0.6872518013568959"
"0.13342601305126167","-0.0325245752726106","-0.09084760724060373","-0.19630302475553837","-0.19739762951140732","-0.17846798211698303","0.08380955820380412","0.07011503337945618","0.6496128432948626"
"0.096058898450679","0.04851096334854143","-0.1014671338823511","-0.12029394388055166","0.1918912828715739","-0.25666459870383185","0.008103544689608468","0.0843631111825375","0.6962080102227204"
"0.0774351803719415","0.07313791438576367","0.07881492351516992","-0.3825084247812658","-0.17230630318609175","0.0004935697503019994","-0.02159929314849698","0.02256471224459876","0.7250541938872835"
"0.0921303067257219","0.009761818169353422","0.017605599370845527","-0.4212302136703345","-0.011673709433265476","0.007268943394421189","0.03933889292273826","-0.10350571024986929","0.7063736341543684"
"0.07020440718015956","0.01667427477918541","0.05724336463281844","-0.1587846728657571","0.160041285662751","-0.09975201243899538","-0.004602359676410392","-0.1881511657983416","0.7180265117480417"
"-0.16308575441712003","0.08127003297661158","-0.31554497773758394","-0.38890108212148006","0.6239651667079762","0.6378604286927911","-0.13469856030128313","-0.23080964688747446","0.7763235866100795"
"-0.04720081948198384","-0.06416183009954193","-0.009002696495927082","0.41883620430417057","-0.46125144994130646","0.2973686591283803","-0.33239240125940506","-0.24613952319041935","0.876901158435417"
"-0.012712630969383467","-0.08162163101837734","-0.38029063316714057","-0.3852137511556638","0.6105866361701552","-0.2124661945177516","-0.2959465176831932","-0.19047571330658508","0.8709031134468083"
"-0.11847833471335747","0.003360774075577632","-0.10891030269154159","-0.07090970317779743","-0.3170792353441099","-0.41725148674429563","-0.32564935552129864","-0.2344640149906722","0.8802679084835191"
"-0.054518246413747175","-0.04264168283102912","0.04114885449685243","-0.06791362642437174","-0.5317579811835609","-0.28855384925320005","-0.24194642412761294","-0.21678584438314533","0.8478915403024995"
"0.04532515561216421","0.006435948899199392","-0.05227282726888897","0.3117688213515769","-0.44971575813588666","-0.26210081797556584","-0.07356532745249962","-0.14025519685011312","0.7723848159227368"
"0.09046876940254506","0.11244713599159431","-0.0641913975235611","0.48395658720960566","-0.30908562318018834","-0.0674623260950575","0.019862078993248714","-0.025670308184684534","0.7152317823391803"
"0.09208688357379789","0.14716107178238966","-0.00872533312992423","0.32907905914932556","0.2585565723404469","-0.03008589171828279","0.02133886173754485","0.10082755664387595","0.6849964056936043"
"0.060089990085663","0.0433152988714152","3.732528864246088e-05","-0.14541208092967645","-0.06834387241106489","0.4666437904692046","0.013620582111695544","0.09325496714483088","0.7025329241480385"
"0.09443202262349472","-0.04266245717919835","-0.016581139322043765","-0.10351321836248935","-0.06354052522154674","0.3199872143125593","0.047419402278320456","0.01842089628353595","0.6917135623429728"
"0.07621721391553615","-0.03774724640235684","0.054211574451938416","-0.07633479717058464","-0.05967774377466967","0.15220461638785832","0.048088134087058025","-0.030134705896316675","0.6897360052758839"
"0.08510307354096296","-0.03770985257565221","0.09193753578309345","-0.026723347562365003","-0.1509437336725696","0.13123876893763062","0.06923677753839197","-0.11370232074431516","0.6691922926037275"
"-0.07443897841613971","0.027665982395528813","-0.24218722077242125","0.24020764362595606","0.7205107699093525","0.20666388444933642","0.0014162266022302512","-0.07679979923433453","0.7129436997822178"
"-0.3206896510566386","0.12890041974163016","-0.13184079749965535","-0.07867235319800031","-0.279456605638467","0.18743568565918084","-0.16114133057179147","-0.06634725104601848","0.8078010652151493"
"-0.11982628177973494","-0.09172004166344355","-0.0548399357122363","-0.0469420518999913","-0.2814191092236214","0.15112950695152877","-0.0030419854560221004","-0.0841507519675539","0.7224719292872832"
"-0.024824898180118037","-0.0744056611817928","0.0923918912597921","-0.035184953791753966","0.22497382806375596","-0.5527443983250587","-0.01538566009230807","-0.07753858845375355","0.7406948725088061"
"0.04388477788980659","0.0794418903377187","-0.06116993360351512","0.04968238614758683","-0.23592492550386532","-0.7378428107603945","-0.042357843044734084","-0.007882638460708084","0.7480821104784278"
"0.12044913407937928","0.04444230725959632","-0.04291930020539736","-0.1308938169702743","-0.22669876535658454","-0.2138058342668575","0.016546283774923554","0.03270327501466172","0.7002284981442405"
"0.1310478492984386","0.010261856729786962","-0.10452370708923288","-0.09059696973653845","-0.10647148779532681","-0.17160960905362577","0.08116249479421685","0.04880887999799661","0.6679828775379045"
"0.09617515888515407","0.030721889011223608","0.06111984294992459","-0.20827962977244568","0.0020834406986668776","-0.13552184987028446","0.06157422556327088","0.0314948269343263","0.68630388144044"
"0.09346429291176903","0.010910535751371393","-0.00744157238303388","-0.2367385079315921","0.02321649302460819","-0.16142155168633143","0.0596516216131497","-0.012771839973506187","0.6936420890695554"
"0.0837368329072561","-0.01281906731668065","0.06997564424121451","-0.12608006897312504","0.16397347272422502","-0.1144249507054703","-0.025946049905292916","-0.08702015652511888","0.749405929672099"
"0.036726216148009166","0.022778816988715762","0.04989932792763493","0.02838155126020138","0.15153790122610028","0.08958131188436537","-0.08136719855444077","-0.09386846873584066","0.775032454310079"
"-0.3119183669318539","0.023436325108272118","-0.27006812502438343","-0.26859589217672586","1.5663976810520008","0.9722849892485703","-0.23952227132093834","-0.16276715977898162","0.8473848934506005"
"-0.0379192411106419","-0.014485170039853473","0.021660308949947554","0.3183347736196885","-1.1466677935417564","0.04027189082941382","-0.26880715177858283","-0.131369937220136","0.8699878804240231"
"-0.040249263896808656","-0.12663444991407205","-0.44398300999162305","0.010819073067402034","0.7095494693971485","-0.07358292654296515","-0.26390311851450526","-0.07045148901318385","0.8639571485417435"
"-0.11413601952095584","0.09464559704537495","0.05625823934924912","-0.0569045847548914","-0.5701225329762744","-0.49925588370496166","-0.36978565489799553","-0.14608239681828072","0.9193777767607425"
"-0.011817208989575584","0.010766881133781119","-0.005160707890006693","-0.0806132563904509","-0.6794244094811542","-0.14635788515970066","-0.1793921361852615","-0.14035150330193022","0.8305838301037618"
"0.06580528564710342","0.026002995824581376","0.02046473447058008","0.15538940391618616","0.12912946089951413","-0.16669759664023753","-0.06804829003041223","-0.06529711494127285","0.7763889603974211"
"0.10743951925017056","0.05406602404899545","-0.12686560502980523","0.4613223441270099","-0.4748932431551846","-0.12100665903803397","0.0005524480159437923","0.051407834930595725","0.7155423078290537"
"0.08209715158294124","0.14112612363922625","0.17184007686488342","-0.011175904281172338","0.12416097621319641","0.28399653047335605","-0.010370171526774252","0.11314950541061479","0.7082204436467737"
"0.08390821474855267","-0.01637563572325406","-0.05443514628754115","-0.12246975797526312","-0.19056715971624796","0.3817271331843954","0.056893102902106314","0.03903971183764317","0.6833620610100597"
"0.10914852356647055","-0.09664875576659507","0.051109565697386776","-0.10113522685189762","-0.027626948942926704","0.07073898758715877","0.06285596153001875","-0.02533125670362973","0.6841465464581612"
"0.09358859288767568","-0.026836558743873456","-0.061277326716189344","0.03001726282963269","0.100553494062022","-0.04282945752001282","0.032958076914364726","-0.026963189318667834","0.6940179883467708"
"-0.17802871046724728","0.3321462550553623","-0.24916777309624583","0.094949909563179","1.3527480529462281","0.3678938966447151","-0.0955220218393915","-0.05634457272167009","0.7762418693759022"
"-0.1340374951366859","-0.1442510971615852","0.00323309649156737","-0.23810561236278246","0.34193904173895834","0.22725113805742547","-0.23230554055164276","-0.15529351526468016","0.8499017842632595"
