"AccX","AccY","AccZ","GyroX","GyroY","GyroZ","MagX","MagY","MagZ"
"-0.09662233585138016","0.37289513898932114","-0.06131243600302515","-0.25739911433535667","-0.006391942162439564","-0.2450883639153626","-0.27571738046887373","-0.2577226827377392","0.16409806815425348"
"-0.2183708405252583","-0.16875444082720048","-0.13111795924127115","0.15020018357525927","-0.5136646554472594","0.6150234539843015","-0.2796740436705725","-0.30330333904296697","0.10181155791968337"
"0.030454411012021475","-0.04356094773751786","0.10846574887409","0.03757869818355474","-0.051320350458377996","0.5687427836664589","-0.3018536486603772","-0.3481320134641432","0.09851508469297379"
"0.07387467447803875","-0.03146196736375412","-0.10096527760581576","-0.0810715251997795","-0.5518138105050169","-0.09011243076608136","-0.29970813410734337","-0.3665357806264566","0.06419384633853617"
"0.14973713537376204","-0.17937013274168073","-0.09067825656292515","-0.39539964191763155","-0.06166178703331967","-0.39506977060873816","-0.2670795946060101","-0.35311884069522165","-0.045508271855031375"
"0.08265462397682163","0.0180308397146366","0.013639076059266377","0.08786792350977302","0.14618170241686185","-0.28302055463732795","-0.23102380458489505","-0.3176569581631081","-0.03738557877781447"
"0.09325796072867995","0.03296863476572661","-0.03928239113964141","0.15813324027456124","0.1348279011876271","-0.3662141245636858","-0.2129959095743377","-0.2853745078074229","-0.00778923090350441"
"0.07600443084291514","0.014223628797401341","-0.008686093338754801","0.10195680114782943","0.22873130444021011","-0.2618338607791861","-0.189033019761232","-0.22541384705278902","0.02476037781397084"
"0.09038500412056304","-0.00010454300666240333","0.11148927804630279","0.06395418620953494","0.017671223748019476","-0.18260096489366295","-0.19137358109181427","-0.200454644834595","0.04109728727068315"
"0.04374902036383572","0.06649323912383315","0.10089866493489077","-0.2243671755789185","-0.004586678193803021","-0.31988491657377416","-0.19783798857628027","-0.19501135140723264","0.056069518916635704"
"-0.1449751227610058","0.0251554024192765","-0.2085855680183898","-0.03264714584765688","0.7448745339299278","0.05271452306431571","-0.21316309252652232","-0.18926462669332314","0.07130161136727181"
"-0.16239252449726882","-0.18910291485896832","-0.015947106906832476","-0.12037096384850604","-0.39828380442251093","0.10257727358085447","-0.21190922038513885","-0.17663133104125772","0.08407891810322392"
"-0.17410040758809017","0.2384643319861872","0.05072336354219293","-0.2500148249077297","-0.3352204270215128","0.18476854057898634","-0.1983395374328334","-0.16740042359790952","0.04020330072878423"
"-0.07174308428338483","-0.07397147730505575","0.04488902617094899","0.20152436472086463","-0.33287499590754777","0.6069662004208385","-0.2037729833788283","-0.22776214135737094","0.0014905782096621269"
"0.10496921368716725","-0.022600669152165985","-0.11090120578034837","0.19232047855031525","-0.39821200551085895","0.6925138474425456","-0.22915692828550208","-0.28949061917275754","-0.031044321405661223"
"0.16382703349473898","-0.11361932078604495","-0.10154148296035634","-0.14476703869805846","-0.2602144973157336","0.07265137186667947","-0.24874519751644772","-0.3232902259611783","-0.040633021664017686"
"0.09472302513873895","-0.06111111707088946","0.02028670973380088","0.08124131801689734","0.09130579424124564","-0.06126891913904626","-0.23798976092591415","-0.3193720045653309","-0.045738714455411174"
"0.05886624671325889","-0.021425879763195623","0.015651251245391323","0.1428447766356152","0.11497550211585177","-0.140800321707794","-0.23723743764108426","-0.318963031961724","-0.027906379613255497"
"0.09390102776127532","0.01205904558990767","0.0237350612767269","0.09272018149089946","0.10140311451657055","-0.1614239785699349","-0.22720646051001664","-0.29549328158053717","0.009786511823334764"
"0.08210100286027375","0.050439861576055095","0.11824884838827851","-0.1723498147217237","0.2102526578780429","-0.2796714552645632","-0.21137980770322118","-0.25995224306062875","0.046006858700051285"
"0.051785673337444736","0.06920325284251014","-0.007263341121038003","-0.2524216989063044","-0.17418504137431884","-0.028370085010641748","-0.21946031705880337","-0.25131104772635254","0.022174844524603204"
"-0.15750140228498488","-0.15176102402476446","-0.3522445087418334","0.5585022886934591","1.2108734035218955","0.1086881664943483","-0.2383519906556472","-0.2541078926284389","0.06319199304752329"
"-0.09915455069750352","-0.14791776961345557","0.3013251919674962","-0.21904317029407142","-0.08956763069539322","-0.15532522007445831","-0.2557390176828308","-0.2348861802589116","0.1211148029770292"
"-0.19269244891076778","0.3758762579516067","-0.06832809761368555","-0.41699411543284315","-0.3084633659458711","0.23829103156953174","-0.23436746362858432","-0.23943764955711813","0.08640785927727504"
"-0.11310580283451022","-0.21039662173243648","-0.05007126845906736","0.2985310143594164","-0.30693165583062865","0.4789238215026752","-0.24573590437712756","-0.2779602302839676","0.05838538533321846"
"0.04710444573978245","0.013423608649404017","0.04380063827903905","0.30557834142724294","-0.2281610698572301","0.6995518098925582","-0.2734046829636554","-0.3267862820887862","0.048989537747520254"
"0.12081789388396683","-0.036430152728427194","-0.10237791008791519","-0.24563431423032392","-0.44318205717555553","0.19976910813192733","-0.2949155561447224","-0.36219539396236977","0.017659150163969333"
"0.08272105851080738","-0.1809905318988812","0.052226867119632064","-0.09921935514903221","-0.18033581480583935","-0.17983189070212346","-0.2847452598868344","-0.3735938562048349","-0.0960258660233965"
"0.10625621428975777","0.05353212330104606","-0.07742759866065928","0.32259012684916843","0.4662229578085535","-0.4685315372852507","-0.26223128899266074","-0.3540819052133929","-0.08105036568807687"
"0.06170078682998406","0.05267414272165657","-0.03507340722367852","0.08428071850229739","0.2474756069754897","-0.3295196444794813","-0.23336436591547763","-0.2982637411533585","0.004517384563586806"
"0.0840998157958449","0.019261719843663903","0.015549640838784172","-0.00625529107848637","0.054989904727668966","-0.2519079068410646","-0.21776062371159488","-0.2721290725164103","0.013339577165360836"
"0.09720551999449965","-0.1403870684021071","0.04340410986301115","0.29246569188300836","0.079305802807143","-0.11397355035522809","-0.2136925052084397","-0.24421339415407686","0.03407777685485888"
"-0.016679446621865705","0.1535907325407686","-0.1874993433952391","-0.34453758057975253","0.5374953441084291","-0.3539826312022843","-0.2013488305721537","-0.20435043870056716","0.07035042276144884"
"-0.34751379767755","-0.43990123313208446","0.4326958822984083","0.28033504693019223","-0.3840676199154168","-0.1287629790346687","-0.24707336799460317","-0.20066176966932495","0.16527479632640563"
"-0.18545204752565464","0.4579349332200936","0.023406892707420475","-0.4143369265384167","0.20126104084215862","0.2284111884198759","-0.2264262733998225","-0.17126983213461672","0.13216297303779106"
"-0.1526295364593635","-0.2126921872051372","-0.04441867327850289","0.34727502657854975","-0.24827194501095257","0.5022947106039245","-0.23698666321280765","-0.2315220507776285","0.0998732251249994"
"0.00589000136595857","0.004865003077815759","-0.0014027750472755548","0.13434369767264961","-0.3500349357923735","0.46055231262453844","-0.240051684002856","-0.2683031997729904","0.07609677866879182"
"0.056888615803016546","0.04354381670127681","-0.12432327961245963","-0.04061389878293889","-0.18798479219383138","0.35847758826331877","-0.24707336799460317","-0.30933238678001157","0.06147593112980142"
"0.14811478479744347","-0.12967789192086535","-0.01702723379007516","-0.3795527835110162","-0.44303845935225156","0.10951330691952221","-0.2540114605102582","-0.3373008358008749","-0.005841092040719178"
"0.020343845194857425","-0.1330537234983664","0.06503556105820017","0.03633771394988966","-0.15355482075964696","-0.04065496981131921","-0.2506120738158409","-0.33062534749683864","-0.03941216618540983"
"0.10344487811896097","0.0463545860085746","-0.04686393184400831","0.12650691593329064","0.338612358832416","-0.49559128946374814","-0.22968634096741944","-0.29662785073893067","-0.030889058660724486"
"0.07477972465117791","0.007819728230752282","0.018236327382589918","-0.07295169507818815","0.21150435223784256","-0.4189017675946435","-0.20388443868028472","-0.2478677622572746","0.013909963459917912"
"0.09857975202867147","-0.0001101520806680978","0.046983191868096366","-0.17340883928109652","0.19618007119425282","-0.3255638242058534","-0.19006398129970276","-0.20884386027439075","0.02022834000650153"
"0.0003181658851540426","0.07051826908162286","0.05429211928644408","-0.1350143852558341","0.010554276295368691","-0.350148155108829","-0.1866088669545574","-0.17168276253761344","0.03813258601473317"
"-0.24532015365947615","0.0024718916532863945","-0.34780421658318755","0.4027101485137205","0.5789472491021782","0.18832149817444108","-0.20589063410649822","-0.16824079633499867","0.05682131747106625"
"-0.16087126995092854","-0.1619404546276907","0.06386869358395139","-0.04862493819979467","0.12513744141166347","-0.04976549085868057","-0.21124048857640082","-0.1646655842195959","0.09185839879689645"
"-0.17123120597537242","0.23216970449090826","0.047398307553625584","-0.4267467688750676","-0.19690939691217374","0.23330863953164335","-0.20210115385698374","-0.169347660897664","0.069093611699803"
"-0.07068398301694537","-0.10146632710704116","0.09893667537641937","0.14709050236910085","-0.4919335181872569","0.6808648061459726","-0.2166460706970318","-0.2412978152702982","0.037867822175998926"
"0.11229116586979628","-0.028195201114141567","-0.17176418713629837","0.23705945243582044","-0.23942392579837224","0.3562933930202113","-0.22762441789047788","-0.28914760989231303","-0.0010197752242624594"
"0.17311824005941215","-0.07018015876416996","-0.12195443537712626","-0.24289047787194884","-0.12443557549065476","0.2601645334874507","-0.24576376820249166","-0.32573086891818753","-0.03812920560882728"
"0.2118457220957696","-0.09178028727313435","-0.2166400514689566","0.2954020781612694","-0.030417054649723052","-0.29348042296820903","-0.25448514554144736","-0.33922696483721737","-0.057331121295793375"
"0.08071646865923748","-0.018792731132744808","-0.00036064880390221415","0.3353465590416139","0.22747243018924523","-0.4086360499520386","-0.21608879418975033","-0.29241939072116874","0.028187598615363973"
"0.0846361061643965","0.04193380471816093","0.005970175188243332","-0.04775942630990724","0.07976531584171574","-0.15272360085155703","-0.21491851352445887","-0.2547807185246955","0.05169110950941959"
"0.07808412060246893","0.0442657253001578","0.022100001136261833","-0.15710948856274914","0.3472042952601042","-0.13655084851814836","-0.22241388254739564","-0.2438044215504699","0.07129834267790475"
"0.0484485415288274","0.057662063717090414","-0.009760437515930406","-0.1540286898445736","-0.19366887269961394","-0.16932833846638026","-0.21631170479266268","-0.23852735569747685","0.06781391981258755"
"-0.06731411535100174","0.00702614813068742","-0.359225061065658","0.17684909248747754","1.0229995846991875","0.27324543611006064","-0.23949440749557455","-0.23716851124033114","0.08147540702233727"
"-0.15397748352574098","-0.10904896418881276","-0.02416268002641066","0.020634305233589362","-0.44126741953150245","0.047239473654926464","-0.25348204782834083","-0.2237515713090962","0.15046763349349113"
"-0.21385521785289388","0.11585412909134923","-0.04919560154033907","-0.3752878027855419","-0.21311919786613814","0.03502254159514568","-0.24637677236050134","-0.2200180472181036","0.11616273858588891"
"-0.08579061835370418","-0.016228137851252475","0.0338894931305082","0.08352399731714552","-0.4004377717720706","0.37862072217197595","-0.24216933473052563","-0.2614562068287318","0.06676793921511898"
"0.035553502200260774","0.025165789593361118","-0.026139126350049755","0.10074373665254782","-0.3880883589679283","0.4702355782023146","-0.24345107069727334","-0.29641676810481093","0.034069605131441166"
"0.13927225204200733","-0.04960628305476589","-0.07524049661600536","-0.11729979262632481","-0.21632142932581688","0.31578870567858613","-0.2740176871216651","-0.3427889842879877","0.019778895218526743"
"0.10795944169005901","-0.07728186968582369","-0.0003038543693148832","-0.14947488423927044","-0.10674671695665944","-0.2439477286217398","-0.2539000052088019","-0.33317153177090775","-0.051373934924273126"
"0.14996339791704683","-0.018647310695560148","-0.1493644621350553","0.3352214015936881","0.19313340404315335","-0.3697088369526576","-0.2448999896162052","-0.3357045233803445","-0.05723306061478069"
"0.07393436927669261","0.02179826775512777","0.0144232523070049","0.14040902014905768","0.26195505415864107","-0.333378389408971","-0.2279587837948467","-0.29453021706236593","0.021707421945109433"
"0.10007597327235045","0.05104751126000529","-0.014714151363245703","-0.07808026219435096","0.14811787973441048","-0.1478698336446517","-0.2143891008425415","-0.26794699782791326","0.04113487719840469"
"0.06655339626894291","0.035536344199444334","0.0773341377115657","-0.09162614905832897","-0.009172714010721148","-0.07951665695340696","-0.21536433473028424","-0.256324260286696","0.0478046378519504"
"-0.1243804172254245","0.03330102433643441","-0.3111666431439425","-0.008969667299118892","0.9920063878360783","-0.13369440651688458","-0.2330578638364728","-0.24483344939180357","0.08677558683107259"
"-0.003979859617923798","0.030576468574038947","-0.0772252039483117","-0.059779355058788924","0.05939357130899103","0.27756528892420645","-0.2644046673710587","-0.2480260742328644","0.15278840294412455"
"-0.28688506427055827","-0.03107971935744015","0.05444701319895497","0.011415977819048543","-0.12679775968400525","0.05307370183762671","-0.29438614346280506","-0.24587566989776974","0.20131209659856514"
"-0.13226590756373266","0.08050761439880057","-0.039639679764499884","-0.17828997975020586","-0.28180203675243204","0.33360203132792876","-0.28307343036498983","-0.2708889620409569","0.17360995421248335"
"0.026725411734821555","-0.089964609243143","-0.012264762293406655","-0.056324046746435194","-0.437462077213947","0.3876729980128545","-0.28482885136292674","-0.3223007761137421","0.10084892890107555"
"0.14975446612175833","-0.06632859461359338","-0.1271010437768218","-0.35437688148592555","-0.2656472816307342","-0.24470006253881016","-0.270729755728704","-0.33571771604497697","0.03272290511220038"
"0.07418951639997119","-0.05196001670234047","0.037799015482283344","-0.23178997499052267","-0.04595936505502938","-0.3504393811412434","-0.21965536383635195","-0.30606060595115586","-0.044614285313132454"
"0.04663555272454972","0.027566265524316475","0.07780501520559885","0.2573830964797846","0.14412346694950479","-0.08962705404539081","-0.20870488046827013","-0.2835011494296104","-0.02644854415553367"
"0.11004587118494469","0.04091897781009369","-0.10790659013847097","0.2865158993585319","0.0258610862704565","-0.18795467012287956","-0.20048505198586755","-0.2573269027987647","0.023975892365869406"
"0.07289645003558197","0.018027723562411214","0.1319352744977417","0.04728032589700935","0.0708933636585848","-0.1466127079380632","-0.19708566529144994","-0.2304138669485","0.06603084976284034"
"0.12138595729051162","-0.15107547053517964","-0.040944919133925076","0.12123104812841506","-0.07164662234705645","0.07851472265262116","-0.20120951144533333","-0.2230787454128396","0.05839192271195264"
"-0.009082802083495593","0.13626492616762478","-0.24024588373561792","-0.5108718288732479","0.42426846043324046","-0.23394654129191128","-0.19942622662203252","-0.2108346333674324","0.05162083268802717"
"-0.2524546449179454","-0.15662222149636595","0.0869602780610765","0.16763557882093388","-0.5433894048711834","-0.10595755381302391","-0.23654084200698228","-0.20459846079565777","0.13600368304412097"
"-0.21672441946561155","0.2467325225575436","0.017746862619055472","-0.25531957520058823","0.07889894230778173","0.1373715038035555","-0.22497735448089062","-0.1815178940211293","0.12959705188462592"
"-0.11375089178770514","-0.08526960655689542","0.015379051009805496","0.2959412179369501","-0.306548728301818","0.5872841743968373","-0.23361514034375427","-0.2329204732286717","0.10279543341917723"
"0.04263118711807555","0.017435654639587954","0.025608658042458758","0.08661538628091478","-0.314231211848581","0.3572641464615924","-0.23868635656001613","-0.2735274949674535","0.07711334106195661"
"0.0749665116018045","0.035745126398545164","-0.15425910977039978","-0.20842404221236016","-0.1886644885574702","0.257689112211929","-0.25395573285953","-0.3217862621930752","0.04532697131169671"
"0.12160740573713076","-0.19303965383703878","-0.046562405027653755","-0.46726889951506995","-0.23146621309027668","0.059165179682292936","-0.2642096205935101","-0.3466280496960402","-0.024080378709077473"
"0.03525310256832522","-0.1000744457797023","0.06606199138510574","0.013333775021112805","-0.011756996170781785","-0.07641024594098753","-0.25364923078052515","-0.3365224685875584","-0.07085859224149244"
"0.09510550511882356","0.05464147349328333","-0.013947942809358448","0.295421333153258","0.4727087928277833","-0.4872913475399399","-0.2257018139403567","-0.30051968680551305","-0.01767865058363308"
"0.09106369546848408","0.015769551916415128","-0.048247650795772354","0.22615149947428026","0.1390664302721496","-0.2945725205897627","-0.21098971414812434","-0.25661449890861066","0.041154489334607226"
"0.09320134695189211","-0.03638341044504641","0.08300738541379829","0.13336169308123116","0.1409284153809912","-0.17539554747501196","-0.2061135447094109","-0.21745867027940197","0.07382340521398123"
"0.007961988570847359","0.0971873385438811","-0.21961401458916593","0.05550028197694143","0.04431101326796293","-0.2274522007690719","-0.20176678795261496","-0.1868464112661891","0.08254753713474257"
"-0.40638057170491976","-0.29484434704038576","0.3671654310454631","0.40900653089399175","-0.47979950211807054","0.03143318074563917","-0.24242010915880255","-0.1707645530791926","0.1764210270681802"
"-0.1467563385272903","0.20805068626642392","-0.16167956080575535","-0.6236675719424493","-0.27210918367941334","-0.3641998111728201","-0.23082875780734663","-0.1593344284416096","0.1411518687972866"
"-0.12903083460442674","-0.06638987894069262","-0.043086585630909134","-0.06566560610970304","-0.1287865895367654","0.6488299425803973","-0.23029934512542927","-0.21393359028960257","0.1037237411994306"
"-0.023005169640508468","-0.08455185282764824","0.05338753883738041","0.040846270324019655","-0.47013058201560254","0.4846512668068235","-0.24183496882615682","-0.2634878771821341","0.0837781986814517"
"0.03085012975793657","-0.018646271978151687","-0.07283241258950256","0.024821303241509787","-0.16017946700807062","0.5302766785517339","-0.26329011435649563","-0.31723479289486867","0.0606996174051177"
"0.15561996149916651","-0.09403742020172194","-0.1399985435585628","-0.4200845416470129","-0.33478963355160085","0.0058739706991565895","-0.27538301456450465","-0.35640381418870987","-0.002977720155148957"
"0.22421795052644844","-0.11513584820239928","-0.20581813011486164","-0.24854181802060207","-0.5064368983409591","-0.5660922581440484","-0.263122931404311","-0.34355415883667173","-0.12109507912428787"
"0.07826031654043113","0.022250109827808676","0.009645126198911962","0.36862881269390385","0.5801199646591607","-0.5921569880451302","-0.21246649689242034","-0.2918389134773395","-0.03176179872173733"
"0.0769999860333682","0.06083742283475832","-0.04388790347163219","0.015854253472420154","0.15003491067551866","-0.27549721546662465","-0.1996491372249452","-0.2413505859288281","0.03123238276080765"
"0.09418342267168141","0.010520808979716504","0.015096731038602295","-0.03151398956912794","0.13968150761530163","-0.056791318890676075","-0.20433025988610992","-0.23119223416181645","0.04656417023714002"
"0.09889526792413712","-0.00584865027545649","0.13244126127861067","0.03647249889380984","0.07128825767267076","-0.006330826942606935","-0.201738924127251","-0.2237647639737287","0.05709425303321818"
"0.017950276332704313","0.11229132838032502","-0.3628185998359109","-0.3579101725158331","0.16686218226969007","-0.3012707193352921","-0.21645102391948307","-0.20950745130540463","0.0493131379948621"
"-0.4103377591640707","-0.43019961253705075","0.21755856408160093","0.2543504352415806","-0.3541035407859862","0.09529419588689297","-0.25891549377433576","-0.21312224141470487","0.17164874059222976"
"-0.3124190329850797","0.21872870122541188","0.1529905203383902","-0.4592780778398022","-0.03882255323682156","-0.20148454621212825","-0.24907956342081666","-0.21323965612993395","0.11704528471500303"
"-0.11680302907371695","-0.005772200674193696","0.0011909751490236527","0.17277666168188927","-0.5851524384820911","0.547046444251592","-0.23946654367021028","-0.2544904799027809","0.0690494843933473"
"0.054796409392132095","-0.009093187972527957","-0.1027723732517763","0.23587527042852174","-0.29204534814811595","0.5589624427445445","-0.24216933473052563","-0.290651573660416","0.030699586393972095"
"0.1450250975574397","-0.05675162010757502","-0.08803060328507215","-0.22794860408879758","-0.2030075178084828","0.1983979188959766","-0.2620641060404764","-0.32992613627131706","0.005576439918523744"
"0.09522473103684466","-0.11429448710154518","0.03853424525366842","-0.07262243471518313","0.011615942868996122","-0.13456323084692062","-0.24891238046863204","-0.32330341862581075","-0.039114715453004704"
"0.08374260982325486","-0.06184029669162968","-0.018687696532192013","0.23869612675485116","0.04378688121290341","-0.29425702572131385","-0.25125294179921465","-0.32765699795453007","-0.014274310607809574"
"0.08761959443195637","0.11835743804574228","-0.043501701316438345","0.031094579631394698","0.168915631142937","-0.2780697120862845","-0.22993711539569622","-0.2899919404287919","0.01873945199979235"
"0.08879047902297182","0.024538404278650155","0.0017072881907266553","-0.06320192988476205","0.17811546502261205","-0.14892067424494665","-0.21313522870115806","-0.25592848034772153","0.041968392987012465"
"0.07339711608880788","-0.02289358746135223","0.10257358444217532","0.12894267241984816","0.06333054496457517","0.05722124591592733","-0.21895876820224996","-0.24599440387946206","0.06271803308929533"
"-0.036205422697676286","0.06434413280572557","-0.16924457949278773","0.05751724238774697","0.29821350454289625","-0.008769844964076876","-0.23121885136244363","-0.23675953863672414","0.0794488196147419"
"-0.25424548887756127","-0.09852364068886875","0.05712151475497654","0.14570414294592188","-0.277111174524502","0.2598975762910709","-0.26306720375358295","-0.23354052846639836","0.14878425846944016"
"-0.1505787312798035","0.22760973506776075","0.1086041207692664","-0.728799828200189","0.17699061540673086","-0.22259843356216655","-0.25933345115479683","-0.23811838309386987","0.1333070143162723"
"-0.13645417166283402","-0.04848758440585247","-0.09726228047072184","0.10942773803940509","-0.47656855109373103","0.6748461348094099","-0.26418175676814604","-0.282643626228499","0.09662741658347972"
"0.030364868814040692","-0.07106722343099639","-0.002157005138595302","0.24339434480006888","-0.46639703860969906","0.5198896167289564","-0.2877824168515187","-0.3297018609725649","0.08465747612119871"
"0.08333148596800974","-0.04318181588342928","-0.038043239839554197","-0.06546342869382277","-0.29970389872432823","0.222455616057003","-0.31277626820309545","-0.36900280891273085","0.0603090090257505"
"0.07770380696588386","-0.19328894601506966","0.0002919708808103822","-0.08837879465945209","-0.10114161525369407","-0.2605233436333216","-0.30405489086413945","-0.38931951244675417","-0.02254246036186195"
"0.14000592037384993","-0.026308890300374827","-0.13217743360284573","0.04458462701860577","-0.16435816366621644","-0.5890748458687453","-0.26267711019848594","-0.35644339218260734","-0.04056601353199235"
"0.09773093050458692","0.08449732796470258","-0.055661906074627475","0.16135845143265123","0.346223043467527","-0.445233454692105","-0.22631481809836623","-0.2881053893863469","0.02746031523118659"
"0.08825149276028747","0.04531379116529582","0.014759681884978575","-0.07495806524339996","0.13902574422221348","-0.1565871995482537","-0.21633956861802695","-0.2619311427555011","0.050524187405368695"
"0.08856729750155304","0.008645612442220308","0.21546233313228674","0.12859608256405342","0.005725320827361332","-0.10995948487511736","-0.21940458940807533","-0.24606036720262445","0.0709714737411958"
"0.018957385355154895","-0.027856579238983","-0.36184793131750925","-0.2838747283196776","0.29469535787194867","-0.4308905725956997","-0.21118476092567276","-0.22360645199813886","0.07930499728258998"
"-0.4229795770080251","-0.43662927329542955","0.02790088142240341","0.49564436734668404","0.07340153897229433","-0.2368393865472269","-0.2682777390966652","-0.21061299660160668","0.1805395756707127"
"-0.09934711456412887","0.4398508631387727","0.08413501309687767","-0.5323122624525507","0.4244599241976458","-0.08331715667641384","-0.2411662370174191","-0.18645195059367786","0.15332773668969427"
