"AccX","AccY","AccZ","GyroX","GyroY","GyroZ","MagX","MagY","MagZ"
"0.09559917147549764","0.09703776323706262","0.07213796325986668","-0.19814187649044937","-0.008093337038886227","0.31947756875583416","0.25547858627187897","-0.03521124324689603","0.7534264175936187"
"0.09804529101685282","-0.04050711855664","-0.008805671439213215","-0.13134630928200636","-0.0874854622574855","0.22079562767224137","0.2726148388707859","-0.12064166234100109","0.7303331272151328"
"0.10305763218317739","-0.05401148358405264","-0.02266124170113833","-0.1574945884025211","0.054391580463902384","0.016353496787225603","0.2644786018644755","-0.17404293024036457","0.7311176126632343"
"0.10276349087690717","-0.04904537565419649","0.06067787898622683","-0.12530024179758686","0.02771589148813292","-0.11224560922956979","0.24405441787260734","-0.2313109681435088","0.7509258702277954"
"0.029869979676813537","0.04168762869235546","-0.04229146354668651","0.016421312986484336","0.29936228712932805","0.06316711074438641","0.1923391579968815","-0.24181232919096501","0.8088960761531241"
"-0.3498919614303731","-0.02198159357672272","-0.24786666423115425","-0.1612493118402975","1.6813716715773876","0.5649083075730036","-0.15013511955298126","-0.41292118947426576","0.9482893342126475"
"-0.1542855857123415","-0.04642157548042183","-0.15540119421864682","0.13630770685548652","-0.41381630230989147","-0.15375988015023132","-0.16359334720383018","-0.3226569780588191","0.9829537849506294"
"-0.16375972795030877","-0.07964183563784905","-0.08353248406575559","0.1247932216463055","-0.4020412807989651","-0.48828636981735557","-0.10658396050892992","-0.2281579212963454","0.9855197061037946"
"-0.022138632240694373","0.014121834491372082","-0.041684279409643775","0.03158365642790506","-0.7559141833610745","-0.2835787378661221","0.08662380456557571","-0.2114388574076001","0.8873773078569384"
"0.07903923738093066","0.06590428635323528","-0.08593437233575796","0.1616472763124802","-0.09618031045854153","-0.11943646534660007","0.17927102390112976","-0.0922352168543393","0.8268084938847736"
"0.08811573523431658","0.08880385034018545","-0.1031007483462994","0.14713863984907233","-0.10210611396688579","-0.0585702245720069","0.22382528065828808","0.014523783151100544","0.7653898206771657"
"0.09186225782337942","0.11411947101921792","0.017244180241653428","-0.18206395817997087","-0.1558356328531252","0.2516947097114009","0.3033765020727261","-0.006129333331051135","0.7042489860657604"
"0.09497570744452474","-0.04179928301276655","0.006559391631434798","-0.04761501386999276","0.004506653966921549","0.12446048303318728","0.3088935394948132","-0.07135122874111917","0.6986268403543666"
"0.10301488300478655","-0.05885294542489337","-0.017229628502422732","-0.15102491109435248","0.04975097747412874","0.03985689373322342","0.25887797296629594","-0.11094109603673653","0.7290746818088034"
"0.10185304891550251","-0.028290763115720055","0.04261931403962258","-0.16288598615932826","0.046010254177060034","-0.031942457674924096","0.22647234406787503","-0.1518264829992637","0.7487195049050102"
"0.05275330676723713","0.09188780232590872","0.06301987494339165","-0.1211893010080214","0.2857922928271019","-0.12040721878798116","0.20426487525270637","-0.22288085544335232","0.7695900865138753"
"-0.10435377509638802","-0.05552593356559003","-0.2440252952008839","-0.08535864916604063","0.5182053698445944","0.5233600602818937","0.09275384614567277","-0.2777755329791129","0.8517976240961712"
"-0.3027715832671497","0.09242378050867504","0.08550427528347403","0.1602705443852955","0.3115681021101664","-0.059257032631784","-0.2966709771426593","-0.38015061052717875","0.9945903190974673"
"-0.09869239741760269","-0.09105526252202796","-0.07977372512215773","0.14910264903190923","0.23881187163614953","-0.08982605850087395","-0.19937049897130446","-0.3277757319362224","0.9707288867177155"
"-0.10562469661611532","-0.05860469196427099","0.03327817848913185","-0.11685692781058708","-0.8647852663960425","-0.2011035254863862","-0.08551890853368813","-0.2686066310595374","0.9241010328961866"
"0.04699179587780662","0.0004140885953826032","-0.08763820537337785","0.243817954623818","-0.48566307990298313","-0.22546700998144764","0.14625239084469943","-0.16648749120534176","0.7999562107341349"
"0.06868796673048493","0.10078130077715915","-0.059340120183719675","0.27506880662131095","-0.1986349640888766","-0.24457871835863754","0.25943524947357777","-0.07870218147433854","0.7296303590012087"
"0.09427065410326269","0.1142752786304872","-0.016275482001355587","0.06971720531172203","-0.12781491093240843","-0.09650484217757571","0.2909770997857119","0.0008192431308775098","0.682610262455629"
"0.08512136710829238","0.05606555506028453","-0.024755407398285707","-0.25384656831346053","-0.08179180856348267","0.3294277915299902","0.257763419951733","-0.05478519976211063","0.6780340973417041"
"0.09138489199801517","-0.03805782290748693","-0.03915847600963269","-0.17404425401672025","-0.07536580597062954","0.4245373599493007","0.24257763512831151","-0.17086613659686276","0.6639297027227137"
"0.09488345009602454","-0.040062547505818315","-0.004604535481484218","-0.1691919960355938","0.09555389651398839","0.2587084033253791","0.19972307171836184","-0.2634878771821341","0.6574903846695479"
"0.09071823589175822","-0.03854809752428093","0.0076085397321753005","-0.03475267922160996","0.04495481017577579","0.10421056624597812","0.1810264448990666","-0.33627180795954126","0.6512308445315717"
"0.03358164820601718","0.0032102223743951694","0.03465776693656227","0.1066453916970528","0.3072841003815976","0.12993795932618","0.09428635654069681","-0.34649612304971533","0.6996728209518353"
"-0.5283697812120796","0.20564086187879238","0.12683203639354923","-0.052062917019358675","1.2467967923184413","1.0383204920985176","-0.17415373701681533","-0.4081190595480421","0.8088797327062888"
"-0.13228516395039516","-0.25001330369117186","-0.057628026137432516","-0.08705693945943489","0.08803894376108008","-0.029525281605885224","-0.09510406445893041","-0.4411534917877788","0.7347622013075389"
"-0.16959441310905693","-0.2379641817530143","-0.1928276939856141","0.23168730967100185","-0.5329067637699927","-0.24756378519088432","-0.10098333161075068","-0.310110753993328","0.8261220691176849"
"-0.03198827401858111","0.14490705500602744","0.014015571529276207","0.20662693759784284","-0.4601505332959759","-0.6947170891270404","0.04714076402467972","-0.24083607200816132","0.7889080406733732"
"0.11541262614779323","0.12797596124809912","-0.08201452372314877","0.2500854545161063","-0.027545816172759956","-0.04583151253748377","0.2166921413650845","-0.07876550626457446","0.6962733840100623"
"0.06611435065303711","0.29122078916196503","-0.12772888043553265","0.08091109490429291","0.3528046103689595","-0.12377573322957348","0.25924020269602915","0.00835093536956188","0.6789656738113244"
"0.10500271979996005","-0.031243836707977125","0.08289173129245683","0.11755334465859303","-0.17506098809647314","0.29397102208354653","0.27083155404748477","-0.0009089959359777145","0.6605792961214472"
"0.1108344202187755","-0.045369354745649966","-0.041713192939979146","-0.07736686474117345","0.06188978013742523","0.11495195307485968","0.2845962837773387","-0.04094741382909951","0.6483217109948622"
"0.10012459564867336","-0.026533253260602588","-0.018817807418701173","-0.11710724270643884","0.08667955103380241","-0.1079063413465964","0.18668280144797406","-0.07780112247993996","0.6925470781315806"
"0.09638146218366313","-0.01049026288690916","0.04993650246663755","-0.061727960248034945","0.06381399096969856","-0.14605695159287252","0.14823072244554852","-0.08255443954702349","0.7187292799619658"
"0.07354827872410878","0.018562663027769072","0.07926101798320132","0.031737696363813836","0.05083992763418392","-0.011688172497228724","0.1773205561256446","-0.07814281249392127","0.7335527862417157"
"-0.010151531543266281","0.013688689332043485","-0.594932290863913","-0.3839525491804106","0.6855207669642825","-0.21295157123844213","0.06720271828681468","-0.08230377891900631","0.7994168769885651"
"-0.35154801068335106","-0.13454947656655145","-0.1392220087438415","-0.6189308439132544","1.3655282592202824","-0.2100562990995231","-0.23007643452251658","-0.34069135061142297","0.9135268227936527"
"-0.12852054035786956","-0.07553474700479085","-0.19047743701978204","0.1287212400119793","0.16401894536827127","0.01720387680187542","-0.29884435552105726","-0.33127178806383034","0.9382217709620123"
"-0.055221104526929694","-0.06011290964135761","-0.03953435190399247","0.5066871052521446","-0.3335211861124157","-0.4161593891227419","-0.1448409927338067","-0.18636487900710347","0.9052080083544104"
"0.09946766401768098","0.007185591252886316","-0.20408331829473958","0.20046534016149178","-0.7741032409795788","-0.369126384887829","0.0763420530062316","-0.02253836960093314","0.7829099956847642"
"0.1176434785426479","0.16963891650150434","0.03993448622276696","0.1337082829370259","-0.17482405168802156","0.27438607140368343","0.09336685030368214","0.09357159109601046","0.7409073373176666"
"0.09598055384154248","0.04482247783109336","-0.06764243389430397","-0.06396635306670935","-0.3758825439870899","0.22709339062320105","0.1846208783710325","0.04838671472975718","0.6939526145594289"
"0.09468352066150076","-0.01639225520178945","-0.0770186787316305","-0.30602759660255846","-0.09108737432536036","0.33369910667206687","0.29705141371508076","-0.015763936312153257","0.6304256367100483"
"0.10249024275016579","-0.05005397025781295","-0.05692997090505005","-0.2881493365411461","0.0039054577466888832","0.21001298382210112","0.303710867977095","-0.13702167474869162","0.6209627809923249"
"0.08990763829519878","-0.01987507467236207","0.013892275974917531","-0.20453453383066356","0.03453439479801692","0.10401156179049499","0.24795535342357825","-0.2621026473957234","0.6393655021290376"
"0.0900375226232376","0.00932368716646421","0.13221408354026132","-0.12105451606410124","-0.07351339405000819","0.1220991252870278","0.23221229209287494","-0.31995248180916014","0.6329425275227072"
"-0.0011010298118747878","-0.012568736421241341","-0.05295436048393693","0.06383095426080791","0.2957005426350765","0.34860017199726634","0.176066683984261","-0.36364658707194286","0.6555782013898006"
"-0.5735741489023808","0.40411898428768467","0.1139180145944737","-0.13883650116557059","1.555077385981537","0.3733301159164491","-0.11798026508283727","-0.47466285995428487","0.7635920415252665"
"-0.06152757115890995","-0.3289973754306117","-0.28590860914383154","0.23537464063681818","0.553291104671867","-0.0006177002517189825","0.05288071204967932","-0.46910874814400966","0.6563463433910666"
"-0.19762208389637678","-0.09577727186089557","-0.07627312269941136","-0.17899278695778967","0.0017945697441203701","-0.29491228429424604","-0.042803664250559134","-0.41862042059549837","0.7899540212708417"
"0.05033085332509021","0.10682975224663256","0.025237945278516003","0.44343445656960323","-0.5199829596726345","-0.6000443597563515","0.15461153845392236","-0.2305457935948248","0.7433098240024774"
"0.1090098775825003","0.05530209776506506","-0.20996928697015382","0.22959814304023907","-0.09488553675175064","-0.006681268934945502","0.2694383627792808","-0.11594111593244748","0.6644200061277771"
"0.027801843749257274","0.22096194365360486","0.04974236876295721","-0.010940030629312026","0.1551781060468562","-0.06947663948592323","0.295713950097605","0.01649476724719347","0.686450972461959"
"0.11492351392656483","-0.011598574361737965","-0.09304503554609171","-0.054025000702996706","0.0475635039657981","0.3831104568383634","0.3162495893909293","-0.035158472588366095","0.6675906348138537"
"0.11386152420212602","-0.02302758200704381","0.005789465623647279","-0.15657034878706844","-0.030351956969825247","0.14527829058360436","0.24834544697867508","-0.13382773064116754","0.6711371627771456"
"0.09753278228582944","-0.04983687831944443","0.015370170425488206","-0.1341671656083358","0.1479407757523356","0.060349498880777834","0.21298625259166218","-0.1909902272272519","0.6903243693619598"
"0.09927153771952305","-0.04807936846432696","0.03527527733443907","-0.15534765679579252","0.13691964281375507","-0.1478625529938413","0.17419980768486804","-0.22326344271769435","0.7208539280505739"
"0.011408881783441129","0.014721486051277112","-0.0021163196709091067","0.09903004236556269","0.45715236196985204","0.17473337687870952","0.10426160602103623","-0.23021597697901272","0.7870448877341322"
"-0.3284981158482966","0.039823130944166424","-0.2588538057585942","-0.06393650782912702","1.4777499581323434","0.2815453780338688","-0.19794944387773655","-0.3541874465304528","0.9142459344544124"
"-0.12047137073292989","-0.07206335342571131","-0.045882937064772596","0.32111711996204073","-0.4773583391219029","0.17426013457603626","-0.24261515593635097","-0.30980732270678096","0.9450206448455581"
"-0.14493660998768074","-0.11437758449422211","-0.04994528807689183","-0.12801519566797903","-0.20881126316701873","-0.2798170682807704","-0.23656870583234638","-0.2889365272581933","0.9538461061366992"
"-0.0027281944848590086","-0.015933142107249307","0.025231336471582204","0.34945084067326126","-0.30123560883957073","-0.20588691306879142","-0.018367089406263977","-0.23282812457624433","0.8651829070544019"
"0.12687499030866722","0.032877227633781966","-0.21533894260386507","0.0530192762592107","-0.19805578620155054","-0.4744045956056062","0.19077878377649352","-0.10363235983034111","0.7569075717695688"
"0.09001595547017555","0.1190326043612425","-0.06527152440680377","0.11014980023897748","-0.12331072587477357","-0.10393595977134781","0.20978191267479343","-0.02119403707488314","0.7388970933569069"
"0.08342487944332304","0.11239520012117123","-0.0715850002807481","-0.27602831908432435","-0.08609495666849196","0.0726804944699209","0.21791814968110385","-0.04583529607543436","0.7296140155543733"
"0.0876776524377439","-0.0033836699934356503","0.02042322290202716","-0.16135521429623478","-0.3026955200431612","0.3516337765015822","0.25506062889141756","-0.15435023974345766","0.6926451388125934"
"0.11500727920854686","-0.09010795224551074","-0.09906937611668236","-0.00583312537913638","-0.027536482314245197","0.17021451960908063","0.27726809770658656","-0.218171074169556","0.6534535533011926"
"0.10146522528811905","-0.0757372968994409","0.07881492351516992","-0.093691246949106","0.11399425032327457","-0.08388019367241488","0.20671689188474507","-0.261297894853142","0.6992969216746199"
"0.017138619634878453","0.06320881467827674","-0.00693248772391472","0.13600925447966328","0.2956526766939752","0.22607409950975094","0.13911925155149557","-0.28668058160603876","0.7577410875581766"
"-0.34467348064482606","0.1117096466315864","-0.13822036144293767","-0.11983182407282532","1.2783643804747664","0.4036904297956421","-0.08298330042555727","-0.37819809616157135","0.8453256191493345"
"-0.08659938659353064","-0.033197664153293886","0.06318096461240297","0.04976903361153552","-0.5905852227970916","0.1995409810732028","-0.05971700624655325","-0.3899527603491134","0.8123772303290742"
"-0.13445150744993037","-0.21122759565920599","-0.42843166117552856","0.2869780191662582","0.8136818242630851","-0.45520794630229555","-0.17716303015613533","-0.3462982330802281","0.887769550580989"
"-0.05392129842720858","0.030811218708351327","0.10427122172329481","0.05366816948922641","-1.0203256420048041","-0.21756750385220916","-0.0885839293237365","-0.33429290826466884","0.86163637909111"
"0.09203700953234192","0.06745613016147729","-0.021998295755591674","0.2113636656270377","0.21696824941455903","-0.4996199162454796","0.14302018710246645","-0.207697417717828","0.7624970305872917"
"0.06819981732858965","0.06740523300846266","-0.12095072282405563","0.3625442352255072","-0.40874251255315086","-0.14600113326999312","0.26344764032600443","-0.11445298336190345","0.7108517385872807"
"0.09567538825390796","0.13824887641778694","0.06787528278756669","0.04111969121025773","-0.03671645182836317","-0.10831405779197645","0.3025127234864399","-0.03921125916346478","0.6710554455429685"
"0.07778083251253401","0.03597260551099831","-0.04516629456288883","-0.16510993773401123","0.19521078588695095","0.3347426666215515","0.31148487525367224","-0.11757041001455909","0.6540909477277749"
"0.08407478249318359","-0.046941972902061216","0.019122527087368953","-0.052137048738514775","-0.006785878857703483","0.40919945557547976","0.2311534667290399","-0.2157357082783997","0.671333284139171"
"0.10223480678108728","-0.09283977902976545","-0.0852053383208733","0.049504277471692316","0.13211390232718187","0.13752439747057305","0.19534845113620197","-0.2564693795976533","0.6862058207594274"
"0.09194737105242781","0.027097803973100177","-0.018815742166534363","-0.1794741617575046","-0.00656210558305478","-0.10486302930786674","0.20493360706144395","-0.2734483389796586","0.6956686764771508"
"-0.00228529759162069","0.04294759290881971","0.03163010726001586","0.04602875141775055","0.18387134444004657","0.5378485553945063","0.1092492307612058","-0.2846225259233714","0.7624480002467852"
"-0.3963191096737452","-0.00046477020391697633","0.01846247249485583","-0.07960429481024843","1.069884274007937","0.34122244584277023","-0.19875749481329463","-0.4176573560773271","0.8624862383265534"
"-0.09468706899179538","-0.20955526063158236","0.042140175536922196","0.08661827452971306","-0.16650255782755585","0.03702229368439069","-0.15523419959460724","-0.4484490353295418","0.7935659230214754"
"-0.173050934514982","-0.12738232644816458","-0.036099837550584095","0.10147542634811452","-0.14558514156627606","-0.29648975863649035","-0.13904531705807907","-0.3883036772700531","0.829570536399964"
"-0.053228068507357305","0.09135701773018469","0.02297793983237362","0.15638103600359893","-0.3996001178027974","-0.505857007106353","0.03632959978341809","-0.32788127325328226","0.7907875370594495"
"0.07899013359494121","0.03293124093902198","-0.0038916104335007117","0.16132956894466835","-0.46723469257897227","-0.24935967905743928","0.1652276559176351","-0.22394946127858342","0.7505990012910865"
"0.10221073629775909","0.03454333035695479","-0.20557029985484426","0.3125005110471436","0.14328341968317648","-0.20487004883894472","0.218001741157196","-0.11098858962941348","0.7278979536366514"
"0.07688059643606049","0.16482965490032594","0.0967578343404327","-0.12160328333577626","-0.013563217458240354","-0.016793607533812125","0.18891190747710024","-0.02110960402123526","0.762578747821469"
"0.07576757728696595","0.05201559588469174","0.02691761486578421","-0.1566666237470114","-0.2700748811826069","0.3887650956344082","0.2538903482261264","-0.12531582342028968","0.7163594801708261"
"0.10713141706357","-0.07934164630680356","-0.08548827786772656","0.018701104037934225","-0.059407301207447166","0.3743494070298992","0.24332995841314126","-0.20999689916326975","0.6846205064163889"
"0.09671178624047225","-0.04830061527232934","0.06150604510511844","-0.09395022659135263","0.02099312006045156","0.002530210470319488","0.2118995634024632","-0.24369888023341008","0.7051315321948745"
"0.07428772397195013","0.05101011743330066","-0.016529508017873465","0.08430960099028029","0.14704807595079586","-0.07940016654044124","0.18827103949372662","-0.26426624439545054","0.7287968432126009"
"-0.1382353874291185","0.10956988877015494","-0.36746541721123793","-0.21164925337045018","0.629733012610686","0.3822853164131895","0.09124919957601238","-0.3200976011201174","0.7999235238404641"
"-0.19852713406951594","-0.022381499778980535","-0.048270368569607286","-0.17187806741800304","-0.37021042996658277","-0.29588303773562713","-0.15141685551972883","-0.4154805664129675","0.8807908987822535"
"-0.13193854899046953","-0.1496108789892484","-0.08819995396275074","-0.016055119251082824","0.6130038661957722","-0.42021228474050787","-0.13001743764011825","-0.38796066798960854","0.8721615588531376"
"-0.11385680191434908","0.004002348270088184","0.024737534678497455","0.06409378490145226","-0.2271415253117718","-0.5422845299941778","-0.09209477131961023","-0.3212981336016734","0.8940617776126358"
"0.02459180409261267","0.03538573017521736","-0.022355584380450152","0.16458366259074125","-0.8724677499428055","-0.4633137375378275","0.1446641527989469","-0.1979704660842985","0.7906077591442596"
"0.08682661642919318","0.04698404875810249","-0.07733879281748637","0.34998035295294766","-0.09182690311537584","-0.0907409936193756","0.26319686589772795","-0.08467450075346346","0.7320328456860195"
"0.08156952658838779","0.1917947588239958","0.09752197764215313","-0.07414261633268288","-0.19326919209141785","-0.05562156099381189","0.29738577961944973","-0.0316413081973462","0.6940833621341125"
"0.09435230118271183","0.008231164196244025","-0.0068949001344787405","-0.09816033058965938","-0.028932253156759888","0.3133375532390989","0.31154060290440044","-0.07898450449747367","0.6729185984822093"
"0.10593559545182657","-0.0469398954672443","-0.048885813715317264","-0.08698858423787538","0.09853115805049094","0.34221746812018583","0.30142603429724063","-0.14876578480452773","0.6651718046822076"
"0.10112717942025824","-0.03217660494077588","-0.040604152526401094","-0.04948948734008269","-0.010785078236719342","0.10661803478060318","0.2812804885590135","-0.20418816892558758","0.6737194273771463"
"0.09762251704767685","-0.008011883150319159","0.018847435498749593","-0.023805253526493125","0.03804536157779925","0.033668340544419084","0.27300493242588275","-0.2717992559005983","0.6826266059024645"
"0.050458908296396064","0.04634212139967306","0.006315898400967662","0.0050746350324839444","0.2609738023660639","-0.014139082248355585","0.23987484406799603","-0.31451710398057725","0.712911012888547"
"-0.16945961840241916","0.1202063550328044","-0.6757869131946033","-0.4962572899539027","1.1445072761849058","0.4889953884570038","0.060292489596523634","-0.3770503343385453","0.7945628732784377"
"-0.21916998057175355","-0.06421584340478195","0.09689001047910867","-0.21828259811052186","-1.0781955647963082","0.09901703533458939","-0.020540467784661946","-0.4317471219048187","0.7971941682189445"
"-0.12081798569285551","-0.21712751053926935","-0.4842347747227891","0.06200269277149063","0.5272759656832959","-0.0952283014021596","-0.15024657485443768","-0.40803990356024716","0.8844191439797225"
"-0.09696895081130578","0.09832888897578068","0.10103084107356675","0.3045578268518473","-0.4256152567913686","-0.5063423838270434","-0.09142603951087236","-0.36402917434628485","0.9063357061860563"
"-0.005857357317520955","0.0432799824795275","0.051619682982589336","-0.13627558723108718","-0.5652162740133884","-0.4572465285291958","0.17010382535634858","-0.27695758777189894","0.7800335490417258"
"0.09714736570677882","0.025918859714495965","-0.0034037978716997147","0.07429122865861325","-0.11783486221278179","-0.1471490492144262","0.252998705814476","-0.18308782111239477","0.7541618727012138"
"0.14401221161899036","0.10454145779579109","-0.1416259622660107","0.20381570876750768","0.10322441357547603","-0.09134043386942842","0.3176149168337693","-0.10103340489774203","0.7116525674822175"
"0.08102264520717177","0.06420598339040014","0.019370357347386395","-0.07441699996852039","0.0381626331334975","0.28499155275077165","0.27659936589784867","-0.10250438700426384","0.746480452688554"
"0.08715628576885577","2.924379554748429e-05","-0.04809275688326146","-0.07213817166666993","-0.1532819848953694","0.251379214842952","0.26966127338219364","-0.18911159178358633","0.7165556015328515"
"0.09888997241780492","-0.04049049907810461","-0.018214753785992063","-0.1250306719097465","-0.031147249581223786","0.1199246375783342","0.26684702702042207","-0.2518519469762844","0.7021897117644941"
"0.10341445302803416","-0.02987169101139901","0.09088425717801933","-0.1031088635307288","-0.06080977328171604","-0.05491291098160371","0.30117525986896415","-0.27542723867453095","0.7023531462328485"
"0.05237299313065206","0.12740466667344508","-0.12393294695293218","0.13994690034133137","0.29510221837130995","-0.2705463729155812","0.3032929105966336","-0.27354068763208594","0.7283555701480439"
"-0.23947584030739683","0.16339622487664857","-0.3144710466108417","-0.45622616160960955","0.9197766827141761","0.7786924842011501","0.13569200103171428","-0.36453049560231926","0.8319076492974328"
"-0.17491880402124793","-0.08757555920368072","-0.1895088337535472","0.2029588616240151","-0.4081202553188336","0.23372120974423033","-0.1586893139397529","-0.43164158058775876","0.9553170163518894"
"-0.14988550135995227","-0.12643709360646432","0.045004680292290454","-0.01317168420079042","0.18299539771789233","-0.6033691902930816","-0.09267991165225566","-0.32949077833844514","0.9591740698050546"
"-0.0617490196055291","0.030195259285133443","0.04799929593416787","0.05872645588463085","-0.8146456930924026","-0.5390810436376201","0.10766099271545355","-0.33112666875287294","0.8499835014974367"
"0.1140300175854232","0.02407929118411001","-0.09471169404470901","0.0969408757347999","0.12033409422214535","-0.11662613413380188","0.20315032223814344","-0.17287274088746338","0.8155315155683155"
