"AccX","AccY","AccZ","GyroX","GyroY","GyroZ","MagX","MagY","MagZ"
"-0.10425749316307534","-0.00968110202571737","0.12160281790718121","0.11439552597246311","-0.1106812973151885","0.08165268315188547","-0.15398032745322393","-0.4029871130060063","1.0409403343227934"
"-0.11176748396146403","-0.035276137687626066","-0.021837206086580335","0.07332173981198739","0.491639772533358","-0.10380976182396828","-0.09808549377288663","-0.3318522653076595","1.0375735842746916"
"-0.12529509559189492","-0.07752285212458684","-0.22345538361943626","0.040893445054391714","0.057687150508728725","-0.32733544923637387","-0.17774817048878105","-0.25805249935355123","1.0846100242671064"
"-0.007908162497080953","0.03783502582437043","-0.015040461205602002","0.13048307177893592","-0.9196635678687137","-0.3105414147004813","0.0661160290976154","-0.22050617580950543","0.945641695825305"
"0.04036856168522767","0.07841252138593299","0.0501698759614873","0.24385646460779517","0.16096509832600664","-0.02385850839182322","0.14661462057443234","-0.1107761877288305","0.8795487968227593"
"0.09094247651444343","0.08132716243407698","-0.12212791655913847","0.4856510265046022","-0.45285097727802354","0.06679772861515162","0.20635466215501216","-0.0026794515296569075","0.8162996575695814"
"0.09262625496421549","0.16719793059161897","0.0905021855271591","-0.054424541786760094","0.3143921926351447","0.5069543271225537","0.24539188149008312","0.07653986105547528","0.7715513001341289"
"0.07023329176015336","0.008089067654766443","-0.04709317483452444","-0.35661046055660284","-0.314231211848581","0.446573463068651","0.3154694022807353","-0.1092102184369548","0.7488665959265293"
"0.07973343012011506","-0.06404341631497729","-0.029172981783096602","-0.27768424839534367","-0.0633658145365269","0.3255447777644659","0.3137697089335266","-0.26017651835938094","0.7262472655062712"
"0.11052342957417555","-0.1060055221820195","0.05978982055449766","0.037248475070950304","-0.11447227985041357","0.2421886066366767","0.31337961537842945","-0.34216892905026103","0.7156076816163957"
"0.035334942211641004","-0.07837979398656789","-0.11829067803320176","-0.12215205060745125","0.17148603218007827","-0.08486550841541667","0.290169048850154","-0.36744607448609795","0.7659781847632418"
"-0.5017478266511248","0.11243674881750967","-0.07987079197399788","0.09824058769403021","0.41452774141912047","0.580634513323377","0.014289313920433429","-0.38090259241123026","0.9888047389177193"
"-0.1177177074401874","-0.016316428830971733","-0.12254303224466769","0.1229832523993774","-0.05655688441486316","0.03455172617607585","0.009413144481719976","-0.35517689637788896","0.9964698154835436"
"-0.05373836275391449","-0.07782823504267464","-0.15467009495159537","-0.0076929650553149665","-0.1562496732436517","-0.4402340744689925","-0.01170763514425002","-0.2897544724654072","1.0138102125759525"
"-0.01307850231597162","0.0703344161003251","-0.06987703673879456","0.22222348110860643","-0.3168877715797046","-0.8720980117033967","0.18799240124008587","-0.1836221240300103","0.8808889594632661"
"0.12334529463342456","0.037380067599464134","-0.013413042498154136","0.11994096366517905","0.11444179687257199","-0.2853503628966425","0.19303575363098363","-0.03862154705439281","0.8497220063480695"
"0.09575711235890376","0.08893265129883471","-0.024319639191088375","0.016363548010518546","0.04863091445235768","-0.14315439880314312","0.26341977650064047","-0.018378722442311334","0.7672039432759002"
"0.06483283812064539","0.08972934755112495","-0.02162655036556551","-0.012194493357369123","-0.05451779532394663","-0.08668324423440273","0.26787798855889283","-0.00441164839590189","0.7608953727974178"
"0.0963422561804182","0.010121318264422072","-0.03419567505278342","-0.22027548978134162","-0.23150689914021283","0.16387549963686224","0.2499336850244273","-0.04098171475714397","0.7937457009366652"
"0.11332908511090693","-0.044861421932912114","0.06799093690890816","-0.1716084975301627","0.01674597510653083","0.158143200565507","0.2554228586211508","-0.13700584355113263","0.8063301549999591"
"0.07311115874686924","-0.032850732538867625","-0.09522387658207838","0.09422495911480831","0.16915256755138858","-0.01376242991309973","0.22087171516969611","-0.14583569398965332","0.8659183621619971"
"-0.30512086243997893","-0.004001187492766226","-0.06246691196427306","-0.5610503379955317","1.947075510630853","0.660891554089557","-0.04029591996779223","-0.3574988053532059","1.005344307115191"
"-0.07371686391629466","-0.10016793034646385","-0.23946108791222936","0.14327801395535864","-0.8869232641554062","-0.1071637149639399","-0.0832062110284698","-0.33492615616702803","1.0413979508341862"
"-0.11464631376751303","-0.043784271980337165","-0.13102708814593145","0.1467535400093004","0.2851939685633353","-0.36019545322712315","-0.21098971414812434","-0.26929264962042654","1.1124919445683783"
"-0.029581225685764222","-0.015694237103303078","-0.016479941965869972","0.04062098691775307","-0.1565320822961495","-0.32636469579499283","-0.15515060811851508","-0.18586355775106914","1.0696721138595084"
"0.038414038438980364","0.07438645271073482","-0.11445963526376547","0.4919474088848735","-1.0759219325939953","-0.15216784450636636","0.10961146049093899","-0.06176675788562048","0.8862822969189633"
"0.05045120574173105","0.14312046106347306","0.08610319841184952","0.2371364724037748","-0.20654481085587087","0.24239974551017712","0.2166921413650845","0.07907285266491197","0.7884340807151452"
"0.0975172808945661","0.10733456890714502","-0.17799298767140342","0.09816356772607583","-0.048790635471172863","0.28787954423888035","0.3069430717193277","0.08359793663385355","0.7259040531227269"
"0.0894580016666286","-0.01447166671354347","-0.05938555573138953","-0.21437383473683666","-0.26076495563839885","0.48132643627009336","0.2785498336733341","-0.034510712754911195","0.7521025983999474"
"0.08102264520717177","-0.012598859226086735","-0.00397215526800638","-0.06220740954855102","-0.015127476413431715","0.37456782655421","0.3001442983304934","-0.1446219688434649","0.7485397269898204"
"0.07604679489357272","-0.031980287350576585","0.16474800092405098","0.04575918152991019","-0.08069328521520723","0.28205502359059387","0.287995670471756","-0.20531878028459136","0.7765197079721047"
"0.02843537887045467","-0.0479339480271423","0.022348450971929317","0.1256693237817867","-0.20517105834626279","0.27186211245609265","0.3813116216160476","-0.2607174176093128","0.7747546157138765"
"-0.3799896937839155","0.21160309980336348","-0.16594637178238897","0.3417295888858338","1.7548937571090257","0.9752943249168518","0.1676796725496741","-0.2407041453618365","0.9689311075658165"
"-0.04885686873496183","0.021829429277381622","-0.11872851149256591","0.021524848613061975","-0.7532336906594004","0.5032169263732366","0.16107594593838806","-0.300216255518966","0.9344137478493532"
"-0.06894128002398596","-0.07809103054701548","0.014188433135638372","-0.07983439196451214","-0.18652009439613076","-0.10328798184922597","0.19454040020064373","-0.3682508270286794","0.8677651716544025"
"-0.04158758276985484","-0.0009428918270319707","0.057191733328648145","-0.15499143944400345","0.01678139590294581","-0.7293729869843447","0.24664575363146674","-0.33148287069795007","0.832430639596167"
"0.019381025861730673","0.05623071112822997","-0.03931750042647721","-0.31273796131058457","-0.2927394042940852","-0.7271402540691683","0.3501041372082821","-0.30689174382300227","0.7384558202923497"
"0.13354829110656877","-0.02786281154343377","-0.04722948147753403","-0.28109238197732533","0.18640584602136184","-0.5160984559129232","0.390228045732552","-0.2713111273091964","0.6949168779227203"
"0.11083538303810862","0.03322935283525054","-0.028507970585383135","-0.1497059441431336","-0.15037173567640874","-0.2003390571512986","0.39802991683449346","-0.2470366243854282","0.6863202248872753"
"0.10473813704721684","0.03133784843444149","0.04421368871240146","-0.08427266761788377","0.27578831113692454","-0.05957738126743976","0.39451907483862003","-0.23619225405752742","0.7068639375594317"
"0.1027166978573172","-0.03596688476425321","0.002591422643338878","-0.03278481904037534","0.04565604621291024","-0.2489228400088178","0.39947883575342563","-0.24003131946557985","0.7325885228784245"
"0.013700391796282818","0.031478075284583844","0.051601095713088026","-0.10230978136320203","0.33387363066338466","-0.3471145506045132","0.34049111745767585","-0.24288093502619618","0.8332478119379395"
"-0.19378043475720103","0.1421440666995189","-0.05984404171242181","-0.2898052658521655","0.7160113714458278","0.8348505707850451","0.2203980301385065","-0.3484354447506903","0.9581280892075861"
"-0.022543016360607626","-0.138101890103491","-0.17349280319992003","0.10310247317115095","-0.36975570352612014","0.2920537840368189","0.08966096153026014","-0.40929320670033303","1.038243665594945"
"-0.13958333449549598","-0.06619356135049334","-0.082780732277036","0.07799877736601761","0.2668613131215271","-0.22098212908226708","0.048283180864606604","-0.3729606083024757","1.075147168549383"
"-0.06098839233235896","-0.03302212091126383","-0.13896385222299001","0.08463308485568871","0.018946851078369836","-0.2682893711643702","0.0657537993678825","-0.2697807782118284","1.0550774158354548"
"-0.009776032003346867","0.034276379982980096","-0.030608332039030954","0.14952625885565837","-0.6327551169073605","-0.28581147078129854","0.18459301454566823","-0.23438485900287725","0.9237741639594776"
"0.038994618496855794","0.08982906442233732","0.02715408623888419","0.25362837304200814","-0.09207819930615782","-0.047018258619572144","0.23572313408874837","-0.13096624168238205","0.855409525846805"
"0.10400081000190836","0.08608656559964921","-0.06192168539223469","0.3920236279600492","-0.16776861196968598","0.210607570304947","0.29668918398534755","-0.007474985123564381","0.8004628575860339"
"0.0836212945872809","0.14205058213275729","0.030048950201104586","0.055576339195296386","0.2263284341969235","0.27470156627213227","0.30719384614760453","0.03453573613211357","0.7840213500695745"
"0.08779319075771912","-0.014905850590280528","-0.004295160706895779","-0.0808163965559306","-0.16527240314125177","0.5154726885706725","0.3555933108050055","-0.07377735976703274","0.7766994858872944"
"0.11314326097961346","-0.09480503236657528","0.07227426990287628","-0.07613454525390323","0.009235090958616122","0.10647484864799947","0.3243579625718757","-0.15362068538928136","0.8016559292050215"
"0.0785222033990416","-0.03253703988151214","-0.01085419506347405","0.18387716456331546","-0.06421064839696533","-0.11342992842805469","0.380336387728305","-0.13231189347489528","0.8257134829467986"
"-0.3463584144777979","0.49591044167345927","-0.45594082003746456","0.28191395627325716","1.799313350451057","1.3324587848369824","0.2873548024883821","-0.07452010678584152","0.9706635129303737"
"-0.11511809524074514","0.018753787030926054","-0.08717765414017879","-0.2865126622221154","-0.6022645124258154","0.5528952337359129","0.3680763045681115","-0.2555195077441146","0.9388755088354301"
"-0.0829984422876366","-0.2245751143579409","-0.07194228890560657","-0.17410201899268601","0.1747552759572989","-0.04088309687004377","0.3472341631957826","-0.4174594661078399","0.8661308269708579"
"0.02475933465657672","-0.021432112067646395","-0.06680807201891191","0.03596127885651259","0.021203730201297396","-0.3757517771252548","0.31271088356969157","-0.33470188086827585","0.8749562882619991"
"-0.009833801163334457","0.02361913937216141","-0.0008383416300858324","-0.10909716603918249","-0.13196488802589348","-0.5442503057129743","0.31298952182333234","-0.25813165534134613","0.8534319687797158"
"0.10967422292235776","-0.02946555250469042","-0.18646878256399993","-0.17606602817552292","0.019169427704491003","-0.6190468583713858","0.4274541164189585","-0.22563812235154124","0.7294669245328542"
"0.09798087840346664","0.027291005411074085","0.028591708272202032","-0.07716757557409147","0.23797421766687635","-0.3380380059276002","0.35302983887151007","-0.17157194415470056","0.782681187429068"
"0.06977884103491754","0.10305505318428217","0.02349363329842658","-0.273987289933533","-0.04236223958126467","-0.11910883606013398","0.3252774688088901","-0.20083459357601047","0.7986160480936284"
"0.11230849661779257","0.009599882125374219","0.09866406209040018","-0.2399733465856764","-0.09556762641244454","0.016706122974807277","0.3454787421978457","-0.26784145651085345","0.7835964204518531"
"0.07361856453542703","-0.036854988148488095","-0.042355486363857685","-0.02621405302426661","0.30793029058646554","-0.04662753035941626","0.30691520789396376","-0.30558567002438647","0.8487087126442718"
"-0.2454453201727827","0.35007451752541413","-0.3581717824605839","-0.1631170460631914","1.1430952309224167","1.0284916135045343","0.18046916839178515","-0.41698453018107046","0.9455109482506215"
"-0.08738889844669459","-0.16041354003725175","0.15194137223764967","0.14721565981702675","-0.41857896344947354","0.4657215746998926","0.07188384094797926","-0.5322752264043369","0.9729189085936651"
"0.022461084908403157","-0.14966281485967148","-0.440203598526357","0.2565551318242749","-0.016323646281553875","-0.3153466442353176","0.1117012473932445","-0.45253876136561144","1.0387666558936792"
"-0.1845855101258405","0.08029779348229127","0.3272854117043232","0.06374238129766038","1.0053131194622473","-0.487388422884078","-0.20329929834763916","-0.4190557785283703","1.1649217220164907"
"-0.051023212234497024","-0.045492962117256924","0.10801345864955816","-0.13242458883336777","-0.901378778368007","-0.6054077725199819","0.00559580040684156","-0.3919976233671482","1.017781670156966"
"0.056634431499071075","0.04352927465755834","0.03886055509602472","0.03098482617705969","0.08348210616823377","-0.3747567548478392","0.17472922036678523","-0.29561201556222955","0.8910872702885847"
"0.061730634229310986","0.04270557175264809","-0.04087057005591985","0.4526287152441583","-0.3504417962917348","-0.01739935768123391","0.21699864344408917","-0.18694931405032245","0.856978496743008"
"0.11999083207681094","0.18678814091520965","-0.055096026980921","0.315802742173188","-0.2491095989802258","0.029751350408446463","0.26470151246738804","-0.07121138649601486","0.8161852534417333"
"0.060986374884804004","0.02055492301719892","-0.02969962108563367","-0.15756198087448117","-0.1917183355997349","0.43385659298655893","0.3550081704723595","-0.13193458326640628","0.7907058198252722"
"0.09385731576355137","-0.06920895798725811","-0.025608356543179073","-0.1245589246060259","-0.1481962286533534","0.4772007341442238","0.38858408003607187","-0.2617728307799114","0.7634612939505828"
"0.10593174417449407","-0.03149832247305028","0.06981248932003635","-0.023337357221170214","-0.03384449536228355","0.02639739726847486","0.3469276611167776","-0.3336992383562071","0.7959847531531213"
"-0.025027090240074646","0.05054373331690128","-0.16703682492646568","-0.1594682250813523","0.38621503725768563","-0.0353886323918269","0.3212929417818273","-0.35557267631686346","0.8954836574873197"
"-0.28652882111730127","0.019295997518143145","0.010178931926467863","-0.020806288524269138","0.4074914480772254","0.22364721590629824","-0.0808099220471593","-0.48053359571573967","1.1130476217607834"
"-0.10015588280395538","-0.12804710558958018","-0.0738196031252387","0.03105992064581522","-0.1618667414318924","-0.029687882807316556","0.14544433990914088","-0.4494912558355079","1.0089888957594957"
"-0.08176603354123435","-0.027272820055427433","-0.248341672229521","-0.04312089873985423","0.16906162226329607","-0.3711164294426602","0.17411621620877588","-0.3867733281726851","0.9998038786379748"
"-0.040239635703477376","0.06832553663235987","0.01541870385140829","0.13099332906663375","-0.2733776311185985","-0.36572874784299525","0.16461465175962545","-0.29728748397055477","0.9703039570999938"
"0.04556104634878026","0.05525535548168429","-0.040511216178894555","0.07132403439317045","-0.3500828017334748","-0.3373342096825989","0.288302172550761","-0.2251763790894043","0.8375297950088265"
"0.10567178295454983","0.04336827345924676","0.029818055008855003","0.014375470087695904","-0.04972162802559368","-0.2748904945657615","0.3009244854406874","-0.16319987917892706","0.8059379122759084"
"0.0949764969563779","0.11930267088744258","0.054913760188654494","-0.05182030412030234","0.11170386504157609","-0.11276496232070866","0.25851574323656307","-0.1272511873218749","0.8059542557227437"
"0.08309366959272745","0.0010050149290565561","-0.02312592343867103","-0.1953210201641199","-0.20145905461385488","0.2503599237295019","0.30775112265488597","-0.19825806617328662","0.7727770586467874"
"0.10266104689986248","-0.06847354606206713","-0.06133515377686008","-0.041674848841510584","0.1104593505729416","-0.005812444604909443","0.32781307691702094","-0.2612055462007146","0.7628565864176713"
"0.0729513307375702","-0.03708038982612432","0.13859571273571045","0.06699166119573612","0.04074500065591409","-0.1897335758042104","0.3139647557110752","-0.2439759261906922","0.8137827667569227"
"0.000840013963708742","0.07662488872597013","-0.06960029294844175","-0.08716669291376991","0.2685605540306242","0.24191194190588314","0.2789677910537952","-0.20645203017652167","0.8990138420037762"
"-0.27263533814028224","0.003076892607845005","-0.17698514461399917","-0.2250796102824966","1.246820725288992","0.36083166535866784","0.013648445937059495","-0.337604267087422","1.0766507656582442"
"-0.05768592201973419","-0.06772359209315766","-0.30081972978821425","0.16408303279903771","-0.25267561159227464","-0.08007969394940798","-0.03828972454157858","-0.2831581401491659","1.1125736618025555"
"-0.11963371791310959","-0.0262278703425148","-0.08076711141439431","-0.10776857159196929","-0.13569364483768687","-0.4329048859865654","-0.07668607589327589","-0.26094169290806496","1.1035684225962246"
"-0.04233858184969372","-0.005191246027640979","0.07560758690011087","-0.07049379535084374","-0.36492124347488614","-0.2609359138459086","0.02607571204943762","-0.2589496005485601","1.0113423521037999"
"0.05078337841165979","0.028520846822692927","0.014469100905108124","0.28534134484722745","-0.6001823439879076","-0.24749097868278075","0.22591506756059357","-0.1897118580243643","0.8519120282240196"
"0.09009548434709182","0.07067303797548367","-0.020961539167852043","0.3044711793878986","-0.08653532332662417","0.005547797542852549","0.30563347192721624","-0.05209257691062091","0.7601435742429874"
"0.10017475853592926","0.14252839214064977","-0.08994302679154006","0.08713142006620918","-0.10451137750722747","0.009102696645190035","0.3521103326344957","-0.006031707612770766","0.7193013006012065"
"0.05607214500852505","0.010269854853832118","0.03581017764564338","-0.2406857812892545","-0.37777324866059236","0.4817632753187148","0.34628679313340366","-0.12346621183881562","0.7241879912050051"
"0.103815948689948","-0.041342247353043336","-0.0695548574007719","-0.11361246166050848","-0.09035263212945499","0.2537090231022666","0.38671720373667856","-0.22644287489412268","0.6868105282923388"
"0.09541949975974286","-0.052787874476884565","0.09667728950592704","-0.019215826186011024","-0.012172472539541302","0.1378301848046081","0.37874814968255277","-0.2771950557352837","0.7025002372543674"
"0.024204750720695712","-0.013294799889756183","-0.010912022124144789","0.18515762153055715","0.04019932892735896","0.06004613843034625","0.4125748336745417","-0.29840886046431586","0.7290583383619679"
"-0.38731674890900997","0.09589413537034612","0.053858416331413556","0.060691427817067184","1.074527270294766","0.789055277187893","0.14845363304846135","-0.3002954115067609","0.9396109639430253"
"-0.11744811802691188","0.05083353547386215","0.026694361106551837","-0.006386225024008829","-0.8231418976378881","-0.08141690681491041","0.19080664760185745","-0.31464903062690214","0.8992589937063079"
"-0.07855984516192223","-0.08040633165047698","0.02152627408432145","-0.21621268647174768","-0.06521822645714825","-0.03842223689614275","0.2590451559184806","-0.3761268478142715","0.8032902738885661"
"-0.042531145716319066","-0.02022200628678833","-0.03810106690022494","-7.62382794629588e-06","0.01139839216669059","-0.3791736830061231","0.2490420426127772","-0.37437222341815135","0.7919315783379308"
"0.047894920412279524","0.019732258829697126","-0.035684721865054884","0.1940919378132662","-0.29108802932608946","-0.33663041343759764","0.3543951663143501","-0.31061207524936235","0.7049190673860135"
"0.10815296837601748","-0.016083756131476275","-0.06973246908711772","0.1486886667041544","-0.05562110526633221","-0.09579619216536753","0.37220015072199464","-0.25174640565922457","0.6862711945467692"
"0.10599143897314793","0.04713570149973792","-0.05725628074740635","-0.10812478894375833","0.2452019747731767","-0.14265688766443532","0.34712270789432587","-0.2050021563334118","0.7095279193936093"
"0.0891952482706183","0.030363531505304266","0.03130586266982638","-0.23717174525133553","-0.034229816188149235","0.01893400212277684","0.33229915280063754","-0.2412978152702982","0.7105085262037362"
"0.08902145938098893","0.009320986501202208","0.10990316438219115","-0.17015474563502364","0.18806679417757788","0.0418784877748995","0.3028749532161725","-0.3086463682191225","0.7173564304277883"
"0.07095636907933156","0.0237500177656276","0.02743475400835394","0.02753914536070026","0.08818972147554927","0.04381514089045473","0.26810089916180535","-0.37265717701592854","0.7481311408189341"
"-0.08861167899976556","-0.043861137068563344","-0.26471912191234026","-0.07704338087576501","0.5584366933402597","0.15212695611254784","0.17467349271605734","-0.368461909662799","0.8674383027176936"
"-0.13294950929025265","0.00603998982309373","0.256075516992645","0.2081769644529249","-0.1788950499786894","0.3000139622561437","-0.048961569656020144","-0.4297154515514164","0.9793255397531603"
"-2.1709339439696584e-05","-0.0725131180635753","-0.20226589638794504","-0.04016044372160744","0.40715638648951613","-0.05169486332342545","-0.009422801464395326","-0.4122747489072741","0.9624591026189795"
"-0.11580169696726514","-0.04584716475354242","-0.07839000617039367","-0.1476071500163765","-0.14728916906948328","-0.21445138530537594","-0.06308852911560663","-0.43892393146488917","0.9695848454392342"
"-0.047807395661853685","-0.03249652990258213","0.009112456360047807","-0.03191353065289133","-0.673895893283951","-0.3172396134460107","-0.013045098761725478","-0.43891073880025677","0.9202439794430212"
"0.012559450886527605","0.04415769868967777","-0.016651357895715372","0.22265671842834986","-0.12299959725761496","-0.2496266362538191","0.16639793658292656","-0.3459024531412537","0.8302733046138882"
"0.050001569113160865","0.058396436924872945","-0.0435801808987772","0.4951052275710034","-0.11066454423580305","0.04648956662145959","0.23764573803886987","-0.21182408321486856","0.8181954974024933"
"0.09389717648394282","0.13322148416083152","-0.08430488837614328","0.4585977627606234","-0.206657295817459","0.1388252070820237","0.2588222453155681","-0.08439877406264457","0.7970961075379318"
"0.07615944475554855","0.07583130862590527","0.017009774120720265","-0.055920654664274094","-0.021271787942903533","0.5297913018310434","0.2788284719269748","-0.09455052949734002","0.7836127638986884"
"0.07614981656221728","-0.016420300571817918","0.06260888976219606","-0.05925947027509681","-0.0529765120204839","0.3569971892652126","0.21830824323620068","-0.18604825505592384","0.8048102144442626"
"0.09118221852839199","-0.04202780084262816","0.08330065122148561","-0.03971661615627027","-0.10002394552897807","0.2935827207069941","0.21850329001374957","-0.25550631507948207","0.8084221161948961"
"0.0647432959226646","-0.08494552672545529","-0.08508968419953185","0.07702832576979231","0.15440028450395965","0.09682070567346471","0.22909154365209836","-0.2855723977769101","0.8426779807619922"
"-0.26568378255510705","0.14703642569337422","-0.8328906455239931","-0.3118233491911262","1.7986671602461892","0.35260452994296326","-0.013184417888545845","-0.33708975316675516","0.9815319050759455"
"-0.08147718774129631","0.06544101838906129","-0.0306682243518685","0.08611090549081353","-0.39632130083735656","0.1734616898705003","-0.07819072246293597","-0.23372522577125313","1.0280290113227908"
"-0.08096689349473912","-0.19341359210408507","-0.18224534188286934","-0.05866160277385088","0.06797593454845893","-0.3278450947930989","-0.17061503119557747","-0.21323305979761775","1.0816845472835617"
"-0.10105130478376326","0.09121471344522541","0.009029743010766988","-0.07255311674402419","0.15700419169987181","-0.5887108133282274","-0.12313507277519145","-0.21889667072434255","1.0476248040784912"
"-0.023034054220502274","0.021790996733268533","-0.047423615181214365","-0.07198798272915888","-0.3996240507733481","-0.4260368053887943","-0.004908861755415076","-0.20064329993883945","0.9766615579189825"
"0.08489799302300696","0.02029316623026653","0.06987857738937434","0.023469602803910274","-0.02892650924382773","-0.41487314081291204","0.11986534822491915","-0.15707452499006533","0.8908911489265593"
