"AccX","AccY","AccZ","GyroX","GyroY","GyroZ","MagX","MagY","MagZ"
"0.0029161594973523284","-0.004707871450702551","-0.0060002442015278","0.0013009232655043761","-0.0026846053574616706","-0.0018025687511487945","-0.2516310039715345","-0.09562605232615497","0.6132337380410962"
"0.0029138156733135787","-0.004208580288710739","-0.0061965742256117565","0.0008813880348883736","-0.003993797532017519","-0.0018168411845036895","-0.24900884964932357","-0.093468419589856","0.614803430351673"
"0.002562242067500357","-0.003960348423529932","-0.006305790927751175","-0.00032696735508361274","-0.003989415367987492","-0.0015615232100439026","-0.24827336733943486","-0.09400723696540492","0.6129227612625856"
"0.002915378222672745","-0.004706208255625964","-0.006585333677274686","-0.0003213839882084994","-0.0039916477911726","-0.0020734566529048305","-0.2529740586243746","-0.09560478321922541","0.6177651139565348"
"0.002917722046711508","-0.00520516677860246","-0.006682848589899168","0.0006138038728735899","-0.0035572347758185243","-0.002833067272570904","-0.25658751519034834","-0.09611051531732835","0.6154105754906696"
"0.0029185033213910915","-0.005205998376140755","-0.006389003653190731","0.0007938283188468745","-0.0028294648174731554","-0.002060770045478257","-0.2527182386905001","-0.09569340449809859","0.6156771270151071"
"0.00279974957009418","-0.004707871450702551","-0.006199174623281742","0.0006432861372141424","-0.003119101055155935","-0.0007902351449056421","-0.25370954093426296","-0.09389734657960218","0.6150847902941348"
"0.002567710990257453","-0.004959013907267388","-0.006011945991042736","7.164329500042244e-05","-0.003773118366052535","-0.004869700262516363","-0.25454095571935437","-0.09419393245956441","0.6152624913104264"
"0.003275545849961409","-0.006701210749993654","-0.006374701466005806","0.0013826387096765975","-0.003125136865989747","-0.005886070516577062","-0.25006410687655467","-0.09281262212619447","0.6178095392106076"
"0.003327109978814006","-0.005389781432103764","-0.006961091140587688","0.0025176276152896163","-0.005603291966140555","-0.009219188285922218","-0.2545089782276199","-0.09332426230955561","0.6158252111953503"
"0.0024341130200484203","-0.0015920417942219928","-0.006022347581722682","0.0010061528030976847","-0.005157220740819802","-0.00665534025780655","-0.24939257955013464","-0.08983731039015896","0.6170543098913679"
"0.002787249175220822","-0.0022136609540968776","-0.006204375418621714","-0.001160245725445173","-0.0032609839509206077","-0.0020555800697128405","-0.24686635770312648","-0.08939656722989638","0.6167285246948332"
"0.00303491324864924","-0.0053290748118082895","-0.0067751627071836774","-0.0022766060144748692","-0.0023868662504403487","-0.0007846126711597744","-0.2501600393517578","-0.09029932265735113","0.6177947307925833"
"0.00298256784511706","-0.006576471119249531","-0.0067751627071836774","-0.00011547776681412793","-0.003120093243238205","-0.004104899667084874","-0.25444502324415125","-0.09261883692972513","0.616965459383222"
"0.0031513231759074016","-0.0052035035835258725","-0.006772562309513689","-0.0006192853105451608","-0.0023922406025526466","-0.005109159977692934","-0.2529740586243746","-0.09065026292168891","0.6150847902941348"
"0.0025661484408982865","-0.004708703048240846","-0.006402005641540661","-0.0011399473168991997","-0.0034065875519937953","-0.0041015838492347466","-0.2476338175047493","-0.09189450567706835","0.6163435058262011"
"0.0031513231759074016","-0.0054513196499375305","-0.007453866499050064","-0.0008796163137221802","-0.0020995451182828665","-0.0012906353082878666","-0.2516310039715345","-0.09154947349798877","0.6153069165644994"
"0.0027958431966962505","-0.004145212556292723","-0.006785564297863621","-4.1798196462163346e-05","-0.002244817989995297","-0.0020502459279539403","-0.2526223062152973","-0.09309975506974356","0.6179428149728264"
"0.0029208471454298408","-0.005704956899117251","-0.006193973827941767","-9.909293318061738e-05","-0.0029727533130210447","-0.000537800490315531","-0.2540293158516057","-0.0924675899471149","0.616772949948906"
"0.003038038347367586","-0.006199757434402276","-0.007749011634593496","0.0008366689188886329","-0.0036309874232672936","-0.0013115393773430158","-0.253933383376403","-0.09250185684161254","0.6179131981367778"
"0.002922409694789007","-0.006202252227017158","-0.0069727929301026245","0.0014481258632118067","-0.004214145968621746","-0.002590147573550723","-0.25607587532260007","-0.092057568830195","0.6182537917513369"
"0.0032653892791268007","-0.00482762149621691","-0.007353751188755599","0.0007889233049565879","-0.0041413028269150585","-0.001567289849783254","-0.2561718077978028","-0.09144903604859916","0.6176762634483888"
"0.0029161594973523284","-0.004954024322037624","-0.0073654529782705355","0.001438889826418395","-0.003849682213067737","-0.001563829865939643","-0.25607587532260007","-0.0911878986801862","0.6188165116362606"
"0.002624744041867145","-0.004956519114652506","-0.0067894648943686","0.0009664952439847294","-0.0037011847300879278","-0.0005439996280353338","-0.2571631100415653","-0.0897959537933515","0.6168914172931005"
"0.003092727574938529","-0.005141965365692103","-0.006773862508348685","0.0007767129512297042","-0.002392902061274161","0.00023420840479014858","-0.2552444605375086","-0.09089131280022397","0.618638810619969"
"0.002800530844773763","-0.005080427147858335","-0.006784264099028628","0.00064177288824799","-0.00210020657700438","-0.0002706609043900736","-0.2575468399423767","-0.08995310886121992","0.6172616277437082"
"0.002914596947993162","-0.004580637027343546","-0.006976693526607604","0.0002366396133098503","-0.004793501126327496","-0.002337280420980161","-0.25140716152939446","-0.08929140331230018","0.6189053621444065"
"0.0029208471454298408","-0.005704956899117251","-0.006389003653190731","-0.00022500568336425097","-0.0038464576018003584","-0.002329495457332036","-0.25578807789699104","-0.08807433774910854","0.6184314927676287"
"0.0028013121194533463","-0.005266704996436228","-0.0069792939242775895","0.0009420223555321291","-0.0044309390645978376","-0.003352785679079957","-0.2573229975002367","-0.09163573154275867","0.6191719136688442"
"0.00303491324864924","-0.0052658733988979346","-0.006971492731267632","0.001213676635455874","-0.0050145937039934255","-0.0025967792092509772","-0.2574189299754398","-0.08985030817772703","0.6187868948002121"
"0.0030880399268610166","-0.004453652083246027","-0.007555282008179525","-0.0001323844104359669","-0.005157799517201126","-0.0025962025452770424","-0.25220659882275176","-0.09047538359804586","0.6190830631606982"
"0.003155229549305331","-0.0058904031501568485","-0.006576232285429735","-0.000879146684732685","-0.005010790316344722","-0.0018358710956435493","-0.25585203288046005","-0.08995074562711664","0.616921034129149"
"0.003035694523328823","-0.005453814442552414","-0.0067751627071836774","-0.0005032869501397662","-0.0038465402841405478","-0.002329062959351585","-0.2540612933433402","-0.08924886509844107","0.6178983897187535"
"0.0029192845960706744","-0.005453814442552414","-0.006876578216313135","-0.0004996864612203005","-0.002536025192141672","-0.002567513512573769","-0.254157225818543","-0.08980658834681626","0.616772949948906"
"0.0030942901242976954","-0.005638429096053718","-0.007553981809344532","0.0002746795614589878","-0.0055949410497814454","-0.0010791437958471513","-0.2540932708350743","-0.09070461730606447","0.617157968817538"
"0.0029208471454298408","-0.005704125301578957","-0.006584033478439693","0.0003092755636851582","-0.004428872006093108","0.00046199067449453207","-0.25319790106651463","-0.09202921002095558","0.6168025667849547"
"0.0029161594973523284","-0.004830947886370089","-0.00678036350252365","0.00033202647917627475","-0.004429864194175378","-0.00258812924964195","-0.25588401037219416","-0.08994483754185843","0.6167285246948332"
"0.00303491324864924","-0.005142796963230398","-0.006386403255520746","-0.0002543835857071378","-0.004282358899277839","0.0012289537598282794","-0.2540612933433402","-0.09056873134512561","0.6175281792681457"
"0.0028028746688125122","-0.005455477637629003","-0.006490419162320193","0.0004976489694716966","-0.00501103836336529","-5.282608823607142e-05","-0.25204671136408036","-0.09110873033772615","0.6154994259988155"
"0.002977880197039547","-0.005454646040090708","-0.006485218366980221","0.0006871181762337247","-0.0032656968443113927","-0.0002860866656928388","-0.2499681744013519","-0.0913887735789654","0.6145961124993325"
"0.002739591419766141","-0.004458724828229621","-0.006201775020951728","0.001338493584664018","-0.0032656968443113927","-0.000790955974873061","-0.2502239943352261","-0.09144785443154753","0.6166692910227358"
"0.002914596947993162","-0.004519348288771266","-0.0065866338761096785","-0.00043915650257421055","-0.0028257441121646407","0.0012488486669290418","-0.25463688819455715","-0.09255621122598807","0.6148774724417945"
"0.002977098922359964","-0.005453814442552414","-0.0069727929301026245","1.2887490314648939e-05","-0.004573400736743836","0.0027506258210496506","-0.25246241875662595","-0.09315410945411912","0.6147293882615514"
"0.0030341319739696565","-0.005142796963230398","-0.006581433080769707","0.001248794447670373","-0.0037767563890208603","-0.0010544914109614236","-0.2563956502399428","-0.09224544594140613","0.6146405377534054"
"0.0029185033213910915","-0.005267536593974523","-0.006779063303688657","0.0009686868459357086","-0.0039939628966978976","-0.000803210084319183","-0.2528461486574373","-0.09171253665111542","0.6160473374657148"
"0.002916940772031925","-0.004955687517114212","-0.006585333677274686","0.00022839501549426218","-0.0051569726937992335","-0.0013252351467239758","-0.25246241875662595","-0.09096457305742581","0.6156771270151071"
"0.0027934993726575013","-0.00489913888451021","-0.006585333677274686","0.00022380308759697257","-0.004582661158845027","-0.001048148107248137","-0.25127925156245756","-0.09215564304548131","0.6150847902941348"
"0.003145072978470723","-0.005209324766293931","-0.006573631887759749","0.0008620288843213913","-0.0025473526727475926","0.0007563776331884251","-0.2537734959177316","-0.09158492200953805","0.6161658048099093"
"0.0030255379524942285","-0.004648828025483667","-0.006578832683099721","0.0017147185862487666","-0.00284037888637813","-0.001662006907502102","-0.2529420811326401","-0.09026978223106008","0.6165508236785413"
"0.0026716205226422433","-0.003840099419492596","-0.006396804846200689","0.000685396203272241","-0.006620698162168704","-0.0013233609888086864","-0.2538694283929343","-0.0906857114332382","0.6157807859412773"
"0.0027958431966962505","-0.005337390787191232","-0.005998944002692807","-7.613329369416951e-05","-0.004289882992235057","0.0017527088141548774","-0.25354965347559155","-0.09166645358610137","0.61390011685219"
"0.002679433269438102","-0.0052750209718191695","-0.006004144798032778","0.00021712391974636956","-0.005164000692715317","-0.00029286246738657683","-0.250863544169912","-0.09156719775376339","0.6150847902941348"
"0.0027934993726575013","-0.004962340297420565","-0.006292788939401242","0.00031762452349841196","-0.0034183284443006622","-0.0010340198398867259","-0.2500001518930864","-0.09171962635342529","0.6150995987121591"
"0.002677089445399339","-0.004838432264214735","-0.00610165971065726","-9.632734024247702e-05","-0.0034170055268576355","-0.0015423491329105588","-0.24865709724024665","-0.09363739082824087","0.6147590050976"
"0.002909909299915649","-0.0048376006666764415","-0.006191373430271782","-0.00032759352706960686","-0.0047278513482172674","-0.001812948702679627","-0.2543490907689485","-0.09504115188559199","0.613130079114926"
"0.0028505324242671937","-0.004650324901052595","-0.006291488740566249","-0.000474952667773536","-0.003853485600716441","-0.0006567374349396553","-0.2507676116947089","-0.09334671303353682","0.6152772997284508"
"0.002792718097977918","-0.004712861035932318","-0.006390303852025724","0.0005111638481694013","-0.0031279480655561796","-0.002047362608084265","-0.2526223062152973","-0.09300758893971546","0.6141074347045303"
"0.002909909299915649","-0.004836769069138147","-0.006386403255520746","0.0007661723894654713","-0.004583736029267487","0.0007331669082375352","-0.2551485280623055","-0.09242505173325578","0.614803430351673"
"0.0027934993726575013","-0.004962340297420565","-0.006390303852025724","-0.00013713288132975496","-0.004291205909678084","-0.0023169530158989467","-0.25169495895500343","-0.09215327981137802","0.6150699818761105"
"0.0028513136989467766","-0.0048376006666764415","-0.006291488740566249","-0.00014709945210682665","-0.00399991602519152","-0.001040795641580464","-0.25620378528953697","-0.09294378161892677","0.612508125557905"
"0.0028505324242671937","-0.004712029438394024","-0.006584033478439693","0.0002321520474102264","-0.004001073577954169","-0.0020581750575955488","-0.2494565345336036","-0.09292723898020379","0.6158844448674474"
"0.0029106905745952326","-0.005085416733088101","-0.006581433080769707","0.0006849787552815783","-0.003710693199209686","-0.0005292946966999876","-0.25463688819455715","-0.0928941537027578","0.615573468088937"
"0.0028489698749080273","-0.004338226344930798","-0.006389003653190731","0.0005003102004121714","-0.0033460640789752987","-0.0007765393755246823","-0.25460491070282265","-0.093484962228579","0.615573468088937"
"0.002792718097977918","-0.004712861035932318","-0.00619527402677676","-4.618140036412153e-05","-0.0035634359513327146","-0.0020525525838496813","-0.25457293321108854","-0.0940875869249166","0.6159584869575689"
"0.0030263192271738114","-0.004835937471599853","-0.006577532484264728","-0.0006070227758194444","-0.0025444587908409707","-0.0012778045348678098","-0.2536775634425288","-0.0949797077989066","0.6159881037936177"
"0.003084914828142684","-0.005083753538011514","-0.006964991737092667","0.00022922991147558754","-0.004002231130716818","-0.001550999092519586","-0.25709915505809666","-0.09379572751316093","0.6164767815884198"
"0.002909909299915649","-0.005083753538011514","-0.007361552381765557","-0.00012340927863671908","-0.004001569671995304","-0.00384093173301606","-0.25553225796311724","-0.09331599099019412","0.6149959397859889"
"0.0029091280252360662","-0.004835937471599853","-0.00677646290601867","0.0008631246852968808","-0.003929139941989562","0.0003593444871340757","-0.2528461486574373","-0.09249358552225102","0.6167581415308817"
"0.002791936823298335","-0.004712029438394024","-0.006682848589899168","4.810966452681334e-05","-0.00363660982240016","-0.0021810044840437355","-0.25793056984318813","-0.09263656118549976","0.6173949035059271"
"0.0027911555486187377","-0.004710366243317434","-0.007366753177105528","-0.00013608926135309817","-0.0022534996357151636","-0.0020372709885404","-0.257898592351454","-0.09338097992803446","0.6176022213582673"
"0.002967723626204939","-0.0049598455048056826","-0.007067707445057121","-0.0002322588422020152","-0.0035641800923944173","-0.0017996854312791186","-0.2570352000746284","-0.09337979831098281","0.6174245203419757"
"0.0029083467505564833","-0.0046487448657298374","-0.006777763104853664","-0.0005055829140884108","-0.004582413111824459","-0.002701299554526723","-0.25540434799618","-0.09496198354313196","0.6206823723073236"
"0.0029075654758769","-0.004647746948683885","-0.0071678227553515885","0.00031449366356844184","-0.003127782700875801","-0.0005210772350714117","-0.2596893318885738","-0.09276890229528371","0.6171727772355624"
"0.002792718097977918","-0.004960677102343976","-0.00697539332777261","-0.000425641623876506","-0.003344162385150947","-0.0007792785294008743","-0.2621196212603792","-0.09470557264292555","0.6180760907350451"
"0.0029685049008845218","-0.005208493168755637","-0.0071639221588466065","0.0006169347328035601","-0.00385770240006609","-0.0035850370945823373","-0.2552444605375086","-0.09429318829190238","0.6180316654809722"
"0.0029122531239544128","-0.005335727592114644","-0.006385103056685753","-3.1414177694428935e-05","-0.004001486989655115","-0.003841220065003027","-0.2563956502399428","-0.09607743003988237","0.6185795769478718"
"0.0030872586521814333","-0.005582712060988008","-0.007062506649717149","0.003764283858404904","-0.0034276715487420424","-0.0025627560347888036","-0.25818638977706226","-0.09283861770133062","0.6192903810130385"
"0.0031458542531503063","-0.005644250278821776","-0.007157421164671642","0.005998413323432784","-0.002486581152708528","-0.003314437524813269","-0.25917769202082513","-0.08842055154523974","0.6200159934962297"
"0.002324734564906534","-0.004835937471599853","-0.007772415213623371","0.007768392803842584","-0.002268051727588463","-0.004326050301089002","-0.25908175954562235","-0.0845153071895617","0.6179280065548021"
"0.002893502531644376","-0.001716448785950799","-0.007368053375940521","0.005132000018812373","-0.004594650098172461","-0.006379406546278581","-0.25604389783086556","-0.0829343035744642","0.6189349789804551"
"0.0028927212569647793","-0.0017148687506280398","-0.007953142851687408","-0.003918481142750059","-0.004212326957137584","-0.005613596788892705","-0.25812243479359365","-0.08119850812560155","0.6205935217991777"
"0.002906784201197317","-0.004460138544044723","-0.00736285258060055","-0.010495478597638391","-0.0032535425403035804","-0.006248647990188786","-0.2591137370373565","-0.08348611873758117","0.6181057075710938"
"0.002677870720078922","-0.005148618145998458","-0.006686749186404146","-0.010432861399038987","-0.005727728888125306","-0.00869773988749136","-0.25904978205388823","-0.08701206401968205","0.6173652866698783"
"0.0032638267297676344","-0.005707451691732133","-0.006665946005044259","-0.011140435743212244","-0.006602260000306511","-0.007184285287898565","-0.2503838817938975","-0.09566977215706574","0.6137816495079956"
"0.00303491324864924","-0.006581460704479295","-0.006574932086594742","-0.008727064547193573","-0.004859233586777912","-0.006911090730246788","-0.250863544169912","-0.09550316415278418","0.6132041212050475"
"0.0028020933941329293","-0.006584787094632472","-0.005997643803857814","-0.006621039434300308","-0.006025467995146628","-0.003616897779142254","-0.24744195255434379","-0.10003821039698761","0.6110124753374498"
"0.002800530844773763","-0.0063960144534396975","-0.0065827332796047","-0.004114055526375528","-0.006321884184724922","-0.0038740899115173298","-0.24616285288497228","-0.10207059172581251","0.609724142969335"
"0.002859907720422219","-0.006459215866350054","-0.0059950434061878275","-0.0009646191608208702","-0.006619375244725677","-0.003368211440382722","-0.24277323876113854","-0.10439837731754799","0.6079027075523449"
"0.002684902192195198","-0.006336971028220811","-0.005513969837240385","0.0010822848803947926","-0.006040433498720874","-0.004123208748257314","-0.2500960843682892","-0.10189334916806614","0.6043338788084863"
"0.0027966244713758474","-0.005399760602563294","-0.005998944002692807","0.0013922921944606722","-0.004876514195877456","-0.0021978719052813383","-0.24603494291803502","-0.10183426831548403","0.601579513055965"
"0.0029130343986339957","-0.005460467222858767","-0.006385103056685753","0.0005828605405657181","-0.005311340622932477","0.0004676131482403998","-0.24069470179841007","-0.10234236364769025","0.6030159296043229"
"0.0028583451710630526","-0.006085828571655975","-0.005801313779773857","0.0009538674422671829","-0.005675639013806108","0.0004614140105205969","-0.24155809407523568","-0.10176337129238548","0.6033713316369063"
"0.0035021155070410408","-0.006580629106941001","-0.006169270050076899","0.0035447583963151624","-0.003136629711276046","0.0018898106739579587","-0.24149413909176703","-0.10120801127811356","0.6045115798247781"
"0.0019840988046075036","-0.005968573318756498","-0.004464709377400969","0.0052249865587324865","-0.0009486896251893425","0.0005213870638098523","-0.24510759565774115","-0.09952538859657481","0.6032972895467847"
"0.002795061922016667","-0.005150281341075046","-0.0060002442015278","0.004711421168219713","-0.002553223118901026","0.0007578192931232629","-0.24421222588918107","-0.0993883210185843","0.6035046073991251"
"0.003029444325892144","-0.005335727592114644","-0.0061861726349318105","0.004187419577940372","-0.002843934227006266","0.0025342326648304866","-0.24677042522792372","-0.09603607344307487","0.605518552250431"
"0.0026809958187972685","-0.005463793613011943","-0.005417755123450897","0.004280823565851149","-0.0034244469374746633","0.0022728597186443805","-0.2451395731494753","-0.09469730132356406","0.6049854492015561"
"0.0030880399268610166","-0.005212651156447107","-0.005599782960349928","0.005113580126224381","-0.0034281676427831776","0.0025280335271106835","-0.2518868239054086","-0.09398242300732043","0.6069253519627404"
"0.0026755268960401727","-0.004712861035932318","-0.006394204448530704","0.00510564861440179","-0.0016790227360805772","0.0038229324805820588","-0.24932862456666635","-0.09209419895879592","0.6126562097381482"
"0.002791936823298335","-0.004588703523465001","-0.006097759114152282","0.0022480605753191847","-0.002547931449128917","0.0012681669100558692","-0.2528781261491718","-0.09015280214294748","0.6125821676480266"
"0.00309038375089978","-0.005959425745835264","-0.006183572237261824","0.0028200686845247344","-0.001678030547998307","-0.000252784321198084","-0.2520786888558145","-0.09071525185952926","0.6114567278781791"
"0.003030225600571741","-0.005708283289270428","-0.006771262110678696","0.0029138379394273405","-0.0028426113095632384","-0.000520788903084444","-0.25124727407072306","-0.09100474803718163","0.6111013258455957"
"0.0027958431966962505","-0.005336559189652938","-0.006291488740566249","0.0031425994383104945","-0.002841619121480968","-0.0002644617666702708","-0.2537734959177316","-0.09042221083072195","0.6117973214927381"
"0.003024756677814645","-0.004833442678984971","-0.007357651785260578","0.003295698488886036","-0.003280579665545449","-0.0020496692639800054","-0.25348569849212294","-0.08819131783722114","0.6163435058262011"
"0.0028575638963834692","-0.006208073409785218","-0.006873977818643152","0.001224843369206101","-0.002475667083803553","-0.003825794303700262","-0.25537237050444583","-0.08607858654888458","0.6151588323842563"
"0.003035694523328823","-0.006830939965967544","-0.006573631887759749","0.0014683199097601145","-0.0016769556775758474","-0.005090274232546557","-0.2602009717563221","-0.0847161820883409","0.6148626640237702"
"0.0031435104291115566","-0.0049598455048056826","-0.00676866171300871","0.0010704919746585715","-0.0033494540549230557","-0.0023055639024137276","-0.2549886406036341","-0.084322703610144","0.6157363606872043"
"0.0027903742739391548","-0.00433797686566931","-0.0065866338761096785","0.0013245090769768181","-0.004293190285842624","0.0004840480714975515","-0.2515990264798003","-0.08343767243846385","0.6152328744743778"
"0.0026731830720014235","-0.004214484631232627","-0.006297989734741214","0.0014112338970369916","-0.0038557180239015493","0.0012533178127270392","-0.26026492673979074","-0.08367517746584396","0.6146701545894541"
"0.002852094973626374","-0.005085416733088101","-0.006777763104853664","0.0015226925105439296","-0.003275536042793908","-0.0007784135334399715","-0.256427627731677","-0.08426480437461352","0.6140037757783602"
"0.0029028778277993875","-0.004841758654367911","-0.006577532484264728","0.000305518531769194","-0.004446152615192651","-1.332460602151378e-05","-0.2538694283929343","-0.08373307670137445","0.614951514531916"
"0.002902096553119804","-0.004716187426085494","-0.006773862508348685","-0.0008942269933953745","-0.005972468615085349","-0.0010494456011894912","-0.25821836726879677","-0.08369880980687683","0.614477645155138"
"0.0029075654758769","-0.005715767667115074","-0.005991142809682849","-0.001918487819485115","-0.004587291369895621","-0.00027267922829884663","-0.2526223062152973","-0.0848886981778807","0.6138408831800929"
"0.0029060029265177336","-0.0054654568080885315","-0.006577532484264728","0.000222081114635489","-0.004155358824747223","-0.0010296948600822123","-0.2552444605375086","-0.08632081804447125","0.6126414013201238"
"0.002552085496665749","-0.004656312403328314","-0.00659053447261466","-0.000708671361545809","-0.003860265552611955","-0.0007687544118765578","-0.25211066634754864","-0.08666585022355083","0.6138556915981171"
"0.003021631579096299","-0.005215977546600285","-0.006378602062510785","-0.0004346689366745866","-0.003863076752178388","-0.00013485653852834625","-0.25476479816149405","-0.0854688721502371","0.6137964579260199"
"0.0027880304499004055","-0.005154439328766517","-0.006386403255520746","7.967916882067923e-05","-0.004590929392863947","-0.0007792785294008743","-0.2538374509012002","-0.08637280919474352","0.6141962852126762"
"0.0030802271800651716","-0.005215145949061991","-0.0063760016648408","-6.632326591359629e-05","-0.005465212458024585","-2.7164541395957334e-05","-0.25473282066975994","-0.08664103626546633","0.6134262474754122"
"0.003021631579096299","-0.005215977546600285","-0.006378602062510785","-0.00011599957680245636","-0.00480962418266439","0.0004896705452434191","-0.25482875314496267","-0.08908698356236605","0.6111457510996685"
"0.0027888117245799884","-0.0052176407416768735","-0.006191373430271782","3.730819776841623e-05","-0.0044454084741309486","-0.0012864544944768369","-0.25124727407072306","-0.0907554268392851","0.6119898309270542"
"0.002786467900541239","-0.0048434218494445","-0.006191373430271782","-0.000343456550714789","-0.005390384940153355","-0.00027902253201213327","-0.25521248304577443","-0.09012089848255314","0.6111457510996685"
"0.0028435009521509316","-0.004468703998689152","-0.006190073231436789","0.0005737288657699717","-0.003572448326413338","0.0012710502299255449","-0.2531019685913115","-0.08938711429348323","0.6109976669194254"
"0.0029028778277993875","-0.004656312403328314","-0.005993743207352835","0.00029017731811234015","-0.003862994069838199","0.0019029297793649834","-0.25348569849212294","-0.0911595398709468","0.6109976669194254"
"0.002902096553119804","-0.004593194150171789","-0.006188773032601796","-0.0008102155852745082","-0.004006944024107602","0.0002473275101971732","-0.25588401037219416","-0.0906242673465528","0.608287726420977"
"0.002844282226830515","-0.00465548080579002","-0.006190073231436789","1.0017535378842978e-05","-0.004808301265221362","0.0020185509061389807","-0.25492468562016546","-0.09008308673690057","0.6098278018955051"
