"AccX","AccY","AccZ","GyroX","GyroY","GyroZ","MagX","MagY","MagZ"
"0.0028270941838796446","-0.004463963892720876","-0.005953437043468048","0.0007771825802191998","-0.004104922597231809","0.0005430119628324204","-0.2567793801407539","-0.09217336730125594","0.608050791732588"
"0.0027122468059806626","-0.004776062448842672","-0.005957337639973027","0.00046712308515448747","-0.004905039603242731","-0.0013759815764302686","-0.2602329492480566","-0.09362557465772442","0.6075917307738343"
"0.0028270941838796446","-0.004525335791046984","-0.006343496693965973","0.00028746390617303267","-0.003231549037813252","-0.0018639834643728876","-0.25431711327721435","-0.09448579187132009","0.6056370195946256"
"0.0028270941838796446","-0.004586624529619264","-0.006733556344463898","0.0009642514610349174","-0.004687833095565693","0.0004077842609446281","-0.25361360845906017","-0.09253376050200687","0.6046892808410699"
"0.0027114655313010792","-0.0046509901790832316","-0.006152367465221991","0.0011167243396244645","-0.002941168659068769","-0.0010973087110261084","-0.2599771293141821","-0.0926932788039786","0.6060812721353548"
"0.002768498582910786","-0.004400845639564347","-0.0063460970916359586","0.00010399551427678084","-0.0029398457416257417","-0.002114399795054226","-0.25431711327721435","-0.09346487473870106","0.6061997394795493"
"0.0028255316345204783","-0.004213819353201992","-0.006245981781341491","-7.295025276536654e-05","-0.0038134673480648665","-0.003396467975105544","-0.25476479816149405","-0.09316592562463555","0.606184931061525"
"0.002945847935176556","-0.0048999704820485036","-0.005948236248128076","-0.00012716631055268324","-0.005269337994116362","-0.002525993706450438","-0.25562819043831964","-0.093451876951133","0.6059776132091848"
"0.0027106842566214963","-0.0046504912205602555","-0.006347397290470951","0.0004773505609257234","-0.004905535697283866","-0.002647958136937722","-0.2531659235747801","-0.0919547681467021","0.6050742997097018"
"0.002596618153402097","-0.004964003492497155","-0.0059599380376430125","-0.0002740036412682841","-0.005994710164596245","-0.00164441865629708","-0.2566194926820825","-0.09281380374324612","0.6046300471689726"
"0.0028270941838796446","-0.004463714413459388","-0.00605095195609253","-9.590989225181436e-05","-0.003957996078715594","-0.00047321412523479434","-0.25687531261595703","-0.09244159437197877","0.6070882445610079"
"0.0028278754585592415","-0.004649992262037279","-0.006343496693965973","-0.0006931736048924568","-0.0029381920948219576","-0.0009705868027538596","-0.2568433351242225","-0.09376382385276659","0.6067180341104002"
"0.0028278754585592415","-0.004588204564942023","-0.0061484668687170115","-0.000917238813880655","-0.0036657966884869487","-0.0021240589166176393","-0.25693926759942526","-0.09373546504352716","0.6057702953568445"
"0.002828656733238825","-0.004775230851304379","-0.006245981781341491","0.00011490134303284362","-0.004396295164058562","-0.0036598592452004226","-0.2562677402730052","-0.09382054147124541","0.6035046073991251"
"0.0027114655313010792","-0.004775230851304379","-0.006249882377846469","0.0013166297461530598","-0.004689073330668531","-0.0031542691060527815","-0.25441304575241713","-0.0932817240956965","0.6050594912916776"
"0.0028224065358021457","-0.004967329882650331","-0.006339596097460994","0.0007431605689801906","-0.004842118342358747","-0.001360844147114471","-0.25658751519034834","-0.09346605635575271","0.6059035711190632"
"0.0029372539137011277","-0.004654649208251726","-0.0065307253262049765","0.0014956627531485206","-0.003389058895873684","-0.002486924722216332","-0.2564915827151456","-0.09174325869445812","0.6077990486261747"
"0.0028224065358021457","-0.004781052034072439","-0.005949536446963069","0.0014910186442523982","-0.0035336703088646015","-0.0019798929231338524","-0.2584102322192027","-0.09196303946606359","0.6054889354143824"
"0.0027020902351460544","-0.004033196367884502","-0.005954737242303041","0.0015782130933020672","-0.003824050687609084","-0.0014718519620969869","-0.2587300071365454","-0.09111582004003602","0.606999394052862"
"0.0029403790124194603","-0.005277515764434052","-0.006626940039994466","2.2947475515832e-06","-0.0035312725209991143","-0.0012191289755199084","-0.25901780456215373","-0.09291542280968737","0.6077546233721017"
"0.00299819333870875","-0.005153607731228222","-0.006333095103286029","0.0008396954168209376","-0.0035333395795038446","-0.0016000155303040736","-0.25837825472746817","-0.09138641034486213","0.6060516552993063"
"0.0028200627117633825","-0.0045302422165229205","-0.006437111010085476","0.0004836122807856637","-0.0035323473914215743","-0.0036331885364059226","-0.2567793801407539","-0.09164636609622345","0.6045708134968754"
"0.002823969085161312","-0.005278347361972345","-0.006533325723874962","-0.00011693883478144735","-0.0016389218010888136","-0.0034858508910654918","-0.25898582707041923","-0.09088185986381084","0.6041413693741704"
"0.0028216252611225627","-0.004904128469739974","-0.006632140835334437","0.0002551638678955071","-0.0029498503047886353","-0.0038820190411589387","-0.2605207466736649","-0.09021070137847796","0.6067624593644732"
"0.0028224065358021457","-0.005028868100484097","-0.006534625922709955","-0.00035222295851870545","-0.0033850901435446027","-0.003379023889894006","-0.26045679169019625","-0.09169363077828914","0.6067772677824973"
"0.002938816463060294","-0.00490329687220168","-0.0065307253262049765","-0.000648871936883379","-0.005276614040053011","-0.001366322454866855","-0.25908175954562235","-0.0914384014951344","0.6079323243883935"
"0.0027052153338644005","-0.004781052034072439","-0.006245981781341491","-0.00044922743534894777","-0.0028745266928762708","-0.0028629096332220484","-0.2612242514918191","-0.09069634598670298","0.6082729180029526"
"0.0028224065358021457","-0.004904960067278268","-0.006242081184836512","-0.0009227178187581029","-0.004547769211285182","-0.0018661459542751446","-0.26218357624384747","-0.08979122732514491","0.6078730907162962"
"0.0029974120640291666","-0.0050280365029458035","-0.006528124928534991","-0.000651063538834358","-0.002074409686865348","-0.0005646153651035153","-0.2572590425167684","-0.0911878986801862","0.604170986210219"
"0.002941160287099057","-0.005278347361972345","-0.00623688038949654","-0.0008273309528916787","-0.004548761399367453","-0.0021218964267153825","-0.2570352000746284","-0.09287642944698316","0.6060812721353548"
"0.0027653734841924394","-0.005154439328766517","-0.006145866471047026","0.00027431429446715796","-0.0039672565008167845","-0.0005875377580674374","-0.25687531261595703","-0.09132142140702179","0.6036082663252953"
"0.002763810934833273","-0.004904960067278268","-0.00634089629629599","-7.515280228989983e-06","-0.0033842633201427107","-7.08468374215448e-05","-0.2572590425167684","-0.09206111368134992","0.6036082663252953"
"0.002941160287099057","-0.005278347361972345","-0.00623688038949654","0.0002652348006702445","-0.005277854275155849","0.00041355090068397965","-0.25722706502503395","-0.0935381349959029","0.6034157568909793"
"0.0028224065358021457","-0.004781052034072439","-0.005949536446963069","0.0002668524116340624","-0.005422796417507523","3.223184791936293e-05","-0.2588579171034823","-0.09254203182136836","0.6051039165457506"
"0.002705996608543984","-0.0049057916648165625","-0.0061484668687170115","0.0008345294979364866","-0.003968248688899056","-0.0010954345531108192","-0.25722706502503395","-0.0926601935265326","0.6038007757596113"
"0.002705996608543984","-0.004906623262354856","-0.005855922130843569","0.00025485078190251007","-0.004621025764692817","0.00169533074874833","-0.25508457307883686","-0.09222654006857986","0.6038452010136842"
"0.0028224065358021457","-0.004781052034072439","-0.005852021534338587","0.0009070089053152961","-0.0037496365814388014","0.0014519785517476977","-0.25534039301271133","-0.09432863680345163","0.6047929397672399"
"0.00299819333870875","-0.005028868100484097","-0.006138065278037065","0.0006378593133355274","-0.0033865784256680086","0.00043762662159577197","-0.2561718077978028","-0.09375437091635345","0.6055333606684554"
"0.0027645922095128565","-0.0049057916648165625","-0.005950836645798065","0.0005473774613593894","-0.0045497535874497235","-8.468677279598836e-05","-0.2557561004052569","-0.09258338841817586","0.6009871763349925"
"0.002763810934833273","-0.004781052034072439","-0.005950836645798065","0.0008088042655118985","-0.004258381020622971","0.002081839777278363","-0.2603608592149935","-0.09377327678917972","0.6018312561623782"
"0.00276302966015369","-0.00465548080579002","-0.006244681582506498","0.00017652710265442307","-0.004257967608922024","-8.050595898495854e-05","-0.25588401037219416","-0.09341406520548046","0.604022902029976"
"0.002703652784505234","-0.004469119797458298","-0.0061484668687170115","-0.0002868923479799947","-0.003456031591426939","-7.012600745412587e-05","-0.25473282066975994","-0.09234352015669244","0.6027197612438366"
"0.0028216252611225627","-0.004594940505002207","-0.0055594767964651445","-2.1812873909187034e-05","-0.004111537184446945","0.001448230235917119","-0.25476479816149405","-0.09335262111879504","0.6017720224902811"
"0.002703652784505234","-0.004407581579624531","-0.005855922130843569","-0.0007451980607287944","-0.003382526990998737","-0.0008321874490094241","-0.2550206180953686","-0.09400369211424998","0.5987214883772732"
"0.0027044340591848176","-0.004533069648153119","-0.005563377392970123","-0.0005630863748021964","-0.004547273117244047","-0.0005921510698589187","-0.25335778852518603","-0.09632911447188218","0.5968556277062103"
"0.0028216252611225627","-0.004780220436534145","-0.006144566272212033","-0.00046117688408166735","-0.004548596034687075","-0.0016111163118023252","-0.25537237050444583","-0.09563786849667139","0.5989139978115893"
"0.0028224065358021457","-0.004657975598404902","-0.005364446971216183","0.0007374206591085787","-0.0048416222483176116","-0.0008503523641883812","-0.25700322258289393","-0.09478474098538558","0.6003948396140202"
"0.002703652784505234","-0.004283091428141896","-0.005758407218219087","-0.00019406235105637917","-0.004475091434258872","-0.0003361122654317129","-0.25444502324415125","-0.09449642642478485","0.6002615638518014"
"0.0028192814370837996","-0.004033695326407477","-0.00556077699530014","-0.00038467953979272963","-0.0039655201716728115","0.000307012231499461","-0.25342174350865426","-0.09718696845137455","0.6008539005727737"
"0.002703652784505234","-0.004221802689569616","-0.005368347567721162","-0.000866101435024476","-0.004545454105759884","0.002462005502095109","-0.25553225796311724","-0.09778014021129904","0.6011944941873328"
"0.002818500162404216","-0.004032946888623012","-0.00585332173317358","-0.000587663625252462","-0.00469229794193591","0.0024605638421602715","-0.25198275638061174","-0.0976761579107545","0.5970925623945993"
"0.002700527685786888","-0.003660557510974887","-0.005369647766556155","-0.00114657430375097","-0.003816857324012624","0.0027272709301052775","-0.25534039301271133","-0.09856946040179614","0.5977737496237175"
"0.0025872428572470724","-0.004346958119082887","-0.005372248164226141","-0.0009544960470473001","-0.0025797641501017605","0.0022310515805340826","-0.25259032872356285","-0.09980188698665914","0.5989732314836865"
"0.0025880241319266553","-0.0045335686066760965","-0.0055672779894751015","0.0001750138536882708","-0.004693538177038748","-8.497510478295593e-05","-0.25338976601692015","-0.10099532020881793","0.5991509324999782"
"0.0027052153338644005","-0.0045335686066760965","-0.005368347567721162","0.0005588051001037806","-0.003821983629104354","-0.0016007363602714927","-0.25783463736798534","-0.10152704788205702","0.5977293243696445"
"0.0027645922095128565","-0.004782715229149027","-0.005365747170051176","0.0008333815159621642","-0.003968248688899056","-0.0010945695571499166","-0.25569214542178864","-0.10166884192825408","0.5974035391731098"
"0.002585680307887906","-0.003972323428081368","-0.005568578188310098","0.0012130504634698801","-0.0042596212557258085","-0.0023672669476247883","-0.2539973383598716","-0.10196424619116468","0.5968704361242346"
"0.002993505690631237","-0.0039077914591097405","-0.005749305826374134","0.0006571141019048439","-0.0036783644041957077","-0.002360346979937567","-0.254157225818543","-0.10175155512186906","0.5999061618192181"
"0.002701308960466471","-0.003784798183196034","-0.005564677591805116","-0.00021524783658251063","-0.0023653688419911557","-0.0033615798046824678","-0.261192274000085","-0.10007365890853688","0.5993730587703427"
"0.0028200627117633825","-0.004344962284990981","-0.0057545066217141085","0.0011180810455941183","-0.003387239884389522","-0.0018494226990310252","-0.25470084317802577","-0.10201151087323038","0.5987511052133219"
"0.0025270847069190335","-0.004034443764191943","-0.005764908212394052","0.0003749714412156989","-0.0037480656169752067","-0.0018525943508876687","-0.25556423545485135","-0.0986356309566881","0.6000542459994611"
"0.0027020902351460544","-0.004033445847145989","-0.005857222329678562","0.000748796116854137","-0.003167552906506808","-0.002100127361699331","-0.25370954093426296","-0.10103076872036719","0.600483690122166"
"0.0025841177585287397","-0.003785297141719011","-0.005568578188310098","0.00089714669653589","-0.004113769607632053","-0.0035097824459838006","-0.2571950875332998","-0.09953956800119451","0.6007798584826521"
"0.0027020902351460544","-0.003909537813940159","-0.005564677591805116","8.729759465027328e-05","-0.004548513352346886","-0.0008442973924620622","-0.2548607306366972","-0.09859545597693227","0.5985437873609816"
"0.0027020902351460544","-0.004034194284930453","-0.005564677591805116","-0.0002081512207412449","-0.003964941395291487","0.001452122717741181","-0.25540434799618","-0.09987278400975767","0.601579513055965"
"0.0028192814370837996","-0.004220305814000688","-0.005755806820549101","-9.173541234518746e-05","-0.0029478659286240943","-0.0013350384342808732","-0.2552764380292427","-0.10064083509332523","0.5977885580417418"
"0.0025841177585287397","-0.003908955695663352","-0.00595863783880802","0.0001897288953591306","-0.005276448675372633","-0.0021253564105589936","-0.2585381421861396","-0.1009835040383015","0.5998025028930478"
"0.0027020902351460544","-0.003909537813940159","-0.005564677591805116","5.216883486222049e-06","-0.005713342160932385","-0.002384999364823294","-0.25594796535566244","-0.10099532020881793","0.599669227130829"
"0.002818500162404216","-0.003971408670789244","-0.00556077699530014","-0.0007026705466800331","-0.004110793043385242","-0.0005849427701847293","-0.25070365671124023","-0.10074718062797304","0.6005429237942633"
"0.0027020902351460544","-0.004033695326407477","-0.00575970741705408","0.0002757231814356445","-0.0023656168890117233","-0.0008182033476414968","-0.2543490907689485","-0.100522673388161","0.5985585957790058"
"0.002703652784505234","-0.004283091428141896","-0.005758407218219087","-9.121360235685916e-05","-0.0044029924336138875","-0.001607223829978263","-0.2550206180953686","-0.10233054747717382","0.5996988439668778"
"0.002762248385474107","-0.004407332100363043","-0.005854621932008573","0.00017730981763691562","-0.004549009446388021","-0.000337409759373067","-0.25690729010769114","-0.10036906317144748","0.5988843809755408"
"0.002705996608543984","-0.004657975598404902","-0.005368347567721162","0.0013321275028064122","-0.0042596212557258085","0.00030182225573404466","-0.25326185604998325","-0.10118437893708072","0.600676199556482"
"0.002700527685786888","-0.0037219294093009956","-0.00575970741705408","8.651487966778072e-05","-0.003383932590781954","-0.0005751394826278319","-0.2572590425167684","-0.10274411344524867","0.5988843809755408"
"0.0027020902351460544","-0.003909537813940159","-0.005564677591805116","4.79943549555935e-06","-0.0033842633201427107","-0.0019749912793554036","-0.25809045730185953","-0.10172792278083621","0.5996248018767562"
"0.002701308960466471","-0.003908955695663352","-0.00575970741705408","0.0006591491608593245","-0.0036769588044124907","-0.0026146557924429667","-0.25562819043831964","-0.100522673388161","0.5985437873609816"
"0.0028192814370837996","-0.004033695326407477","-0.00556077699530014","-0.00022208354742961223","-0.0035301976505766547","-0.002613502464495097","-0.25847418720267096","-0.10012092359060257","0.6007502416466036"
"0.0027028715098256512","-0.004220804772523662","-0.00575970741705408","0.0006574271878978409","-0.003895322864852178","-0.0023639511297746615","-0.25693926759942526","-0.09904565207360802","0.5990768904098567"
"0.002703652784505234","-0.004283091428141896","-0.005758407218219087","0.0005713285398236613","-0.0033859169669464943","-0.003121255093544995","-0.2540932708350743","-0.10090079084468653","0.6012389194414057"
"0.0023528604533715955","-0.004159848672966701","-0.005771409206569016","-0.00010076272514326818","-0.0038184282884762186","-0.0003274623058226857","-0.25607587532260007","-0.10051085721764455","0.5985289789429572"
"0.002818500162404216","-0.004032697409361525","-0.005950836645798065","0.0006896228641777008","-0.004040926465925365","-0.0005843661062107943","-0.2536455859507943","-0.10090079084468653","0.6012389194414057"
"0.0028192814370837996","-0.004157935998628625","-0.005755806820549101","0.0005740419517629686","-0.0025132048662494517","-0.003364751456539111","-0.25585203288046005","-0.10045177636506245","0.6011944941873328"
"0.0025848990332083227","-0.004033113208130671","-0.006153667664056984","0.0009482840753920695","-0.003531933979720628","-0.0038854790250025494","-0.2563636727482083","-0.10085352616262085","0.6000394375814367"
"0.002818500162404216","-0.004032198450838548","-0.006145866471047026","-9.820585620045918e-05","-0.002656493361797341","-0.00044048844471397474","-0.25812243479359365","-0.10156249639360627","0.5992397830081241"
"0.0027020902351460544","-0.004033196367884502","-0.005954737242303041","-0.0003780525529409594","-0.0046932074476779915","-0.0005924394018458863","-0.2530060361161087","-0.09951711727721332","0.5993434419342942"
"0.0028145937890062867","-0.004661301988558078","-0.0059456358504580906","0.00010086465434681067","-0.0036853097207716007","-0.002602401682996845","-0.25521248304577443","-0.09866989785118573","0.6003800311959959"
"0.002754435638678248","-0.004287083096325707","-0.006143266073377038","0.000750048460826125","-0.003540698307780684","-0.0025992300311402016","-0.25556423545485135","-0.09898657122102589","0.6011352605152357"
"0.0026958400377093752","-0.004225960677261087","-0.005755806820549101","0.00019176395431361122","-0.002665753783898532","-0.00233382043713655","-0.25482875314496267","-0.09879751249276311","0.5996248018767562"
"0.002753654363998665","-0.003976315096265179","-0.0057545066217141085","9.241133253589122e-05","-0.002811026655610962","-0.0015714706635942838","-0.25722706502503395","-0.09797274379071673","0.6022458918670589"
"0.0026974025870685554","-0.004474857820472528","-0.005949536446963069","-0.000138385225301743","-0.004557277680406941","-0.0018489902010505738","-0.2551165505705713","-0.09913781820363611","0.60115006893326"
"0.0028145937890062867","-0.0045370613163369326","-0.005848120937833609","0.0005668931549228702","-0.003249573787974498","-0.002850943855762894","-0.25697124509115976","-0.09894048815601184","0.5997728860569993"
"0.0028716268406159934","-0.004287083096325707","-0.005944335651623098","0.0008401128648116002","-0.003978005205041381","-0.002350111194400218","-0.2562677402730052","-0.09903383590309159","0.6028382285880312"
"0.0026958400377093752","-0.004286750457310391","-0.00634089629629599","0.0006515307350297303","-0.004413410408477727","-0.0019738379514075335","-0.2529420811326401","-0.09915436084235911","0.6013870036216489"
"0.002813812514326704","-0.004536229718798639","-0.006140665675707051","0.0012224952242586233","-0.0033968310358514697","-0.0036160327831813517","-0.2564596052234111","-0.0980861790276744","0.6009279426628953"
"0.002813812514326704","-0.004536229718798639","-0.006140665675707051","0.0009295510968110814","-0.0039778398403610025","-0.0018422143993568358","-0.25812243479359365","-0.0966386981394125","0.6024087844653262"
"0.0026966213123889725","-0.0042878315341101725","-0.005950836645798065","0.001401580412252917","-0.0041240222178155145","-0.002987613217585524","-0.2541252483268085","-0.09830950465043482","0.6030603548583959"
"0.002578648835771644","-0.003915192677200559","-0.005564677591805116","0.0011177157786022884","-0.005432635615990039","-0.0026204224321823184","-0.25473282066975994","-0.09648745115680227","0.6017127888181837"
"0.002578648835771644","-0.004039932307944682","-0.005564677591805116","-0.00018315652230031638","-0.0038286808986596798","-0.002092774896031658","-0.2563956502399428","-0.09621449761787287","0.6028234201700069"
"0.002813812514326704","-0.004536229718798639","-0.006140665675707051","0.0004621658902653681","-0.00354003684905917","-0.0013281184665936514","-0.25687531261595703","-0.09824333409554283","0.601298153113503"
"0.002813812514326704","-0.004412571164854296","-0.005750606025209127","0.00037622378518768697","-0.002157174709394741","-0.0020738891508852815","-0.2538374509012002","-0.09709598393839809","0.60211261610484"
"0.0026950587630297923","-0.0041623434655815835","-0.006243381383671505","-0.00020011534692098814","-0.0038286808986596798","0.00019614858251042877","-0.2542211808020116","-0.09769270054947748","0.602305125539156"
"0.002813812514326704","-0.004536811837075443","-0.0059456358504580906","0.00017736199863574846","-0.0037574914037567754","-0.0005673545189797074","-0.25697124509115976","-0.09631020859905591","0.6011056436791871"
"0.0026974025870685554","-0.004536728677321615","-0.006144566272212033","0.0013784120487711378","-0.0049236431297853015","-7.257682934335025e-05","-0.25908175954562235","-0.0969033803589804","0.6014314288757219"
"0.0028122499649675375","-0.0042863346585412425","-0.006336995699791008","0.0001751182156859365","-0.003102399222437716","-0.00017709717461909582","-0.25495666311189996","-0.09801882685573078","0.6034305653090035"
"0.0028122499649675375","-0.004162093986320095","-0.006141965874542045","-1.299428510643778e-05","-0.004120797606548136","-6.176437983206622e-05","-0.25847418720267096","-0.09681948554831377","0.6035342242351738"
"0.002928659892225686","-0.0042237153639076925","-0.006235580190661547","-0.000391880517631661","-0.004120301512507","0.0009554708701895349","-0.2574189299754398","-0.0970345398517127","0.6056518280126499"
"0.0028122499649675375","-0.0042865841378027306","-0.006239480787166526","-8.876109541171585e-05","-0.0034663668839505896","-0.002089747410168498","-0.2539973383598716","-0.09762416676048224","0.6049706407835317"
"0.002753654363998665","-0.004224713280953646","-0.006143266073377038","-0.0003305156630042457","-0.004047375688460123","-0.0009517010576074836","-0.2540293158516057","-0.0964378232406333","0.6049706407835317"
"0.0026958400377093752","-0.004163091903366048","-0.005950836645798065","-0.00018769626919877314","-0.004920914612559058","-0.0015979972063953007","-0.2572590425167684","-0.09811571945396547","0.6020533824327429"
"0.002813812514326704","-0.004536229718798639","-0.006140665675707051","8.474072570746433e-05","-0.003830086498442896","-0.0005683636809340937","-0.25888989459521683","-0.09856827878474447","0.602586485481618"
"0.0025208345094823543","-0.004287997853617831","-0.006151067266386998","-9.027434437786808e-05","-0.0038286808986596798","-0.001966629651733344","-0.2571950875332998","-0.09755090650328041","0.6030011211862984"
"0.00281537506368587","-0.004786041619302204","-0.006140665675707051","0.0008466876706645377","-0.004414816008260943","-0.003120534263577576","-0.2545089782276199","-0.0990480153077113","0.6030603548583959"
"0.002813812514326704","-0.004412321685592808","-0.005848120937833609","0.0006509045630437363","-0.004632270562958549","-0.001976721271277209","-0.25537237050444583","-0.09802827979214393","0.6038007757596113"
"0.0026372444367405165","-0.004287249415833367","-0.006244681582506498","0.00043310107391547837","-0.003830996004184977","-0.003620501928979349","-0.258921872086951","-0.09754145356686726","0.6029566959322257"
"0.0026950587630297923","-0.00403893439089873","-0.005755806820549101","0.0005968450482529182","-0.004558352550829401","-0.0010840454396256","-0.25444502324415125","-0.09820434073283864","0.6045856219148997"
"0.0025802113851308103","-0.00441356908190025","-0.005758407218219087","0.0011425017530478857","-0.004267228031023215","0.00044497908726344525","-0.25102343162858337","-0.09864508389310124","0.6038896262677571"
"0.002813812514326704","-0.004473610424165086","-0.006238180588331533","0.0012971140525895788","-0.0035417731782031434","-0.001327830134606684","-0.25370954093426296","-0.09772342259282019","0.6032676727107361"
"0.002813812514326704","-0.004412571164854296","-0.005750606025209127","0.0005397590355297955","-0.00397610351121703","0.00044829490511357227","-0.2528781261491718","-0.09800228421700778","0.6025272518095206"
"0.0026942774883502094","-0.0039754834987268855","-0.006145866471047026","0.00047187155604827563","-0.0047043695636035335","-0.002866657949052627","-0.25809045730185953","-0.09592027497201391","0.603164013784566"
"0.0026966213123889725","-0.004411989046577492","-0.006145866471047026","0.0005484210813360462","-0.003830417227803653","-0.0005677870169601587","-0.2575788174341112","-0.09682421201652035","0.6035638410712223"
"0.0026942774883502094","-0.0039754834987268855","-0.006145866471047026","-0.00011125110590866822","-0.003391870095440117","0.0007109653452410321","-0.2566834476655511","-0.09537909436236172","0.6047188976771184"
"0.0026958400377093752","-0.0042254617187381105","-0.005950836645798065","0.00047035830708212333","-0.0035397061196984127","-0.0024716431269070503","-0.2599131743307138","-0.09427310080202446","0.6029270790961769"
"0.002813812514326704","-0.004412571164854296","-0.005750606025209127","-8.041213559846205e-05","-0.002811605431992287","-0.0030996301945224267","-0.25729102000850257","-0.09634211225945026","0.6022310834490345"
"0.0026950587630297923","-0.0041623434655815835","-0.006243381383671505","-8.750875143972776e-05","-0.003975276687815137","-0.00234982286241325","-0.2536455859507943","-0.09744456096863259","0.6038303925956598"
"0.0028145937890062867","-0.004662133586096374","-0.005848120937833609","-1.5144653632138456e-06","-0.004121293700589271","-0.0014627695045075085","-0.2537734959177316","-0.09697073253092399","0.6028826538421042"
