"AccX","AccY","AccZ","GyroX","GyroY","GyroZ","MagX","MagY","MagZ"
"0.0026911523896318767","-0.0025813933855305545","-0.006604836659799582","-0.0002997288736928723","-0.003316215754166996","-0.002213730164564555","-0.2680354572312211","-0.12369418377086801","0.6035342242351738"
"0.0027497479906007493","-0.0027675049146007884","-0.006896081198838033","-0.00013723724332742065","-0.004043737665491798","0.0007024595516254888","-0.2671081099709272","-0.12370599994138441","0.60393405152183"
"0.002632556788663004","-0.0025808944270075784","-0.006899981795343011","0.00025349407593285635","-0.004044729853574069","-0.0018410610714089655","-0.2672679974295986","-0.12424954378513993","0.6020237655966942"
"0.0028661579178588976","-0.002642016846072199","-0.006989695514957536","-0.0005757663575185754","-0.003607836368014317","-0.002472363956874469","-0.2680674347229556","-0.12396595569274575","0.6027641864979096"
"0.002633338063342587","-0.002830290528741997","-0.006899981795343011","0.0009882025394991893","-0.003973126946970218","-0.0008232491574134294","-0.26646856013624165","-0.12335151482589171","0.6016683635641108"
"0.0027489667159211525","-0.0025803954684846015","-0.006896081198838033","0.0013209085880573524","-0.003610812932261128","-0.0018355827636565816","-0.26522143795860426","-0.12318608843866179","0.6009279426628953"
"0.002633338063342587","-0.002830290528741997","-0.006899981795343011","0.0011299783133280048","-0.004337425337843849","-0.0012091815219695272","-0.26729997492133273","-0.12291431651678401","0.6024087844653262"
"0.002630212964624241","-0.002081769584523424","-0.006998796906802486","0.0013608792331633046","-0.0024454053472943047","-0.0009292111626240128","-0.2623434637025189","-0.12196902287547012","0.6047929397672399"
"0.002808343591569608","-0.002829126292188386","-0.00708851062641701","0.00016948266781199018","-0.003026992928185162","-0.002720185299673099","-0.26758777234694137","-0.12222897862683144","0.6043042619724378"
"0.0027505292652803322","-0.003015903099289254","-0.007284840650500965","0.0010091793010299894","-0.002883042973915759","-0.0032277937627295133","-0.26627669518583574","-0.1222407947973479","0.6043338788084863"
"0.002692714938991043","-0.0029547806802246333","-0.006897381397673026","0.0007323591022217936","-0.004628963269350981","-0.0037576037887824304","-0.26982619676834124","-0.12013751644542443","0.6042450283003405"
"0.0027513105399599156","-0.0030790213524457813","-0.006992295912627521","0.00044661595261318287","-0.0025905128543263567","-0.0024612631753762174","-0.2715849588137266","-0.1214491113727475","0.6034453737270278"
"0.002633338063342587","-0.002830290528741997","-0.006899981795343011","0.001380029659734956","-0.0041932273365538775","-0.003497240004550711","-0.2707855215203696","-0.12053926624298286","0.6030899716944444"
"0.0026356818873813363","-0.003328916412703176","-0.006996196509132501","0.0006153171218397422","-0.0028806451860502722","-0.0003029540869304419","-0.26643658264450715","-0.12087011901744271","0.6031788222025903"
"0.0027497479906007493","-0.002705634057751703","-0.0067010513735890715","0.0013765857138119885","-0.0033201845064960776","-0.0029772332660546914","-0.26611680772716434","-0.11775065000110686","0.6033713316369063"
"0.0027520918146394986","-0.0032040104624513933","-0.00689478100000304","0.0015512876979043241","-0.0032473413647893896","-0.001451668723009257","-0.2681953446898928","-0.11967668579528393","0.6035194158171493"
"0.0026942774883502094","-0.0032047589002358575","-0.0067010513735890715","0.0006494956760752498","-0.0030279851162674323","-0.004756529957631591","-0.2660848302354302","-0.11674627550721084","0.6043190703904621"
"0.002868501741897647","-0.0030787718731842923","-0.006890880403498061","-3.549524317694453e-06","-0.0027362818200799225","-0.004244019850796728","-0.26598889776022744","-0.11720710615735135","0.6048965986934102"
"0.002754435638678248","-0.003578395674191423","-0.006795965888543568","0.0004596612023213919","-0.0021543635098283083","-0.003984088564545459","-0.2704017916195582","-0.11686443721237508","0.6040377104480001"
"0.002753654363998665","-0.003578146194929936","-0.00689478100000304","0.0009327341377398843","-0.0039025989107888273","-0.0054047002643346975","-0.26777963729734694","-0.11674627550721084","0.6046596640050212"
"0.0027567794627170114","-0.004200680112096945","-0.007283540451665972","0.0006032111301105241","-0.003319605730114753","-0.004509573610793864","-0.26630867267757025","-0.11387494607171984","0.6079175159703692"
"0.0031091343432098164","-0.004760262095615084","-0.007270538463316039","0.0025213324662067475","-0.003908303992261882","-0.0065538473983939634","-0.2706256340616982","-0.11400492394740051","0.6078286654622234"
"0.002700527685786888","-0.004513776585264695","-0.00689478100000304","0.0023023288141053345","-0.004051757852490151","-0.008335306579873119","-0.2682592996733611","-0.11086182259003177","0.6069253519627404"
"0.0027466228918824028","-0.002081520105261936","-0.006897381397673026","0.0015552012728167867","-0.004777956846371925","-0.008335739077853573","-0.27347163082604914","-0.11024738172317776","0.606999394052862"
"0.0026341193380221705","-0.0027690017901697175","-0.006509922144845087","-1.9516909960542258e-05","-0.0027342974439153816","-0.0023343971011104848","-0.26742788488827","-0.11085000641951537","0.6063626320778168"
"0.0028724081152955764","-0.003951533489624013","-0.00698709511728755","0.0002502066730063877","-0.0028814720094521643","-0.0009414652720701347","-0.26570110033461847","-0.10793141230195867","0.6077250065360532"
"0.0028747519393343395","-0.0043260018611178735","-0.006888280005828075","0.0008285286830707106","-0.003611391708642453","-0.003750107157121274","-0.27097738647077513","-0.10845132380468134","0.6062885899876953"
"0.0028661579178588976","-0.004080763747074926","-0.007275739258656014","0.000834738221931818","-0.003329362246257079","-0.004875611068249199","-0.2635266308966876","-0.10916029403566677","0.6080952169866609"
"0.002867720467218064","-0.004579056992020788","-0.0074694688850699825","0.00044640722861785155","-0.0027457076068614916","-0.0024534782117280928","-0.26749183987173863","-0.10825044890590213","0.6080211748965394"
"0.0031021028710935543","-0.004703713463011082","-0.007266637866811061","0.000909931041249935","-0.0030388991851724076","-0.0024573706935521553","-0.26870698455764114","-0.1073878684582032","0.6091318062483626"
"0.0027489667159211525","-0.004018560251210524","-0.0073771547677854744","0.0017303728858986175","-0.004420934501434944","-0.0009449252559137456","-0.2691546694419212","-0.10693885397857911","0.6093095072646543"
"0.002923190969468604","-0.003955525157807825","-0.0073719539724455005","0.0024402953750193527","-0.004205547005242069","-0.0027229244535492913","-0.26742788488827","-0.10680887610289842","0.6093391241007029"
"0.002632556788663004","-0.00408167850436705","-0.007283540451665972","0.0009222457569744843","-0.003619246530960427","-0.004242866522848858","-0.26998608422701265","-0.10637167779379074","0.6100499281658697"
"0.0029880367678741413","-0.0052035035835258725","-0.007074208439232086","0.0010166411838630847","-0.0036213962718053463","-0.004247047336659887","-0.2671720649543958","-0.10454017136374506","0.6081988759128311"
"0.0023059839725964974","-0.008822616070182058","-0.007091111024086997","0.005433606192066165","-0.003627597447319536","-0.004767486573136359","-0.2710733189459779","-0.10292135600299503","0.6090725725762652"
"0.003559929833330316","-0.0029537827631786803","-0.00784002555304301","0.01149881241040204","-0.004227705872412776","-0.004499481991249998","-0.26765172733041004","-0.09896057564588977","0.6104645638705504"
"0.003376330283627867","-0.0015174474950370063","-0.008921790983757253","0.0034486931774639113","-0.0023170823553206607","-0.0011657875579309071","-0.2682912771650956","-0.093613758487208","0.6106274564688178"
"0.0028638140938201484","-0.003581888383852259","-0.007277039457491007","0.0002470758130764175","-0.003545163154150901","-0.0010602580507007753","-0.269474444359264","-0.09437826471962063","0.611545578386325"
"0.0029864742185149755","-0.004952361126961036","-0.007465568288565003","-2.306521788117518e-05","-0.0047830831514636555","-0.001970810465544374","-0.2705936565699637","-0.09633738579124368","0.6126710181561724"
"0.002983349119796643","-0.004204671780280757","-0.007369353574775514","-0.0005772796064847278","-0.0049275291997741945","-0.0024788514265812397","-0.27036981412782407","-0.09333844171417532","0.6117232794026166"
"0.0032169502489925363","-0.004452404686938587","-0.0076540971196389996","-0.0025603141051289994","-0.0023050934159932267","-0.0034662443159516965","-0.2710733189459779","-0.09411712735120766","0.6130412286067801"
"0.0028739706646547427","-0.005702462106502369","-0.007078109035737064","-0.0024973316395377663","-0.003032036550936704","-0.005514266419382376","-0.270945408979041","-0.0962097711496663","0.6134262474754122"
"0.0031106968925689823","-0.006326160260222989","-0.00677646290601867","4.9257646501135707e-05","-0.004348256724408635","-0.005023237045576597","-0.26848314211550145","-0.09588600807751631","0.6121379151072973"
"0.002867720467218064","-0.004702881865472787","-0.007859528535567907","0.0016709909092268496","-0.0028946185015422472","-0.0047454291761333395","-0.2685790745907039","-0.09409703986132975","0.6119454056729813"
"0.0027513105399599156","-0.0044553152783226154","-0.007279639855160993","0.0011056097868730704","-0.004348008677388067","-0.003998649329887323","-0.2693145569005926","-0.0942801905043343","0.6132633548771448"
"0.002927878617546103","-0.004828453093755205","-0.007273138860986028","7.054749402493287e-05","-0.0036184197075585347","-0.0019561055342090274","-0.26758777234694137","-0.094879270349517","0.6131152706969016"
"0.0029872554931945584","-0.004954024322037624","-0.007075508638067079","0.0008089086275095642","-0.0034743870709489423","-0.0014457579172764217","-0.26979421927660674","-0.09441016838001497","0.6126858265741967"
"0.0027520918146394986","-0.00482762149621691","-0.007863429132072886","-0.00029304970584226927","-0.0028894095141103276","-0.002710814510096653","-0.2693465343923271","-0.09515576873960131","0.6127006349922209"
"0.002870064291256827","-0.004830116288831794","-0.006981894321947575","0.0007800003541561729","-0.0036200733543623187","-0.0037366997197272817","-0.2740472256772664","-0.09280316918978132","0.6142999441388464"
"0.0028716268406159934","-0.0052035035835258725","-0.007078109035737064","0.0002855853902150506","-0.002600848146850007","-0.005506769787721218","-0.2728320809913636","-0.0930725778775558","0.6131893127870233"
"0.002930222441584866","-0.0054513196499375305","-0.007661898312648957","0.0015586452187397537","-0.0034761234000929156","-0.0022108468446948794","-0.27027388165262095","-0.09307021464345251","0.6126710181561724"
"0.0031036654204527206","-0.005077100757705159","-0.007461667692060025","0.002406847354767505","-0.0033336617279469184","-0.003988557710343457","-0.2737594282516578","-0.09290242502211929","0.6125969760660508"
"0.0031036654204527206","-0.005077100757705159","-0.007461667692060025","0.0007002677879395994","-0.0017294589635959913","-0.004987051381212167","-0.271968688714538","-0.09087595177855262","0.6141518599586033"
"0.003165386120139926","-0.005761505531721253","-0.007750311833428489","0.0007481177638693101","-0.0018027981993438153","-0.004990655531049261","-0.2720326436980066","-0.08983612877310732","0.6141518599586033"
"0.0032802334980389218","-0.005448824857322648","-0.008040256173631946","-0.0009218829227767774","-0.003474056341588186","-0.005264859250655425","-0.27014597168568405","-0.08930203786576497","0.6158992532854718"
"0.002754435638678248","-0.005327411616731701","-0.007764614020613411","-0.0013279032746950756","-0.0029595241385907724","-0.0008053725742214397","-0.27017794917741816","-0.08899954390054453","0.6157067438511558"
"0.0032817960473980876","-0.005823875347093316","-0.00774641123692351","0.00044630286662018586","-0.003257428610292472","-0.0022099818487339765","-0.2753583028383721","-0.0900110080967504","0.6156030849249856"
"0.0028716268406159934","-0.005574396085605067","-0.008248287987230839","-5.167135281512362e-06","-0.0030367494443274885","-0.0037330955698901868","-0.2743670005946092","-0.08990820741325752","0.6169506509651977"
"0.003223200446429215","-0.005575227683143362","-0.007553981809344532","-0.0008592657241773741","-0.003326964458391593","-0.0014469112452242918","-0.27708508739202325","-0.09074006581761374","0.615380958654621"
"0.003106790519171053","-0.005823875347093316","-0.008045456968971918","-0.0016995363483825344","-0.003615691190332291","-0.0006883097875126046","-0.27705310990028875","-0.09205993206429829","0.614803430351673"
"0.0027575607373965944","-0.005951109770452321","-0.007665798909153939","-0.0015941829117390382","-0.0046335107980613865","-0.002481734746450915","-0.2763176275904004","-0.0908475929693132","0.6138705000161414"
"0.0032247629957883814","-0.005948614977837439","-0.007650196523134021","-2.5361181829819955e-05","-0.0031830971864623783","-0.0011918816027514725","-0.27005003921048093","-0.09154356541273055","0.6162842721541039"
"0.003106790519171053","-0.005823875347093316","-0.008045456968971918","-0.00019917608894199715","-0.0036194118956408058","-0.0027235011175232265","-0.27564610026398034","-0.09196422108311524","0.6163583142442254"
"0.0031106968925689823","-0.006697052762302184","-0.008044156770136925","0.0005751377527384582","-0.00522171296616738","-0.000964964329007992","-0.2775007947845688","-0.09264719573896454","0.6146109209173569"
"0.003223200446429215","-0.005575227683143362","-0.0074564668967200525","0.0005760770107174493","-0.003839181555863708","-0.001198369072458243","-0.2730559234335036","-0.09299577276919904","0.6156623185970828"
"0.003220856622390466","-0.005262547008744757","-0.007749011634593496","0.0008008205726904745","-0.0029659733611255294","-0.00016902387898400377","-0.2764455375573373","-0.09037258291455297","0.6129079528445613"
"0.0029888180425537386","-0.005760673934182959","-0.00843941721597482","0.0006152649408409093","-0.00449303350207993","-0.00018963961605218533","-0.2751664378879662","-0.09256093769419464","0.6163731226622496"
"0.003220856622390466","-0.005571901292990185","-0.008821675673462788","0.00113780546315293","-0.004350323782913365","-0.0017140508311497492","-0.27606180765652627","-0.0904990159390787","0.617113543563465"
"0.00310600924449147","-0.005699135716349191","-0.008045456968971918","0.0013113072842721105","-0.004640538796977469","-0.00031809151624623955","-0.27916362435475134","-0.0910484678680924","0.6160917627197878"
"0.003220075347710869","-0.005199345595834402","-0.008042856571301932","0.0007158177255917845","-0.002456650145560036","-0.0010533380830135535","-0.2752303928714348","-0.0919547681467021","0.6159881037936177"
"0.0031638235707807595","-0.005573564488066773","-0.008141671682761406","0.0005235829258916162","-0.0028924687606973276","-0.00016945637696445513","-0.278204299602723","-0.09240141939222293","0.6164915900064442"
"0.003105227969811887","-0.005449656454860944","-0.008045456968971918","0.0013483036124445913","-0.004640125385276523","0.0008275956339694159","-0.27714904237549154","-0.09174325869445812","0.6191867220868684"
"0.0031036654204527206","-0.005324085226578525","-0.008241786993055875","0.000150436603238005","-0.005365993649797541","-0.00032602064588784787","-0.2785880295035344","-0.09109573255015811","0.6176318381943159"
"0.0031044466951323036","-0.005263378606283051","-0.007752912231098474","-0.0004851279625459392","-0.003909461545024531","-0.001961583841961412","-0.27574203273918346","-0.09134150889689971","0.6154105754906696"
"0.0031036654204527206","-0.005262547008744757","-0.00804675716780691","-0.00035827595438331453","-0.0027447154187792214","-0.00016671722308826318","-0.2730559234335036","-0.0912351633622519","0.6164175479163226"
"0.003163042296101176","-0.0055727328905284795","-0.00843421642063485","0.00016541254990302896","-0.004129727299288569","-0.001965764655772441","-0.27551819029704344","-0.09215327981137802","0.6177058802844375"
"0.00310600924449147","-0.005575227683143362","-0.007850427143722957","-0.00030922581548044857","-0.004200586064830717","-0.0006942205932454399","-0.2764775150490718","-0.09211428644867384","0.6165360152605172"
"0.00310600924449147","-0.005512857867771299","-0.007655397318473992","-0.0006906689169484808","-0.0041993458297278794","0.0005781884652424643","-0.27123320640464926","-0.09333135201186547","0.6166544826047117"
"0.0029888180425537386","-0.005512857867771299","-0.007854327740227936","-0.00014297715319903264","-0.004417875254847944","0.001720415631614509","-0.2778205697019116","-0.0953200135097796","0.6146109209173569"
"0.0031036654204527206","-0.005199345595834402","-0.008241786993055875","-0.001471087935492378","-0.0041981882769652305","-0.00043890261878565305","-0.27315185590870633","-0.09428846182369581","0.6141370515405791"
"0.003105227969811887","-0.005574396085605067","-0.008045456968971918","-0.00012774030153984447","-0.00449195863165747","-0.00018891878608476637","-0.2766054250160091","-0.09559060381460571","0.6135002895655338"
"0.003105227969811887","-0.005326580019193407","-0.007460367493225032","-0.0003197141962458486","-0.003836122309276708","0.0005833784410078806","-0.273215810892175","-0.09499152396942302","0.6128042939183912"
"0.003106790519171053","-0.005576059280681655","-0.007265337667976068","0.00025349407593285635","-0.003474056341588186","-0.0014482087391656459","-0.27241637359881765","-0.09468784838715093","0.6124340834677835"
"0.0029888180425537386","-0.0054504880523992385","-0.007854327740227936","0.0005162775860550192","-0.00354623802457336","0.000586550092864524","-0.27577401023091763","-0.09529165470054018","0.613322588549242"
"0.0032239817211087984","-0.005948614977837439","-0.007846526547217975","0.001168487890466638","-0.003621727001166103","0.000329357960489448","-0.26749183987173863","-0.09608570135924385","0.6136927989998499"
"0.002927878617546103","-0.004890822909127267","-0.007466868487399996","0.0012622571453692446","-0.002455657957477766","9.335822915648862e-05","-0.27139309386332106","-0.09694473695578787","0.6132337380410962"
"0.0029888180425537386","-0.0054513196499375305","-0.007561783002354492","0.0013699587269602183","-0.0026025017936537912","-0.0016914167701727945","-0.2730879009252377","-0.09606088740115937","0.6137668410899714"
"0.0028692830165772437","-0.004952361126961036","-0.0076644987103189465","0.0013708979849392094","-0.0028930475370786525","-0.0019475997405934845","-0.2725762610574894","-0.09550198253573253","0.6149218976958672"
"0.002870064291256827","-0.0052010087909109895","-0.008054558360816868","0.0009063827333293022","-0.0024554925927973877","-0.0016891101142770541","-0.2741111806607347","-0.09307139626050415","0.6133522053852906"
"0.0029888180425537386","-0.0054504880523992385","-0.007854327740227936","0.0007089820147446829","-0.0060943423845242345","-0.0007165663222354269","-0.274462933069812","-0.09222299521742493","0.6148626640237702"
"0.002754435638678248","-0.005265041801359641","-0.007667099107988932","0.001868391627811469","-0.004057462933963206","-0.00043616346490946107","-0.27238439610708387","-0.0930808491969173","0.6133818222213393"
"0.0031036654204527206","-0.005076269160166865","-0.00785172734255795","0.00015930737303958715","-0.003765015496713993","-0.001323072656821719","-0.2719047337310693","-0.09310093668679521","0.6139741589423116"
"0.0032169502489925363","-0.0048234635085254406","-0.00892049078492226","0.0004158291633018096","-0.003474221706268564","0.0016065244967623175","-0.2714890263385238","-0.09367992904209999","0.6134114390573878"
"0.0034614892237026214","-0.006757759382597659","-0.008031154781786995","0.0013681323920010692","-0.004060770227570774","-0.0013327317783851326","-0.2753583028383721","-0.09425892139740474","0.613515097983558"
"0.0033419541977261265","-0.005949446575375733","-0.007256236276131117","0.0028583695376680363","-0.0039175644143630735","-0.0023450653846282853","-0.2700820167022154","-0.09328645056390307","0.6149663229499402"
"0.002516928136084425","-0.004331074606101468","-0.007482470873419914","0.0035130845300236314","-0.0031869832564512712","-0.0032202971310683567","-0.27567807775571485","-0.09179879469588532","0.6157955943593016"
"0.00250911538928858","-0.0027726608193382116","-0.007290041445840937","0.0003926607998200303","-0.004635577856566117","-0.0022153159904928768","-0.2714890263385238","-0.09002164265021517","0.6153069165644994"
"0.0032161689743129534","-0.0040797658300289735","-0.007069007643892114","-0.0012510928444131406","-0.00478060268125798","0.0005763143073271751","-0.27331174336737774","-0.09027450869926665","0.6141222431225547"
"0.002870064291256827","-0.005014730942333098","-0.0076644987103189465","-0.0005298992595445125","-0.003762700391188695","-0.00221315350059062","-0.26982619676834124","-0.09190632184758477","0.6134410558934363"
"0.0029349100896623784","-0.006262127249774338","-0.00746426808973001","0.000625231511617981","-0.004201908982273744","-0.0014594536866573814","-0.2749745729375603","-0.0926318347172932","0.613707607417874"
"0.0031021028710935543","-0.004950697931884448","-0.00804675716780691","-0.00010890296096119061","-0.002745955653882059","-0.0024553523696433824","-0.2706895890451668","-0.09219227317408223","0.6132337380410962"
"0.003338047824328197","-0.005509531477618123","-0.008622745251708846","-0.0006638478835484029","-0.004493116184420119","-0.002733592737067091","-0.2707535440286351","-0.09070579892311612","0.6132189296230718"
"0.0032239817211087984","-0.005947783380299145","-0.00804155637246694","0.0007339767131856115","-0.004349993053552608","-0.003495942510609357","-0.2739512932020633","-0.09210010704405414","0.6156327017610342"
"0.002863032819140551","-0.005082090342934925","-0.007855627939062929","0.0022945538452792415","-0.004140889415214112","-0.0019478880725804517","-0.277980457160583","-0.09091376352420516","0.6156771270151071"
"0.002977880197039547","-0.004707871450702551","-0.007853027541392943","0.0009431181565076187","-0.003774523965835751","-0.0011791949953248995","-0.2756141227722459","-0.0889487343673239","0.6142110936307006"
"0.0029817865704374626","-0.005332401201961467","-0.007461667692060025","-0.001800036952134577","-0.002749676359190574","-0.00015157979377246553","-0.2750385279210293","-0.08914015632968997","0.6155586596709126"
"0.0031036654204527206","-0.006578134314326119","-0.007845226348382982","-0.001234447105785466","-0.0042077794284271774","-0.001191593270764505","-0.27241637359881765","-0.090630175431811","0.6152328744743778"
"0.003220075347710869","-0.0064525630860437005","-0.007841325751878002","0.0013623403011306242","-0.0021756128712569337","-0.0007843243391728069","-0.2743350231028747","-0.08968251855639382","0.6136631821638011"
"0.003100540321734374","-0.005954436160605499","-0.007846526547217975","0.0010845808443434378","-0.005376907718702515","-0.0014575795287420923","-0.2742071131359378","-0.09119262514839278","0.6144332199010653"
"0.0029786614717191304","-0.004707871450702551","-0.007656697517308985","0.00016421238692987373","-0.005592873991276715","-0.0027278260973277397","-0.27241637359881765","-0.09004054852304146","0.6154105754906696"
"0.002977098922359964","-0.0044588079879834515","-0.0075604828035194995","-0.0016109851933632116","-0.004642523173142009","-0.0010619880426225806","-0.27206462118974073","-0.09134150889689971","0.6140926262865061"
"0.0029216284201094237","-0.005082090342934925","-0.007657997716143979","-0.0017569876280974872","-0.003768322790321561","9.133990524771562e-05","-0.27011399419394955","-0.09083814003290006","0.6118565551648354"
"0.0029239722441481873","-0.005457972430243885","-0.0072679380656460535","-0.0004080566272698402","-0.004207862110767367","-0.0004237651894698554","-0.27126518389638377","-0.09234115692258917","0.6125969760660508"
"0.0029817865704374626","-0.0054563092351672966","-0.007655397318473992","5.1553610449780534e-05","-0.003990655603090329","0.0002148901616633211","-0.2708174990121037","-0.09177161750369753","0.6133670138033148"
"0.003099759047054791","-0.00558104886591142","-0.0074564668967200525","0.00024133590320480554","-0.004646822654831849","-0.00042953182920920697","-0.2716489137971952","-0.09206347691545319","0.6133522053852906"
"0.0032169502489925363","-0.005766495116951017","-0.007745111038088514","-0.0010488914739359004","-0.004645334372708442","-0.00144835290515913","-0.2690267594749843","-0.09106028403860883","0.6141666683766276"
"0.0028653766431793143","-0.005457140832705591","-0.007659297914978972","0.0005158601380643565","-0.004500474912696958","8.153661769081808e-05","-0.27264021604095806","-0.09172198958752856","0.6119898309270542"
"0.0028645953684997313","-0.005331569604423172","-0.007855627939062929","-3.3449236648909545e-05","-0.005081979811247627","-0.0009429069320049725","-0.26992212924354403","-0.09324509396709557","0.6128191023364155"
"0.0029794427463987134","-0.005080427147858335","-0.008241786993055875","-0.00022959761126154055","-0.003917233685002316","0.0005983717043301945","-0.27216055366494385","-0.09350859456961183","0.6120046393450784"
"0.003334922725609865","-0.005954436160605499","-0.007448665703710092","0.00023977047323982048","-0.004793583808667685","-0.0001783946685604499","-0.2679075472642842","-0.09306312494114266","0.6113382605339845"
"0.0028645953684997313","-0.005207661571217342","-0.007465568288565003","0.0015314067373490131","-0.004793418443987306","0.0005879917527993617","-0.26742788488827","-0.09365984155222205","0.6113530689520089"
"0.0029817865704374626","-0.005332401201961467","-0.007265337667976068","0.0012605351724077612","-0.0052304772942274366","-0.00043544263494204216","-0.2673959073965355","-0.09308793889922715","0.6121082982712487"
"0.0030950713989772783","-0.004583880257742892","-0.007264037469141075","0.0016237149242843002","-0.004066806038404586","0.0005990925342976134","-0.26921862442538946","-0.09246640833006325","0.6114863447142276"
"0.002862251544460968","-0.00470953464577914","-0.007270538463316039","0.0003250342253326747","-0.004063002650755882","0.0005985158703236783","-0.26736392990480135","-0.09383117602471021","0.6121082982712487"
"0.0028638140938201484","-0.005083753538011514","-0.007270538463316039","0.0008027512696472895","-0.004792426255905036","-0.0011924582667254078","-0.26560516785941607","-0.09311511609141492","0.6127154434102453"
