"AccX","AccY","AccZ","GyroX","GyroY","GyroZ","MagX","MagY","MagZ"
"0.0011590727429658019","0.0036175841441756047","0.008451855909070806","0.0007166004405742771","-0.004384967683452641","0.0028051205665865224","-0.09586864173384674","-0.05158127672618536","-0.5509152365219361"
"0.0011590727429658019","0.003616719282735779","0.008840485340850237","0.0007604324795938594","-0.003559053787302687","0.0037273504269023077","-0.09164761282492155","-0.05095265645471162","-0.5506783018335472"
"0.0011012584166765263","0.004239053616493597","0.0084528960681388","-0.0005498324010986558","-0.003958244125736162","0.0019059572652281428","-0.09647621407679782","-0.05205274192979067","-0.5497601799160399"
"0.001275482670223964","0.003493850746452817","0.007969092081637874","-0.0003585890403763116","-0.002771752544021091","0.001917490544706846","-0.0975314713040293","-0.05189440524487059","-0.5509448533579847"
"0.001275482670223964","0.003057503202134488","0.008647145774086765","-0.00020496817981244196","-0.0039933841203165735","-0.0012269139391680329","-0.09324648741163548","-0.051882589074354175","-0.5504857923992311"
"0.001275482670223964","0.003368528997431887","0.008454196266973793","0.0009704088188971921","-0.004502211241840932","-0.0009802459243172734","-0.09564479929170672","-0.05172543400648573","-0.5522776109801725"
"0.0010996958673173461","0.0033702753522623047","0.008060756099504886","-0.0005479538851406739","-0.003886971948493068","0.00164660264295081","-0.09279880252735544","-0.05203501767401604","-0.5502784745468907"
"0.0013926738721617093","0.003244138637653846","0.008262676978579313","-0.0011024813597372235","-0.002949188846067122","-0.00016657305709477936","-0.09554886681650396","-0.05111571960783827","-0.5515075732429084"
"0.001276263944903547","0.00386677234652545","0.007873527467265882","0.00013227761564417803","-0.003710031740488173","-0.0025304628522484353","-0.09407790219672693","-0.05111808284194155","-0.5503228998009637"
"0.001159854017645385","0.00399116270630349","0.008065046755660363","0.0004022099226064393","-0.0035294535095149516","7.865329782114236e-05","-0.09270287005215266","-0.05065843380885267","-0.5493455442113593"
"0.0015098650740994406","0.003368653737062631","0.007877948143304858","0.0005352192886313386","-0.004104178456170106","0.001633195205556818","-0.09407790219672693","-0.05019760315871214","-0.5499526893503559"
"0.0011590727429658019","0.00355633698548024","0.008063096457407874","0.0004945181095417265","-0.003896315052934448","0.0003348362682418319","-0.0934703298537755","-0.05020351124397035","-0.5487828243264355"
"0.0011590727429658019","0.003866922034082343","0.008064526676126366","-0.0006339481712171877","-0.003907477168859991","-4.907777240549296e-05","-0.09228716265960712","-0.05080849917441125","-0.549523245227651"
"0.0013934551468412924","0.003866181912273261","0.007876777964353366","0.000773947358291564","-0.004705940528067129","0.0007124070051758701","-0.09375812727938379","-0.05172661562353737","-0.5510781291202034"
"0.001276263944903547","0.0036799789074738157","0.008066997053912854","0.0008707952921253078","-0.004860969915921885","5.919088870083108e-05","-0.09497327196528665","-0.05296022382545202","-0.5510781291202034"
"0.001275482670223964","0.0033698262895916257","0.007871447149129894","0.00030489235978319994","-0.00367084031123849","0.0007289860944265055","-0.09468547453967836","-0.05327926042939545","-0.5491234179409947"
"0.001275482670223964","0.0033072735227611385","0.008065436815310863","0.0004900827246409353","-0.004258132973602402","0.0011121793051064113","-0.09289473500255856","-0.05220162567829761","-0.5483385717857063"
"0.0011590727429658019","0.003742257247116665","0.008258256302540335","0.0007850619110429581","-0.004286658380967677","-0.0014973693429436172","-0.0922232076761385","-0.052039744142222594","-0.5493011189572864"
"0.0012176683439346745","0.004053848528740104","0.0076783676221334205","-0.000259079875602093","-0.0047930877146265495","6.784084830985833e-05","-0.09308659995296409","-0.05204092575927424","-0.5495084368096267"
"0.001276263944903547","0.003990572272051301","0.008068297252747847","-0.0003572845154054906","-0.004710736103798102","0.0008513830228942407","-0.09270287005215266","-0.05296022382545202","-0.5498786472602344"
"0.0011590727429658019","0.00386648960336243","0.008258776382074333","-6.507092194160823e-05","-0.004881392453948619","-0.0012378705546728006","-0.08889754853577303","-0.053423417709695824","-0.5472871741059804"
"0.0011590727429658019","0.0038673627807776388","0.0078702769701784","0.0011672355464946499","-0.0042964975794501925","-0.002543437791661976","-0.09350230734550963","-0.05158363996028864","-0.5493307357933349"
"0.001276263944903547","0.0041152370590169796","0.007874567626333878","0.00017329188072678724","-0.0035463207069135493","-0.0012250397812527435","-0.09845881856432352","-0.0522181683170206","-0.5490049505968002"
"0.0011004771419969293","0.0038676538399160416","0.007868586711692908","-0.0009158821079110014","-0.005324487115022561","-0.0007151246623005891","-0.10098504041133166","-0.05253484168686076","-0.5490345674328487"
"0.001275482670223964","0.0034936262151174773","0.008066216934611858","-0.00016337992374267153","-0.004499482724614688","-0.00019021628002612045","-0.09337439737857273","-0.053275715578240526","-0.5489012916706301"
"0.001275482670223964","0.0034940669618127728","0.007871967228663892","0.0005894353464186553","-0.003971721347187002","0.00020191522224978023","-0.09593259671731502","-0.051288235697378046","-0.5487976327444598"
"0.001276263944903547","0.003866556131165493","0.007970652320239866","0.0005028148883561474","-0.00428856007479203","-0.0014966485129761984","-0.0968279664858751","-0.052363507214372614","-0.5493603526293835"
"0.0011590727429658019","0.003804810013947152","0.00806413661647587","-0.0004476098243851299","-0.003975938146536651","0.0003400262440072482","-0.09286275751082407","-0.05251002772877626","-0.5481312539333659"
"0.001275482670223964","0.0033702670362869215","0.007677197443181928","0.0005006232864051683","-0.00428227621693765","-0.0009746234505714058","-0.0920633202174671","-0.05281252169399672","-0.5485014643839737"
"0.001275482670223964","0.003493193784397564","0.008260466640559825","0.0011118715067330108","-0.005171276738651966","-0.0012498363321319552","-0.09906639090727495","-0.05282788271566807","-0.5501600072026963"
"0.001276263944903547","0.0039914371334911275","0.007679797840851914","0.0010693439926842492","-0.0036922550373474938","-0.0014936210271130391","-0.0932784649033696","-0.052205170529452546","-0.5479535529170743"
"0.0011590727429658019","0.0038673627807776388","0.0078702769701784","-7.24284427770381e-05","-0.005607095353789258","5.774922876599322e-05","-0.09385405975458691","-0.052507664494672986","-0.5491234179409947"
"0.0011590727429658019","0.003742257247116665","0.008258256302540335","-0.000260384400572914","-0.005163669963354559","6.423669847276364e-05","-0.09465349704794387","-0.052205170529452546","-0.5487532074903869"
"0.001276263944903547","0.003618083102698581","0.00796961216117187","0.000733820170189113","-0.005318533986528938","-0.0009883192199523657","-0.0942058121636642","-0.05281842977925493","-0.5487383990723627"
"0.0013934551468412924","0.0037419412400521135","0.007876257884819368","0.0007785392861888536","-0.005312498175695126","-0.0004681683154628618","-0.09625237163465816","-0.053118560510372094","-0.5510929375382277"
"0.0011582914682862187","0.0033695518624039886","0.008256566044054845","0.000584165065536539","-0.004853197775944101","0.0008447513871939865","-0.09110399546543839","-0.052352872660907844","-0.5477314266467096"
"0.0011582914682862187","0.0032461843675980497","0.007867546552624914","-0.0007735323430950245","-0.005177147184805399","-0.0008448740564359975","-0.09657214655200058","-0.05204919707863574","-0.550337708218988"
"0.001275482670223964","0.0031209291463801833","0.008064526676126366","-0.0006816416041504001","-0.005320683727373857","-0.0004567792019776427","-0.09554886681650396","-0.05113226224656126","-0.5489901421787758"
"0.0013348595458724198","0.0036162702200651","0.008651046370591746","0.000311258441640806","-0.004284012546081623","-0.0009739026206039867","-0.08947314338699032","-0.052959042208400385","-0.5480720202612687"
"0.0011004771419969293","0.003867221409196129","0.008062836417640875","-7.602893169650377e-05","-0.005375502118919299","0.0008433097272591487","-0.09410987968846107","-0.05142412165831693","-0.5505154092352796"
"0.0014504881984509848","0.0031200393370142084","0.00806946743169934","-0.0007327789830065795","-0.004790607244420873","0.0005914517366429727","-0.0976593812709662","-0.049587888760064674","-0.5511817880463736"
"0.0011590727429658019","0.0035559045547603266","0.00825734616335584","0.00021905461670318453","-0.004734548617772593","-0.0014986668368849713","-0.09231914015134125","-0.05034766852427072","-0.5495380536456753"
"0.0012770452195831302","0.00423926151587817","0.007972212558841856","0.0001154753340200048","-0.004116663489538676","0.0007245169486285081","-0.09439767711406971","-0.050663160277059235","-0.549567670481724"
"0.0013356408205520028","0.004363419028345489","0.007877298043887362","-0.0009211002077942851","-0.005759230859737393","0.0001902377767775935","-0.09295868998602683","-0.051893223627818945","-0.5485458896380466"
"0.001275482670223964","0.0032438558944908264","0.008647925893387764","-0.00025782753163010487","-0.005022035114610454","-0.00045620253800370746","-0.09596457420904951","-0.05127051144160341","-0.5515075732429084"
"0.001274701395544381","0.0028094376564613394","0.008451725889187306","0.0018552420161055943","-0.004100540433201781","0.0012355853955285333","-0.08992082827127001","-0.05217563010316148","-0.5508263860137902"
"0.001275482670223964","0.0036808520848890243","0.007678497642016921","0.000604828741074342","-0.00400818425921044","-0.0029282168282702037","-0.09449360958927248","-0.05280897684284179","-0.5504857923992311"
"0.001160635292324982","0.0047365817917042275","0.008068167232864347","-0.0006293040623210654","-0.0051100091245717665","-0.0014980901729110363","-0.08918534596138167","-0.05157182378977223","-0.5486939738182898"
"0.0012770452195831302","0.004487510013009743","0.008070377570883835","0.00021602811877088","-0.004727272571835943","-0.0008481898742861245","-0.09788322371310658","-0.05189913171307716","-0.5505598344893526"
"0.0013340782711928367","0.0034929027252591613","0.008262026879161815","0.0008785180799525677","-0.004731241324165025","-0.0015044334766243228","-0.09148772536625016","-0.052186264656626256","-0.5500711566945504"
"0.0015090837994198576","0.003244413064841483","0.007877428063770862","0.0018206460138794239","-0.004874364455032537","-0.0015138042662007688","-0.09650819156853231","-0.05251239096287955","-0.5499378809323318"
"0.0010418815410280706","0.003619047755843002","0.00806010600008739","0.0005888091744326614","-0.004491297172935956","6.740835032940695e-05","-0.0955808443082381","-0.053126831829733594","-0.549523245227651"
"0.001276263944903547","0.003679546476753903","0.00826124675986082","-6.522746493810676e-05","-0.003987927085864085","-0.0008370890927878728","-0.09228716265960712","-0.0524970299412082","-0.5498786472602344"
"0.0011004771419969293","0.003742980736974981","0.00806231633810688","0.0007852184540394566","-0.0042864103339471105","-0.001496936844963166","-0.0948773394900839","-0.05189086039371566","-0.5501303903666477"
"0.0012770452195831302","0.004239036984542831","0.008069337411815841","0.0009718177058656786","-0.00457918850055708","-0.0012426280324577656","-0.09391801473805518","-0.0515848215773403","-0.5493455442113593"
"0.001276263944903547","0.0038046520104148764","0.007873267427498885","0.00030859721070033134","-0.004722063584404024","-0.00045706753396461023","-0.08883359355230475","-0.05356284852178962","-0.5494195863014809"
"0.0013340782711928367","0.003306550032902823","0.00826124675986082","-0.001098567784824761","-0.004223985167104261","-0.0014849710675040116","-0.09343835236204101","-0.051721889155330804","-0.5516556574231516"
"0.0011590727429658019","0.0033691194316840755","0.008450815750002812","-0.00016985036759794317","-0.00500582937593337","0.0008482113710375974","-0.09510118193222356","-0.051728978857640655","-0.5514927648248842"
"0.0011590727429658019","0.0036184573215908137","0.008063356497174873","0.0007778087522051939","-0.004864194527189265","-0.00020001956758301798","-0.09602852919251814","-0.051728978857640655","-0.5520851015458564"
"0.0013348595458724198","0.004302163553674741","0.0074885385922244295","-0.0003433521887171233","-0.0037006059537066033","-0.001484826901510528","-0.09219123018440435","-0.05326862587593068","-0.5494640115555538"
"0.0013942364215208756","0.004424366811927068","0.008267617734152287","-0.000347631030621416","-0.0035437575543676844","-0.0007011405609326617","-0.09343835236204101","-0.05049418903867438","-0.5513002553905682"
"0.0009254716137699084","0.00399082175131279","0.008738289712419781","0.0003077101337201731","-0.00531721106908591","-0.000721900463994327","-0.08816206622588468","-0.052940136335574095","-0.550382133473061"
"0.0013332969965132535","0.002933412217470233","0.008453936227206794","0.001254064728552489","-0.005321923962476695","-0.0015135159342138016","-0.09503722694875529","-0.05142412165831693","-0.551107745956252"
"0.0012176683439346745","0.0036181579464770277","0.008065046755660363","0.0002223420196296532","-0.003104300916262068","-0.0014802135897190466","-0.09727565137015515","-0.051426484892420216","-0.551922208947589"
"0.0010418815410280706","0.003619047755843002","0.00806010600008739","-0.0013862938123890194","-0.00562660838607391","-0.0009756326125257922","-0.09350230734550963","-0.05125869527108699","-0.5520554847098078"
"0.0014504881984509848","0.002994933803353235","0.008457446764061276","-0.0007277696071186273","-0.00532465247970294","-0.0007187288121376838","-0.09855475103952628","-0.05158363996028864","-0.5521295267999293"
"0.0013926738721617093","0.003244138637653846","0.008262676978579313","0.0002194720646938472","-0.004587043322875055","-0.0014986668368849713","-0.09516513691569255","-0.050959746157021465","-0.5517000826772245"
"0.0010434440903872367","0.004487817704098912","0.008452375988604802","0.0009663387009882307","-0.004492372043358416","-0.00019655958373940709","-0.09535700186609808","-0.051105085054373486","-0.5530624571354609"
"0.0011028209660356924","0.005233378161081158","0.00826293701834631","0.0003585866075821883","-0.004878829301402753","-0.001241186372522928","-0.09865068351472905","-0.051272874675706695","-0.5527218635209017"
"0.0013934551468412924","0.0037402115171724618","0.008653256708611232","0.00021148837187242328","-0.00590896857782004","-0.00047105163533253756","-0.09506920444048977","-0.05065488895769775","-0.5511225543742764"
"0.001391111322802529","0.0022500219924508585","0.008355511175397817","0.002090317415847521","-0.005437927285762148","0.0008265864720150294","-0.09634830410986092","-0.051733705325847236","-0.5515075732429084"
"0.0010395377169893072","0.0020022890857930276","0.008830213770053793","0.0012513513166131818","-0.004496836889728633","-0.0007182963141572325","-0.09209529770920123","-0.051856593499218034","-0.5537732612006276"
"0.0012168870692550913","0.0030582350079681863","0.00845120580965331","-0.0002594973235927557","-0.003975111323134759","0.0003388729160593779","-0.09781926872963759","-0.05142412165831693","-0.5527070551028774"
"0.0013356408205520028","0.003988975604777777","0.008652736629077238","-0.0006517940728180178","-0.006025385312806439","0.002663261228998476","-0.09199936523399847","-0.05170652813365946","-0.5531957328976796"
"0.001160635292324982","0.004362346267521089","0.008746480965080239","0.0011487634729078259","-0.004850138529357099","0.000840426407389473","-0.09353428483724413","-0.051718344304175885","-0.5522479941441238"
"0.001336422095231586","0.004733920679581685","0.008850106812229187","0.0017101266583514768","-0.005136302108751933","0.001483550904320647","-0.0935982398207124","-0.052022019886447966","-0.552825522447072"
"0.0010434440903872367","0.004487817704098912","0.008452375988604802","0.00038838195791573776","-0.005879368300032305","0.001877556564511837","-0.09462151955620939","-0.050484736102261236","-0.5534474760040929"
"0.0012176683439346745","0.0036166444389573323","0.008744920726478245","-0.0007826640178907707","-0.005157964881881505","0.0008499413629594029","-0.09350230734550963","-0.051395762849077514","-0.5545729157739404"
"0.001275482670223964","0.0031187503608298525","0.009035905225749697","-0.001205747556427406","-0.005311919399313802","0.0005901542427016187","-0.09980187321716329","-0.0535675749899962","-0.5550171683146696"
"0.001276263944903547","0.003367007173936808","0.009134070237791675","-0.00024942639081801827","-0.005713507525612763","-0.0025506460913361654","-0.10056933301878612","-0.052345782958597986","-0.5542767474134541"
"0.001276263944903547","0.0038024815408399283","0.008844515957238716","0.0002194720646938472","-0.004216378391806855","-0.0014936210271130391","-0.09586864173384674","-0.05371291388734822","-0.5541730884872841"
"0.0010426628157076535","0.004115553066081531","0.008256436024171346","-7.467222572685009e-05","-0.004858241398695642","0.000719182806869608","-0.09513315942395806","-0.052324513851668426","-0.5545877241919647"
"0.001159854017645385","0.0038651923112026907","0.008841525499918231","0.00034982019977827187","-0.005603457330820932","0.00018533613299914474","-0.09350230734550963","-0.05231624253230692","-0.5549431262245481"
"0.0013926738721617093","0.0032443548530138025","0.008165552125605328","0.0003527423357129107","-0.004864359891869643","6.193004257702306e-05","-0.09855475103952628","-0.05463693842173255","-0.5553577619292288"
"0.001276263944903547","0.003616993709923416","0.008455236426041787","-0.00021180389065954345","-0.003976599605258165","0.00020724936400868038","-0.09529304688262945","-0.053546305883066636","-0.5557279723798365"
"0.001159854017645385","0.0038654085265626475","0.00874440064694425","0.0003451239098833166","-0.004103020903407457","0.0017677020774771912","-0.09404592470499279","-0.053404511836869555","-0.5531809244796554"
"0.0013934551468412924","0.003989333191719243","0.008362922308757278","0.0002977435629431014","-0.004846500506388775","0.0016268519018435312","-0.10095306291959753","-0.05388306674278471","-0.5544396400117215"
"0.0012731388461852146","0.0036116548537275675","0.008377744575476201","0.0008623941513132211","-0.004995742130430287","0.0008434538932526325","-0.09538897935783257","-0.054654662677507175","-0.5538769201267979"
"0.001391111322802529","0.004232242832654968","0.008383595470233669","0.00048262084180783986","-0.004544627282357993","0.001632330209595915","-0.09660412404373508","-0.05606078696896163","-0.5511373627923007"
"0.0011567289189270526","0.00448297780642604","0.007892510370256782","-3.3136150655912485e-05","-0.004849229023615019","0.0011123234710998953","-0.09196738774226433","-0.054798819957807554","-0.5534326675860686"
"0.0012739201208647978","0.0039832708456650785","0.008864929078948107","0.00035002892377360324","-0.004716275820590779","-0.0003235698239986234","-0.09727565137015515","-0.0532887133658086","-0.5521887604720266"
"0.0011567289189270526","0.0039851668880523895","0.008278929464016725","0.0001537761871633065","-0.0041011192095831055","0.001641845165165845","-0.09781926872963759","-0.05497488089850227","-0.553314200241874"
"0.001214543245216342","0.003985308259633899","0.00808623999667075","0.0002952910559979581","-0.004100375068521402","0.0016404035052310073","-0.09100806299023598","-0.054798819957807554","-0.5528403308650962"
"0.0012153245198959252","0.004295028446796177","0.008476039607401675","-0.00016750222265046554","-0.004272850430156081","-0.00018416130829980142","-0.09654016906026645","-0.05389606453035278","-0.5529291813732421"
"0.0012731388461852146","0.0038607765282743485","0.008087410175622244","-0.0009675412967555091","-0.0048733722669502665","-0.0004468317484272614","-0.09097608549850149","-0.05418674232505681","-0.5524553119964642"
"0.0012731388461852146","0.0037356709946133756","0.00847538950798418","0.00038848631991340345","-0.0051406842727819615","0.001366488117611812","-0.0938860372463214","-0.05435335032933838","-0.5521147183819051"
"0.0012739201208647978","0.004045607397135609","0.008768064265741123","0.0008593676533809167","-0.003649921679170621","0.0019020647834040805","-0.09506920444048977","-0.05482127068178876","-0.5517296995132731"
"0.0012739201208647978","0.004233914343706939","0.007894720708276268","0.000302648576833388","-0.0036710883582590577","0.00034060290798118337","-0.09430174463886659","-0.05604306271318697","-0.5524701204144885"
"0.0011567289189270526","0.004358304703484979","0.00808623999667075","0.00010352588528728534","-0.004167843858115793","0.002293042957732111","-0.09807508866351211","-0.05496542796208912","-0.5548838925524509"
"0.0012739201208647978","0.004357281838512877","0.0082837401997062","-0.0001702678155886059","-0.0038191724295379213","0.0006028408501281919","-0.09439767711406971","-0.056193128078745574","-0.5532401581517525"
"0.0011559476442474694","0.0037366938595854776","0.008277759285065231","0.001052906978051906","-0.004552730151696535","0.0005874150888254266","-0.0938860372463214","-0.05680875056265123","-0.552825522447072"
"0.0011575101936066355","0.004605937818438215","0.008475779567634678","0.00209673567870396","-0.0036727420050628417","-0.0007139713343527188","-0.09238309513480988","-0.0574267362806602","-0.5514335311527868"
"0.0011575101936066355","0.004731010088197656","0.008087800235272741","-0.0004027341653888908","-0.003975938146536651","-4.86452744250416e-05","-0.09212727520093572","-0.05757325679506386","-0.552396078324367"
"0.0012739201208647978","0.0044194021746234505","0.008284000239473198","0.0005279139487947415","-0.004837322766627773","0.0018902431719384101","-0.09519711440742668","-0.058056538169185594","-0.5506783018335472"
"0.0012739201208647978","0.004481954941453938","0.008090010573292231","0.0011061837778602317","-0.00471619313825059","-0.0007203146380660054","-0.09992978318410055","-0.057592162667890134","-0.5538769201267979"
"0.001274701395544381","0.005103981584122587","0.007704111559066283","-7.702037067432776e-05","-0.00426152294955016","0.0007269677705177325","-0.09449360958927248","-0.056360917700078776","-0.551107745956252"
"0.0011575101936066355","0.004793379903569718","0.007990935422065758","-0.0006403142530747938","-0.004120880288888325","0.0003424770658964726","-0.09670005651893784","-0.05667050136760908","-0.5519074005295648"
"0.0010403189916688904","0.004544815399373593","0.008277889304948731","-0.0007805245969386244","-0.00472040993760024","-0.0001840171423063176","-0.09801113368004348","-0.05728848708561805","-0.5522924193981967"
"0.0012153245198959252","0.004420341879841723","0.007990935422065758","0.0004968140734903713","-0.004577369489072918","-0.00123556389877706","-0.097243673878421","-0.05851027911701626","-0.5530328402994122"
"0.0013325157218336565","0.004233182537873239","0.008090660672709728","2.4158586062541546e-05","-0.004129809981628759","-0.0007064747026915619","-0.09462151955620939","-0.05789111178195565","-0.5522331857260996"
"0.0012731388461852146","0.003736544172028584","0.008086890096088246","-0.0014339872453222313","-0.004514696275209501","-0.0012217239634026167","-0.09794717869657485","-0.05636918901944027","-0.5517296995132731"
"0.0012739201208647978","0.003984144023080288","0.008476429667052175","0.0005925662063486256","-0.00420968112225153","-0.00149290019714562","-0.09474942952314663","-0.05650389336332752","-0.5528551392831206"
"0.0011575101936066355","0.004607185214745656","0.007893030449790778","0.0011514768848471335","-0.004412996996776781","-0.00019468542582411785","-0.0938860372463214","-0.057269581212791756","-0.552825522447072"
"0.0013325157218336565","0.004481223135620239","0.008285950537725689","0.0004932135845709056","-0.005016412715477588","-0.0007200263060790379","-0.09375812727938379","-0.05880922823108179","-0.552396078324367"
"0.001098914592637763","0.004607102054991826","0.008085589897253253","0.0003506029147607644","-0.005087519528040303","-0.0004573558659515778","-0.09625237163465816","-0.05697772180103611","-0.5517000826772245"
"0.0012739201208647978","0.004357930484592747","0.00799236564078425","0.0003024398528380567","-0.005085204422515006","-0.0001974245797003098","-0.09404592470499279","-0.056512164682689006","-0.5510929375382277"
"0.0011567289189270526","0.004047719654882876","0.008084809777952258","0.0005802514906240762","-0.004848732929573884","0.0008477788730571461","-0.09331044239510411","-0.05679693439213481","-0.5543804063396244"
"0.0012731388461852146","0.003736760387388541","0.007989765243114264","0.0006868572712395605","-0.004431269793958595","-0.0014959276830087795","-0.0940139472132583","-0.05743500760002171","-0.5510781291202034"
"0.0011559476442474694","0.0033635560441528873","0.008470448752411206","0.0020964747737097955","-0.004564967138044536","-0.0009842825721348193","-0.09267089256041854","-0.05881513631633999","-0.5508263860137902"
"0.0013918925974821122","0.005352712407826371","0.007320032823209329","0.0020045840347651714","-0.004568935890373618","-0.0012479621742166659","-0.0927668250356213","-0.05804472199866916","-0.5512262133004465"
"0.0011590727429658019","0.005538075499112139","0.008285430458191691","0.0004930048605755742","-0.005685974306329758","-0.0009880308879653978","-0.09417383467192969","-0.05927242211532559","-0.552396078324367"
"0.001275482670223964","0.005103149986584292","0.008092610970962217","-2.7344059785467675e-05","-0.005385175952721436","-0.0003296247957249425","-0.09833090859738626","-0.05867452388719455","-0.5520702931278321"
"0.0012739201208647978","0.004482171156813894","0.007992885720318248","0.0009693651989205353","-0.004429698829495","-0.0014983785048980037","-0.08931325592831893","-0.058631985673335434","-0.5534919012581658"
"0.001274701395544381","0.004792548306031424","0.008091310772127224","0.0007752518832623849","-0.006055068272934363","-0.0009946625236656522","-0.09072026556462698","-0.05941539777857433","-0.5519518257836377"
"0.0011567289189270526","0.004357872272765066","0.008280489702618717","-0.001010277534799602","-0.005107859383726847","-0.0014917468691977493","-0.09890650344860356","-0.058056538169185594","-0.5528699477011448"
