"AccX","AccY","AccZ","GyroX","GyroY","GyroZ","MagX","MagY","MagZ"
"-9.6312","1.4428","-0.13531","0.29306","0.10844","-1.2958","0.65368","-0.6377","0.043531"
"-9.5037","-0.60656","-1.2557","0.50302","0.15739","-1.1759","0.68085","-0.60738","0.066748"
"-9.5418","1.072","-1.0483","0.568","0.17483","-1.4066","0.71134","-0.57204","0.084114"
"-9.8454","-0.74479","-0.79737","0.69729","0.16959","-1.2834","0.7404","-0.53008","0.10166"
"-9.4416","0.50968","-0.95565","0.29265","-0.11708","-1.3558","0.77043","-0.48486","0.097824"
"-9.932","-1.2929","-0.70099","0.28792","0.045061","-1.4327","0.79752","-0.43985","0.10074"
"-10.217","-0.8544","-0.039552","0.60432","-0.20884","-1.7122","0.82174","-0.39046","0.11766"
"-9.7842","4.2536","-1.8368","0.55357","-0.21041","-1.1722","0.84402","-0.33828","0.11703"
"-10.352","2.8421","-1.9217","0.29309","0.066831","-0.71875","0.85593","-0.30756","0.12094"
"-10.734","1.048","-0.00701","0.82784","0.23893","-0.68954","0.86512","-0.27591","0.12422"
"-11.161","-0.10817","-0.074348","1.2367","-0.013132","-0.65443","0.87323","-0.24374","0.14108"
"-12.183","3.6695","-0.6841","1.1998","-0.14421","-0.026313","0.87679","-0.22788","0.15574"
"-13.063","4.3553","1.2479","0.4365","-0.22673","0.77806","0.87008","-0.24008","0.15775"
"-10.211","3.3813","5.5671","0.58652","-0.74388","0.89967","0.86629","-0.2711","0.1421"
"-10.822","-3.8388","-0.59608","1.1675","-0.20547","1.7965","0.855","-0.30927","0.13072"
"-13.357","-5.6221","0.27762","1.5022","0.25675","2.0712","0.82314","-0.37417","0.15885"
"-11.152","0.64382","-0.58507","1.1157","0.41795","1.6447","0.79328","-0.42151","0.18984"
"-10.535","-1.2325","0.43457","-0.97113","0.40293","1.997","0.75767","-0.4806","0.19676"
"-8.7379","-4.129","-0.95148","-0.95298","0.34045","2.2341","0.70823","-0.55438","0.18448"
"-8.6887","-1.9111","-0.51781","-0.16637","0.44837","1.8065","0.6514","-0.61588","0.19324"
"-7.2276","-1.4549","-0.63899","-0.53088","0.33792","1.5075","0.60609","-0.66166","0.19052"
"-6.533","-1.4078","-0.48256","-0.78361","1.0354","0.63529","0.57269","-0.69283","0.18588"
"-6.8153","0.51838","1.2575","-0.6309","0.73944","0.20135","0.55626","-0.70756","0.18567"
"-9.1428","5.2085","-0.03958","-0.47952","0.61814","0.34444","0.54427","-0.71928","0.18337"
"-9.9282","8.7109","0.83351","-0.5021","0.24636","0.43704","0.52864","-0.72197","0.1875"
"-9.0845","8.0386","-0.77663","-0.86902","0.16084","0.2447","0.517","-0.73722","0.16585"
"-9.2271","0.17989","-2.5863","-0.20856","-0.006491","0.27189","0.50772","-0.75023","0.15361"
"-14.866","9.3801","8.3026","-2.325","-1.1664","-0.55614","0.52219","-0.74795","0.10686"
"-10.234","-2.9572","0.73504","-0.48929","-0.18923","-0.70401","0.53409","-0.74574","0.052724"
"-9.6435","-8.5221","-2.0301","1.2222","0.54721","-1.1554","0.56352","-0.72022","0.083573"
"-8.679","0.20513","-4.5257","0.94212","-0.071937","-1.609","0.60493","-0.68149","0.11354"
"-11.296","3.3358","1.0594","0.10304","0.13321","-1.5078","0.64131","-0.64314","0.1318"
"-9.262","0.68062","-0.41963","0.12654","0.087435","-1.1073","0.6727","-0.60901","0.13762"
"-8.8218","-0.052357","-2.2479","0.35805","-0.013531","-1.14","0.69933","-0.57807","0.14399"
"-9.8789","0.16781","-0.30394","0.39986","0.16821","-1.36","0.73316","-0.53416","0.14747"
"-9.7868","-0.45279","-0.63898","0.68066","-0.020586","-1.3588","0.7615","-0.48994","0.1614"
"-9.1104","-0.09537","-1.1959","0.59335","-0.16792","-1.5239","0.78566","-0.44712","0.17413"
"-10.025","2.1782","-0.65412","0.18512","-0.29279","-1.5614","0.81305","-0.39195","0.17168"
"-10.775","2.97","-0.64006","-0.41953","0.035411","-0.75687","0.83147","-0.35794","0.16518"
"-9.3772","-0.44186","-1.0733","-0.32269","0.040651","-0.82906","0.84412","-0.32816","0.15703"
"-9.7467","-2.3133","-0.3736","0.32987","-0.049932","-1.0718","0.85643","-0.29315","0.15585"
"-10.298","0.18174","-0.44739","0.68852","-0.0228","-1.0763","0.8677","-0.26085","0.16445"
"-11.949","0.76421","0.35897","0.62786","-0.1617","-0.85118","0.87855","-0.22213","0.16816"
"-11.592","0.41191","-1.1338","0.51223","-0.05245","-0.52675","0.88461","-0.19692","0.16813"
"-12.136","0.82303","0.46018","0.67704","-0.038015","-0.1585","0.88871","-0.17026","0.16978"
"-12.021","3.3187","0.87985","0.73211","-0.29465","0.60439","0.88779","-0.17358","0.16898"
"-9.0726","4.0015","1.7635","0.29325","-0.61383","1.0752","0.88386","-0.20705","0.15907"
"-10.013","-2.6986","0.056569","0.9673","-0.4663","1.4719","0.87531","-0.24408","0.14602"
"-12.946","-4.0629","0.78678","0.86474","0.39819","1.979","0.8533","-0.30362","0.1607"
"-11.979","-0.50525","0.86986","0.78634","0.43378","1.6587","0.82475","-0.36632","0.18529"
"-10.323","-2.7125","1.3031","-0.2719","0.25403","1.926","0.79309","-0.42342","0.19429"
"-9.1505","-3.117","0.52443","-0.58552","0.25923","2.1386","0.75736","-0.48314","0.19815"
"-9.0748","-2.1692","-0.13521","-0.53348","0.47383","2.0511","0.70859","-0.54991","0.19838"
"-9.0621","-1.6896","-0.045461","-0.31502","0.30264","1.7932","0.66085","-0.60475","0.19887"
"-6.9415","-1.889","-0.57276","-0.29804","0.41485","1.358","0.61399","-0.65819","0.19151"
"-6.9932","-0.3613","-0.14037","-0.16479","0.83424","0.71888","0.58309","-0.68478","0.20074"
"-7.513","2.0128","0.041645","0.11515","0.69315","0.39195","0.56037","-0.69182","0.22393"
"-8.7064","4.506","-0.20258","0.037791","0.83642","0.33701","0.54444","-0.70025","0.24183"
"-9.5668","7.5334","-0.54572","-0.26175","0.65602","0.49166","0.52424","-0.71037","0.25316"
"-9.3279","7.4899","-0.6759","-0.48074","0.25994","0.26826","0.51271","-0.72043","0.25304"
"-7.9984","2.1805","-2.8639","-0.71574","0.10427","-0.087037","0.51044","-0.72594","0.23779"
"-15.7","4.295","4.2106","-3.0177","-0.51935","-0.74172","0.52001","-0.73263","0.19593"
"-12.877","2.0486","2.5444","-2.0645","-0.41177","-0.3224","0.53092","-0.74487","0.087877"
"-5.5024","-12.9","-3.6975","1.4697","0.66985","-0.96323","0.5523","-0.72836","0.08856"
"-9.7585","-1.7946","-4.3202","1.5651","-0.24915","-1.5938","0.59528","-0.69059","0.1307"
"-11.41","5.1197","1.1152","-0.006703","0.33309","-1.7813","0.64189","-0.6422","0.14674"
"-9.4312","0.48217","0.25983","0.49904","0.034222","-1.1606","0.66948","-0.60638","0.17238"
"-9.1521","1.7828","-2.099","0.4714","-0.16494","-1.2395","0.69892","-0.5681","0.18472"
"-9.1366","0.59472","-1.2797","0.099392","0.22283","-1.2652","0.72761","-0.52776","0.189"
"-9.9082","0.10718","-0.17693","0.36674","-0.028781","-1.1629","0.75923","-0.48574","0.18002"
"-9.6107","-1.4183","-0.90444","0.53151","-0.068871","-1.2747","0.78326","-0.44379","0.18943"
"-9.5916","-0.60996","-0.52236","0.51642","-0.17538","-1.3414","0.80484","-0.40017","0.2051"
"-9.839","-1.6922","-0.16609","0.52409","-0.11009","-1.2714","0.82447","-0.35585","0.20921"
"-9.6487","-1.2166","-0.7629","0.048729","-0.15002","-1.1605","0.84226","-0.31266","0.20711"
"-10.255","0.20003","-1.1967","0.13532","-0.14273","-1.0649","0.8584","-0.2683","0.19424"
"-10.536","1.189","-1.2784","0.34743","-0.084726","-1.0131","0.86897","-0.23179","0.19375"
"-11.033","0.77969","-0.68786","0.66078","-0.077739","-0.87184","0.87856","-0.19744","0.20137"
"-11.228","-0.47441","-0.42035","0.88803","-0.076118","-0.76264","0.88379","-0.16346","0.20369"
"-12.533","-0.46772","0.33358","1.0472","-0.22343","-0.58533","0.8905","-0.13161","0.2024"
"-11.542","2.7692","0.034901","0.61126","-0.26435","-0.032659","0.89445","-0.11144","0.19438"
"-11.036","4.422","-0.24179","0.29308","-0.36927","0.84046","0.8958","-0.124","0.18313"
"-9.6936","2.6803","1.5424","-0.20044","-0.50366","1.2821","0.89203","-0.16081","0.17259"
"-10.791","-5.3472","-0.26375","0.84603","-0.10654","1.7209","0.88205","-0.2088","0.16332"
"-13.238","-2.2887","1.1916","1.0516","0.40333","1.8224","0.86103","-0.27038","0.18544"
"-11.006","-1.3508","-0.42995","0.44147","0.32718","1.6753","0.83395","-0.33517","0.2022"
"-10.105","-2.0113","0.57908","-0.87707","0.43613","2.1383","0.80176","-0.40468","0.21032"
"-9.1866","-2.4819","-0.76724","-1.64","0.56518","2.2625","0.76065","-0.47144","0.20745"
"-10.267","-2.869","-0.66851","-1.669","0.70288","1.9792","0.71156","-0.54935","0.19227"
"-8.5221","-2.494","-0.8289","-1.3366","0.56414","1.7207","0.66263","-0.60923","0.17437"
"-7.2852","-2.0904","-1.1346","-1.0546","0.84282","1.2841","0.61169","-0.67326","0.15168"
"-7.1565","-0.34897","0.34393","-0.90251","0.85831","0.95374","0.57699","-0.70335","0.14519"
"-8.0135","0.86131","0.59545","-0.40562","0.65899","0.63325","0.55369","-0.71784","0.15104"
"-8.5469","3.2629","1.3848","-0.1922","0.7628","0.43512","0.53295","-0.73162","0.16058"
"-8.962","6.9565","-1.8832","-0.037836","0.82602","0.29147","0.51609","-0.73895","0.17257"
"-9.942","6.5412","-0.33464","-0.20216","0.339","0.10278","0.50738","-0.7461","0.18035"
"-12.833","5.5213","-3.0396","-1.5577","0.26368","0.13721","0.50478","-0.75376","0.15922"
"-12.256","8.461","4.6203","-2.6363","-1.6442","-0.078171","0.50749","-0.76109","0.076396"
"-5.8037","-14.773","-2.5613","0.36487","0.3019","-0.66795","0.52015","-0.75296","0.033499"
"-12.658","-3.2697","-2.1639","1.0106","-0.20282","-1.3677","0.55002","-0.7308","0.064121"
"-11.394","0.21992","0.14567","0.82995","0.43392","-1.9095","0.60492","-0.68862","0.076979"
"-9.8722","2.0472","0.35429","0.94571","-0.054328","-1.4944","0.64959","-0.64261","0.10414"
"-9.1253","0.76475","-2.4874","0.67868","0.01607","-1.2534","0.68098","-0.60085","0.1432"
"-8.619","1.2003","-2.1701","0.60553","0.086288","-1.3684","0.71227","-0.56293","0.15805"
"-9.7627","0.50106","-0.9921","0.76014","0.18002","-1.3237","0.74113","-0.5198","0.1743"
"-9.7862","-0.9962","-1.5911","1.0526","-0.1153","-1.3649","0.76562","-0.47693","0.17532"
"-9.6851","-0.098256","-1.0499","0.61042","-0.3411","-1.5904","0.79517","-0.42302","0.17948"
"-10.543","1.5006","-0.46876","0.52122","-0.0515","-1.0868","0.8193","-0.37305","0.20098"
"-9.7297","2.632","-1.2938","-0.013864","-0.14875","-0.77326","0.83482","-0.34261","0.20098"
"-9.7792","-1.9298","-0.65972","-0.03396","-0.007051","-0.812","0.84419","-0.31814","0.19613"
"-8.892","-0.4098","-1.1086","0.36893","-0.020375","-0.91592","0.85449","-0.28618","0.18378"
"-10.878","-0.30021","-0.50352","0.57419","-0.000258","-0.87859","0.8634","-0.25279","0.19074"
"-10.576","-0.49021","0.39542","0.55583","-0.15169","-0.79318","0.87607","-0.21786","0.20525"
"-10.761","-0.072531","-1.049","0.44482","-0.14171","-0.57779","0.88101","-0.19038","0.20159"
"-12.514","-1.276","-0.010237","0.86131","-0.17389","-0.519","0.88655","-0.16665","0.20128"
"-11.414","1.1199","0.09178","0.84979","-0.30543","-0.35799","0.89007","-0.14166","0.19119"
"-10.914","4.1806","0.22601","0.47403","-0.52569","0.26756","0.89243","-0.13488","0.17879"
"-9.8731","5.3366","0.9133","-0.22033","-0.49664","1.0286","0.89433","-0.15521","0.16848"
"-10.661","-3.8451","1.08","0.80074","-0.47814","1.3622","0.88867","-0.19566","0.15251"
"-12.466","-4.5845","0.43692","1.0765","0.21631","1.9264","0.87185","-0.2529","0.16028"
"-12.58","-0.046941","0.07712","1.2047","0.4661","1.6847","0.84526","-0.31754","0.17604"
"-11.463","-1.0676","-0.43944","-0.33401","0.64902","2.0412","0.81636","-0.37684","0.19652"
"-9.8138","-1.5054","-1.7711","-1.271","0.86692","2.2912","0.77635","-0.44191","0.21524"
"-10.709","-2.6379","-0.78266","-1.6066","0.94003","2.3586","0.7229","-0.5283","0.21555"
"-10.091","-1.9933","-0.12582","-1.5558","0.73801","2.1553","0.66408","-0.60344","0.19953"
"-8.1489","-1.7344","0.7906","-1.5309","0.56521","1.7932","0.60089","-0.67847","0.16827"
