"AccX","AccY","AccZ","GyroX","GyroY","GyroZ","MagX","MagY","MagZ"
"0.003583086243786871","0.0062358919263296375","-0.004666906096921941","-0.02196255079318439","-0.007940644686772995","0.27508986764868465","0.7590336382514673","0.49143597108242404","-0.07140119467642926"
"-0.002237156624964362","0.020479096646381204","-0.013747613349177682","-0.03213400031116077","0.04084551913222687","0.27181357478402357","0.8038108056115385","0.44813764575861575","-0.07319080210491065"
"0.001054722674996021","0.007047337965820043","-0.017710832257289935","-0.0323997192006034","-0.006628399911480118","0.27979802183938285","0.8502040748427255","0.39251737166806866","-0.06439149032870627"
"-0.006483189884053359","-0.012682995336172145","-0.026727723217591183","-0.015836575092012247","-0.001421064179066769","0.2401087673885178","0.8895199324314369","0.34646177943607154","-0.058452281748705"
"-0.0017172341850759116","-0.015670346602908457","-0.017933879491305628","-0.013776290949232368","-0.011293414531215434","0.20880924955478858","0.9267181392924791","0.2993375813688433","-0.046650678788829086"
"-0.009853057549996998","-0.003668486306835892","-0.025259328926987838","-0.07183201729405123","-0.009586754401247623","0.1467004443752276","0.945916314968328","0.2674509109521326","-0.03761602137819426"
"-0.02247561900728874","-0.008596681051283188","-0.010318262126186332","-0.1315196042099037","-0.06760434362104939","0.11148636328912925","0.9566438877334974","0.24196268288217604","-0.037692835578320864"
"-0.01551443522878231","-0.04001788265725446","0.014137214881901436","-0.12601267650116496","-0.18411004426167898","-0.007478014821959016","0.9646965332637153","0.231632826474942","-0.04466168130895525"
"0.004373560916283941","-0.04491543523815213","0.007119281493857534","-0.05863464578506684","-0.16359948849976041","-0.28105477891853126","0.9504859823280364","0.26365142353797755","-0.07187025160060657"
"-0.005115986431013355","0.011011291339992194","0.040085249630944245","-0.04989384217184323","-0.1576617185061408","-0.39688993331132766","0.8935880509345924","0.33576252841912807","-0.09235185917478812"
"-0.017045317968453856","0.043476300069726796","0.00990177508568169","-0.0357731937970056","-0.014687588414710523","-0.46571635230524566","0.8255445893955181","0.41964149015245306","-0.09566794453770022"
"-0.018075534654899496","0.02731801206369409","0.024894700368391844","-0.06374203241004218","0.012124997152608731","-0.3992682792427113","0.7509531288958854","0.4967394222646822","-0.09223418635757291"
"-0.008129610943700087","0.024862484110090254","0.025087801445988767","0.0004243619173178783","0.045706305451066624","-0.39778788024460515","0.6679746569616658","0.5657898289510966","-0.07387395818263232"
"0.0012280301549588263","0.020433393080408882","0.0021108384641217227","0.057923522718706356","0.03119813870325445","-0.4394089340438186","0.5676091580002625","0.634233373064417","-0.07743356090339257"
"-0.0036236164646668905","0.00944459387280917","0.00017941463771912845","0.11730302976274125","0.07582116229496641","-0.46792481638438754","0.44043865903861806","0.7099460753902351","-0.0812236062245326"
"-0.0016883496050821248","0.006121113652694602","-0.012570419614094835","0.10585593702552032","0.06449368733333741","-0.40715565095393247","0.3114570114283083","0.7744318201138107","-0.11711871850922374"
"0.0012703942056164076","0.004941234548422775","-0.011853777112211064","0.09877009997371664","0.06958423016946352","-0.36298636937109374","0.20114412681192978","0.8244056337416552","-0.15654891834442197"
"0.010871628595556404","0.006257289504943951","0.006394791033739881","0.09869308000576225","0.0896807455408556","-0.2982128459949417","0.10261764032455548","0.8623081592307781","-0.19024910571911263"
"0.017500639704134124","-0.003594633499094253","0.030954769801468336","0.08618022346197247","0.12003253879320697","-0.23037902239483582","0.021060223483904114","0.8891552317578805","-0.21667645925202964"
"0.01647138583702161","-0.019281967032130344","0.042555291222451413","0.03909984255065391","0.08709598472138395","-0.16157687223695238","-0.03934854990541361","0.9040497501279533","-0.22566045197747456"
"0.026669568213500205","-0.042740360984833","0.029534082835918355","0.02939436383880158","0.05431260166108518","-0.12056739310580904","-0.08147865385589718","0.9189970391565563","-0.22886376755722207"
"0.014239570622833793","-0.05467210785583438","0.01174348435795797","0.03783671507620194","0.0872491557329082","-0.11278195050593284","-0.11889977131985163","0.9352108239898774","-0.243540182815453"
"0.012650918723174656","-0.052155295575131294","-0.002800331188557244","-0.003756763318046021","0.10278165362028875","-0.11152967856655124","-0.15503915281705882","0.9467280202140348","-0.23102110253950103"
"0.013117886099741122","-0.03301069501977075","0.00626591929853081","-0.0014433723055760326","0.05903218345367601","-0.06927520814683666","-0.18543858628926627","0.9575987758712007","-0.2183892524803844"
"0.014992495341338924","-0.01865250428260246","-0.04665121087082667","0.02885907506151858","0.07594322044477479","0.031360374237535585","-0.17576983888793152","0.9528889945974044","-0.21097259630645882"
"-0.03585880773775064","-0.10682610893470439","0.07906275377518736","0.12831688518021875","-0.18349975351263706","0.09266588094435373","-0.1524199532328358","0.9389311554162376","-0.27026171839140806"
"0.011066118100848017","-0.008021231606995317","0.00786793540432689","0.17685871998347183","-0.0862983869181726","0.17228707820642922","-0.13102053535322508","0.9159231482971878","-0.36234069786231365"
"0.008625371091371686","0.06020380521559659","-0.046151419846458167","-0.014010239101893822","0.15035082588678741","0.22990614871960274","-0.058769636184174946","0.8862924235326315","-0.38051461074333015"
"-0.001967567211688866","0.020379379775168863","-0.04613283257695685","-0.07707900261094391","0.10985623971506486","0.33158771793706304","0.053382260906232576","0.8554875516157844","-0.3425324402977525"
"-0.010517402889854467","-0.024384146942495005","0.02134370579277527","-0.01906756274769883","0.08515502080972513","0.3663406911385054","0.18827103949372662","0.8031126730248281","-0.3321870384509148"
"0.010969836167535343","-0.019008784353704875","-0.008853791814699934","-0.03652317573496146","0.04221448504772482","0.2824918626392154","0.2864352962513674","0.7619383667068497","-0.3110222747990116"
"0.005502947994041627","-0.007013675720787314","-0.019784345432769194","-0.06277832006101292","0.04962413273021021","0.2555291858048561","0.3694694958363152","0.7349329822041575","-0.2576936077749497"
"0.0062125458425560335","-0.01743201132765977","-0.009326114985249843","-0.0832771845320733","0.06487900815920308","0.28824357677939816","0.44589996880997695","0.6977296679405562","-0.21643784492823215"
"0.0046248567622300205","-0.01757639304743597","-0.010618756316457484","-0.11228386721329528","0.010049051287044185","0.27271152171730106","0.5198505613262357","0.6604867756830576","-0.17186599671860242"
"0.0058437860379684905","-0.019427387469315004","-0.020610446299494","-0.08788490411494458","0.016304411799871087","0.2313234487440191","0.5774172245284173","0.6205789651697974","-0.14180712929884923"
"0.004709584863545183","-0.0046639930711057384","-0.030290283205341904","-0.03976956738423891","0.02666523408095879","0.19048385146511743","0.6267361954228327","0.5867002023935818","-0.11580797407302094"
"-0.002237156624964362","0.019062286101239227","-0.00203267695815322","-0.031013359777424417","0.01163102064044304","0.2481271908143254","0.6821573440719808","0.5514757878248528","-0.08442038442554595"
"0.003064126623231545","-0.0003413705757917079","-0.013051623368962033","-0.030467480754547693","-0.02060836599923915","0.28846199630370895","0.7436249428251333","0.5051959202941035","-0.07975269600934241"
"0.002215882790746884","0.00958918333606706","-0.010560929255786744","-0.02131654581196696","0.007367840596253362","0.28882602884422687","0.7987674532206404","0.45212183047762555","-0.06938277899225162"
"0.002913926807263779","-0.0034368523247488977","-0.017082995598579082","-0.026520207396885306","-0.008622016358350382","0.2852342411111169","0.8396436850297404","0.39976014455130165","-0.07565866257706307"
"0.0026067874399963416","-0.00991585216002975","-0.03795236874421447","-0.023703202068953554","0.01958586139207255","0.22460583492966205","0.8808821465685732","0.3526755244779709","-0.06609447748895979"
"-0.00920796859680207","-0.011470812120497156","-0.001986002259183268","-0.034470593588977014","-0.001573038542063482","0.20908591428558218","0.9202815956333776","0.3129260259403005","-0.04644148266933537"
"-0.009323506916777285","0.006229348006656327","-0.00806548506262779","-0.05942602595579817","-0.009168884735433041","0.16263778899910136","0.9440494386689346","0.2773454094264946","-0.035981676694649606"
"-0.022311939720657214","0.004146356051597336","-0.021659594400234503","-0.10678656700055084","-0.024987381620894034","0.09667994642446445","0.9597924999996379","0.25431101697817976","-0.020909750023000852"
"-0.021618709800805942","-0.01739773365318053","0.006942082857945064","-0.10140479673973797","-0.11310810052902576","0.022091863067589465","0.9514612162157793","0.2445484451501426","-0.023782927976672346"
"-0.00345993717803533","-0.02921314417443419","0.011855606898094196","-0.105178775169503","-0.19620576757798427","-0.13449285122242047","0.9469194126814344","0.2557490174231204","-0.0467830607081962"
"0.009814452967783228","-0.029305590023787294","0.026218733532535028","-0.06523429428915846","-0.1840645716176327","-0.29044681846389314","0.9296159771303435","0.2934404602781235","-0.06850513589718814"
"0.008285495866777947","0.01341239050139263","0.0038714659363289633","-0.08314047408895427","-0.13007418335239107","-0.40346678787668444","0.8761731600820444","0.36154099511099924","-0.08820552671263535"
"-0.027299343866253795","0.03459942109701173","0.01349326925628945","-0.07397798615118037","0.04306649879932844","-0.4592608419200615","0.7968727130958828","0.4475835538440515","-0.0712050733144039"
"-0.016814241328503426","0.013778122900912052","0.0001876756463863756","-0.06699516330651566","0.06117179102090532","-0.39101687499097215","0.7028323024921255","0.5373728293327289","-0.0446927338579426"
"-0.00987231393665954","0.017195710918233263","0.02205270686164184","0.03048997288295275","0.04793925160344351","-0.42933736708948994","0.6067021049860619","0.607887621793349","-0.027653056187306072"
"-0.003970231424592535","0.017055484068090914","-0.003031639431240189","0.11259518422152928","0.0806077564050991","-0.4626099412928262","0.5094294906400709","0.669761218919693","-0.025132896685280227"
"-0.0038354367179547788","0.009456539123006482","-0.005998374168865646","0.15945220722578016","0.08398948514390783","-0.43346306921535954","0.38905776506726086","0.7395240294962614","-0.06581663889275718"
"0.005964138454609346","0.009575472266275364","-0.013510109349994298","0.1324567084577671","0.06316780076483065","-0.37604300315766914","0.2648965592449366","0.7947221383185691","-0.11736877324580608"
"0.015335259023932036","0.00985634145352345","-0.02365669324554172","0.12412892442269892","0.11867553936298435","-0.2966839093247665","0.14965177753911646","0.8433107221600029","-0.17994456248936364"
"0.017416874422152086","-0.004171848762976511","0.006421845837125117","0.10807988860020329","0.17139269359493067","-0.24707840847019377","0.0730541216132707","0.872690786296542","-0.20633922912860972"
"0.0157473456985103","-0.017469405154364397","0.028965312389178325","0.07811719556674748","0.14093559527215638","-0.21193470700859549","0.013063305604414079","0.8904481128918635","-0.21412197851164938"
"0.01796568144203434","-0.027637409865797546","0.025289163532252943","0.0286790408864252","0.10904251871634232","-0.1534735078850239","-0.040741741173617584","0.9113848716636138","-0.21766687213025768"
"0.012955169632442703","-0.04745925417147523","0.01713451535159571","-0.0004736909090302868","0.1379918398944248","-0.15302210753478168","-0.0861319126916978","0.9262266193751568","-0.20643892415430595"
"0.012498793268540625","-0.05500969101358449","-0.01176703652120496","-0.050061360602144014","0.17637075146946868","-0.14278793937902176","-0.13517224533247243","0.9440894872875383","-0.17141982061999475"
"0.007022276901715646","-0.05078211116114471","-0.017496046031941485","0.008913791610130362","0.15908157354366942","-0.09316545033922483","-0.16724350832652427","0.956622518688397","-0.13114466458340393"
"0.0006012347690933159","-0.00715182513611274","-0.01533579226545612","0.07547155966751425","-0.22954918214916858","0.20454764194712566","-0.15724039502082074","0.9521633980426177","-0.16213674281746113"
"-0.04799995952847903","-0.12672793448083364","0.09332331998702433","0.24852580016502995","0.04834132550869466","0.11867479252255608","-0.08061487526961073","0.9156724876691706","-0.26109304471672257"
"0.017904061004714235","0.08595776464099994","-0.02685783410410034","0.050869456403683844","-0.016942792229699535","0.22517129880926656","-0.02354976092398242","0.8774269528996033","-0.36162158620155394"
"-0.01822958574819976","0.04249471211873033","-0.0459861996731132","-0.11312145936479927","0.02591134550861289","0.30639666613322425","0.08536993242419241","0.840606225910344","-0.35756841138636325"
"0.005486580065378459","-0.014595274085150432","-0.03216759742497402","-0.08731014260408494","0.13988493786498227","0.3820668968888788","0.21031132535671096","0.8064108391829488","-0.2802312209610304"
"-0.005626280677570526","-0.026083488622738606","0.0028473073868068867","-0.12998883234681025","-0.01043757150432371","0.32549624009239686","0.299698477124668","0.7709489566508353","-0.21170314838000323"
"0.006003614047267536","-0.008717172270664764","-0.023479081559195886","-0.13101897441820018","0.03523084424104123","0.2751626741567883","0.3809772557116787","0.737980487734261","-0.1475747316870783"
"0.01152827138074886","-0.026430420237164864","-0.025531942213007027","-0.046342258899546504","-0.015845465529951617","0.32166176399894164","0.47094954781228177","0.691819354185204","-0.11510684020378027"
"0.005501985174708503","-0.006852674522475725","-0.023022660830330433","-0.03279829753476736","0.007369755233897417","0.2947961625087204","0.5606153378338793","0.6358956488081097","-0.1050932103277022"
"0.0001101969091986693","0.001695242646979462","-0.015614601307975743","-0.053614869373639594","0.0027059372626896333","0.2841906811616322","0.6304420841962549","0.5897345152590527","-0.08768253641390106"
"0.0032152892585324525","0.004161168161842003","-0.01502600444043432","-0.06500515988449415","0.019313025527794982","0.3058384829044301","0.6892068918890919","0.5461459513133299","-0.06024679221123702"
"0.0025076170486842946","0.012464145379207798","-0.013927290287690325","-0.05443416928275439","-0.007840604869871221","0.336975399536728","0.7530429157981909","0.4893515300704918","-0.03830081180059947"
"0.001447552962911728","-0.01910226892046644","-0.016603857095878694","-0.036131336647993506","-0.045545324664502916","0.3193076869035925","0.8177984459443046","0.4272800429746606","-0.033642929452497215"
"0.002891781962601864","-0.01615335019784322","-0.021161868628032807","-0.0022320567774289663","0.00857621627935636","0.23318486846786726","0.8693186590424815","0.37574949492018317","-0.02903898047895194"
"-0.006926086777291643","-0.02224438908106357","-0.014455994842394203","-0.015913595059966635","0.004839082927870264","0.22106986551943153","0.9027831133047375","0.3330184541755716","-0.023281184158824134"
"-0.008765071703563769","-0.003707542081394058","-0.006093169243322318","-0.05964553286446817","0.0019850761897036505","0.17369224381282833","0.9289193814962413","0.2957887545827054","-0.014630597748822312"
"-0.023207361700465095","-0.011359669357791735","-0.02485867000662631","-0.10913567602315967","-0.061185520919361455","0.08901099423755399","0.9449968087313132","0.2712767836955526","-0.005814942525782471"
"-0.024382001286879736","-0.03336905252569009","0.008453021343184732","-0.10215574142729325","-0.16114875231537248","-0.04249940134994325","0.9448574896044929","0.26511580931218315","-0.014285751020594385"
"-0.0013224782584939385","-0.04879088988912333","0.021083277494540274","-0.07838834206616851","-0.2242408492810314","-0.22814386259605593","0.9236252546770668","0.29563044260711563","-0.046204502690221395"
"-0.0006523560026377223","0.005629384831528757","0.04361063507969235","-0.07881195188991764","-0.1919504854140763","-0.3592489686217766","0.8766747089385982","0.35541959872152734","-0.07651505919124048"
"-0.015466294262125965","0.04053257493414588","0.003156062585745282","-0.05878772297137618","0.009095322410600248","-0.5093274506592903","0.8144826507259794","0.4326230721508161","-0.08335479169187483"
"-0.022716323840570433","0.017128194286683242","0.009401013392794783","-0.08667376511886181","0.03201903959314221","-0.4255028909960347","0.7242595841971001","0.5168582358292183","-0.053291021238071"
"-0.00986268574332826","0.022000817649777828","0.025318077062588307","-0.0033965024179393706","0.061391974349971436","-0.4272745160265552","0.6305535394977111","0.5890221113688987","-0.027847543204647888"
"0.0018163127674992881","0.026946151231464745","0.003092659344224153","0.047466136569699315","0.05426234242292879","-0.42865783968052323","0.5100146309727167","0.6707374761024966","-0.020107286783380432"
"0.0026626309613177004","0.0167127073232985","-0.003718748827138546","0.11161317963011085","0.0861745653551834","-0.43892355732312804","0.38947572244772194","0.7384950016549279","-0.035981676694649606"
"0.0017912794648379823","0.013304156147430904","-0.004231344414941287","0.13428593269668385","0.07619690993261183","-0.39128383218735197","0.28041670997272705","0.7930202845809787","-0.07591035165832895"
"0.012175285972610037","0.01528343216925498","-0.012636507683432817","0.127970295324424","0.07033333214769928","-0.31413320243359133","0.17417194385950377","0.8358568666426502","-0.12749026987099807"
"0.020835845874085195","0.015287587038888826","0.004336354199078348","0.10979358288718843","0.13445454684703675","-0.21709668843313937","0.09676623699809946","0.8646300682060949","-0.16375147536480325"
"0.024427161986647995","0.003927924167771892","0.01273511518585276","0.07656428046286713","0.1398490384091563","-0.1453240327446298","0.02947509874385494","0.8873874146971276","-0.19801387731063327"
"0.019462865505046445","-0.03413458725572648","0.009266255688910298","0.017222320653209975","0.12805247722473428","-0.098849211738511","-0.0011472453312648665","0.8979943170616438","-0.19649883978898738"
"0.00889688614331343","-0.06765607546160764","0.04325541170700069","0.001971885623441421","0.21424946396000372","-0.1594751910363624","-0.027478560300316947","0.909973256547938","-0.171009600104425"
"0.001836531973494937","-0.06140299666266724","0.036863456250717505","0.040185824098810774","0.06759540031670339","-0.0921461592257747","-0.065373362795461","0.9237200130949851","-0.1663370086541709"
"0.01005515780106492","-0.04980052321014825","-0.01121148368833253","0.0014828088269310564","0.08267556506067641","-0.005868262927788854","-0.08117215177689219","0.9275063078445076","-0.16544955949100612"
"-0.047499293475253127","-0.05768750449259916","0.006713872493512337","0.13342908555319125","0.08402777789678889","0.023840675392237463","-0.07364891892859146","0.924867774918011","-0.16924287350151326"
"0.00011501100586429185","-0.00925626660565647","0.03584735218464599","0.18608186114600983","-0.1983214421746629","0.11914075417441901","-0.058017312899344906","0.9028624103110299","-0.2908381179572352"
"0.02267579361969043","0.05486999132314493","-0.053383932934633824","0.025774425344945336","0.001632064874081364","0.20105778332536073","-0.010815992732599302","0.8762659984119447","-0.3546592778496538"
"-0.00767708585713054","0.05734525490750955","-0.05045953586642802","-0.09726497346218961","0.1029850838699694","0.3172205670046232","0.0820820010312312","0.849709164506757","-0.311659669225594"
"-0.0057033062242206915","-0.03243524557548288","-0.0021258198308764403","-0.03881740803040279","0.10909038465744364","0.38260081128163836","0.20827726610513336","0.8089570234570178","-0.25787338569013957"
"0.007662551758244934","-0.01700302103796502","0.00723369646389892","-0.07671604601195887","0.01621322718207306","0.29797538002924345","0.32327127338267675","0.7595768797376351","-0.23033467777241226"
"0.003556127302459316","-0.0042729159668198485","-0.02878677962790276","-0.07603730754436082","0.043281895534284416","0.2652367202186668","0.40053766111726036","0.7230595840349231","-0.1907524838816444"
"0.004633522136228158","-0.009880535768142048","-0.019831846232605872","-0.06762287604534392","0.03616662338957217","0.313434628583237","0.4756028066480824","0.6859881964176466","-0.14616429222517927"
"0.005928514139283653","-0.014013592336411789","-0.011168113392829478","-0.04994679339981186","-0.006623613317369986","0.3112747021761641","0.5632624012434666","0.6363441994056142","-0.12163604721454115"
"0.0027675782686285115","-0.002023885034018229","-0.02602760273304191","-0.06306233119284471","0.02466204444586826","0.30367855649735725","0.6336464241131234","0.5864495417655645","-0.097416693349093"
"0.004942587142161845","0.002446339205038233","-0.015434924369463095","-0.05065152610659451","-0.003994815832085114","0.31392000530392755","0.6992378690201593","0.5311854696200944","-0.07862172948832952"
"0.005363339190738248","-0.006564949800331788","-0.010224086627379706","-0.01169001256726788","-0.017902983008192156","0.2872485545019826","0.7637704885633604","0.47932510494980496","-0.06747713309123855"
"-0.0021697592716454924","0.020635942975058944","-0.015288291465619443","0.0017676864334023492","0.03518537159699497","0.2520102045798497","0.8161266164224599","0.43299246676052566","-0.060874380569718174"
"0.0035156888904680013","0.010978987228589029","-0.010505167447282821","-0.011539823629756822","-0.004785321849373528","0.2776866331043791","0.863522983366754","0.38479966285806627","-0.05684081789072998"
"-0.011229889196368248","-0.009730960461323539","-0.014852523258422106","-0.04682363369926143","-0.006506102431966227","0.2455789630307001","0.898213445945029","0.3358548770715554","-0.04840269628958895"
"-0.0011587989718623952","-0.024357140289874995","-0.020736426681669532","-0.04150733041120979","-0.010511045723914246","0.2285228250656347","0.9221763357581348","0.2912504779491314","-0.044454119534145076"
"-0.010084134189947427","-0.01359498922080166","-0.026864029860600776","-0.05548549184533179","-0.015916067793076076","0.17620164145879838","0.9485912422032788","0.25032683225917","-0.037186188726422015"
"-0.026673511299721408","-0.01937337416407499","-0.002506858855653256","-0.07606041353474714","-0.0786182966684647","0.10234671963852647","0.974727510394783","0.22235838323830667","-0.03230930419072478"
"-0.017526727635017243","-0.033118721630250786","0.02320263926812276","-0.09060563448293332","-0.196701180068383","-0.08503296338405489","0.9736965488563118","0.2231499431162557","-0.0522842649130075"
"0.007050198662376325","-0.03871948589667713","0.0050899647147480504","-0.03578185854340047","-0.1779568775331034","-0.3326988620000043","0.9417646049890802","0.2697728199274495","-0.08895569092238234"
"0.0008169062997137024","0.028232083383140528","0.02465864204572523","-0.08881106922959607","-0.15889665978655504","-0.4281481941237982","0.882971933470879","0.3500106062222094","-0.12035635532732569"
"-0.025421846166656638","0.03822973843958593","0.01759155565611121","-0.051756762646739986","0.01617684906683605","-0.4620274892279976","0.8020553846136013","0.43813760596719387","-0.11329762063909635"
"-0.021560940640818333","0.01772649551395727","0.018855696507416843","-0.040284638419933884","0.02457588575188588","-0.41091732053928415","0.7312534043634833","0.5137711523052173","-0.09087277723618022"
"-0.006974227743947989","0.027962016856940445","0.024066534249500227","0.036061404814853294","0.014739674185268713","-0.43928758986364597","0.6350674792066916","0.587557725594693","-0.08566248638503987"
"-0.00581884454419589","0.0317107479840793","0.00685203786347206","0.06787931632641045","0.04758265034223863","-0.46343508171800013","0.5239465436547549","0.6607242436464422","-0.09980773962111882"
"6.87956778742127e-05","0.017341131355417923","-0.0007243397104778099","0.10532642474583392","0.05139517255095931","-0.4599646381650628","0.38744166319614437","0.7344580462773881","-0.11568539822175511"
"0.004462140294931602","0.012811284737115751","0.0037297896376856585","0.08429515974628883","0.055849098370437764","-0.3764313045342216","0.26776653325743643","0.7935611838309106","-0.14436651307328013"
"0.009722985131136194","0.012251623797436502","-0.0019442841654136649","0.0910989111654596","0.044203314900484944","-0.3171182692658381","0.16556202182200436","0.8380468489716423","-0.18604393684835227"
"0.022849101099653244","0.00679087863767081","0.021640069478712796","0.0843038244926837","0.07507924020789584","-0.24501555740725897","0.08227704780877977","0.8682448583153953","-0.21425762912038354"
"0.020102177542242607","-0.003866154229666184","0.04554577635999521","0.049425332004539066","0.09904332362027513","-0.18927246791955438","0.02362369541739892","0.8897620943309745","-0.2309230418584884"
"0.01989035728895472","-0.03944554936519198","0.024555585962601316","-0.0034523418947063024","0.06536245416432648","-0.13513597537733546","-0.03307918919849649","0.9024534377074228","-0.22430394589013253"
