"AccX","AccY","AccZ","GyroX","GyroY","GyroZ","MagX","MagY","MagZ"
"-0.00019405400006939456","-0.006178235309161439","-0.00999298490991344","0.0702967805705788","-0.05397691018950164","-0.1805672364339696","0.7885414293120242","-0.5579877297730457","0.1823046679289409"
"0.0026982552766433754","0.004051251085678568","-0.016707119704219297","0.04416775644205264","-0.04086642892184821","-0.17829567338113791","0.821922292098188","-0.5230535538262315","0.18894010734413216"
"-0.0007264930912884806","0.002519464910593948","0.0011199304744853183","0.028302605793048125","-0.034445212923105206","-0.17653375588503126","0.8493681600818033","-0.4895705709889904","0.19041101755932235"
"0.0031218957832191523","0.008619748378749608","-0.0030653030415592254","0.03047264339016301","-0.04375274517025821","-0.15216299073915945","0.8778171257785249","-0.4550717529750481","0.1848215587415997"
"0.0001265648378618202","0.0024629586835736225","-0.007364125426778431","0.05199298518621848","-0.02187394148195823","-0.14218364536176203","0.8953713357578932","-0.41999245771727656","0.18415147742134635"
"-0.013434745469228525","-0.0011119950211295618","-0.0015888542675053163","0.05718028002794651","-0.041742375644002495","-0.15003461381893146","0.9144580561322853","-0.3876968146969589","0.1883190563643852"
"-0.010555915663179516","0.0152283801466065","0.0116685776618677","0.03360831883550603","-0.045641056546705555","-0.06347010256737784","0.9322351767145665","-0.3626043665659767","0.18642321653147342"
"-0.012231221302820082","0.011042452862246048","0.03608279093166256","0.027446721399154987","-0.09271242302575039","0.048831509298791424","0.9369162993757311","-0.3627231005476691","0.17843127102894007"
"-0.005144871011007158","0.02677164670684315","0.014975294211193748","0.02952337228512518","-0.12939927358286238","0.16127145353035752","0.9322073128892022","-0.3810740970514525","0.1554523847783023"
"0.0007832076230542761","0.015642828392582783","0.060027324553681045","0.03729468705172293","-0.1715715609901864","0.2249722943537834","0.913148456340174","-0.4187391545771907","0.12150704570107992"
"-0.006704638330672509","-0.03802250651559923","0.008541186958185938","0.07067899216155245","-0.023689735957637063","0.3210307742620439","0.8853682224521898","-0.4642406548946236","0.11006663291626739"
"-0.007927418883743478","-0.022993304332564572","0.007681236608447084","0.09264219877334565","-0.008143596277042621","0.33192748164154645","0.8399223232833811","-0.5217342873629832","0.12422005787576404"
"-0.011913490922888258","0.0007150050286140041","0.021711527203684494","0.03893424961955197","0.04305453231405311","0.3028534160721833","0.7876497869003741","-0.5731592941004008","0.1508762196643773"
"0.0042609110543081","-0.014162128925821837","0.018102705567397178","-0.09761156331798436","0.02268518107838346","0.3801253900061166","0.7196899168373917","-0.6369722129277197","0.1446657098669076"
"0.008401997006086286","-0.01377988091950787","-0.007127241003245091","-0.12007251147268279","0.09224157338977658","0.4242704027529208","0.6189343243208912","-0.72449235009961","0.12930286984158793"
"-0.00450941025114351","-0.016749573990300328","0.008125059299094984","-0.10335917842658056","0.08598549488783316","0.3493039682422676","0.5214109355466238","-0.7939517293896315","0.11439764632766071"
"0.006118189547909626","-0.0033446142188774844","-0.011275506505503699","-0.0934948460308223","0.11868511255120462","0.3491340863900259","0.4382095530094919","-0.8502712147057001","0.08525237758600894"
"0.003503172239137348","0.006418186831514694","0.007645714271177916","-0.07419075381265437","0.14477923034259293","0.3301073189389569","0.33533630976532164","-0.9061949200827945","0.080367321326894"
"-0.0008795813652556371","0.019210822690649273","0.0639760866966256","-0.07361599230179475","0.09765999792244678","0.30588702057649914","0.23600177234238912","-0.9549286232351856","0.07055798453625903"
"0.0052949790180862365","0.01446284541657011","0.03791673485579163","-0.0342799691682899","0.08520288675082648","0.26465426815383813","0.12925545737261285","-0.9929366900413683","0.06656037744030881"
"0.015748308517843427","0.014129209384972159","-0.0047022219089744265","0.034066587644834646","0.13114701031693504","0.20050202698017008","0.05466399687298014","-1.0264460582078743","0.0867363625586675"
"0.01793968532003991","0.030861077143957496","-0.030980077429057118","0.076030917184783","0.21922991513159673","0.16500400051246772","-0.011763362794977918","-1.0442429627970935","0.1352028541491841"
"0.015184096388631146","0.03814871848172591","-0.02042663885664773","0.055312545805052606","0.22520837117515247","0.12268643111906337","-0.07409474013441683","-1.0563802142589775","0.2027176330264136"
"0.015110922119313511","0.04162322821303083","-0.0060285268505011","0.002294117914370592","0.14235242712875568","0.06686568135604828","-0.12541990645504553","-1.061525353465646","0.24280810811376383"
"0.018984344296482443","0.04574589760721595","0.004354528418146293","-0.07597954256839502","0.06458223932437486","0.0127867059552312","-0.14341993764023894","-1.066090015428485","0.2562914517530072"
"0.02202974184716237","0.0359892249895337","-0.016407658140031554","-0.13252086379331077","0.022728260425374656","-0.08737247917778329","-0.12898647610164748","-1.0721190631655295","0.2017043393226159"
"-0.031872735698605895","0.09882435717961702","-0.04349963606427154","-0.20838553222838296","0.07147732814002099","-0.04281246933478865","-0.11686571206827402","-1.0802325519145064","0.1179114873972817"
"-0.023476951113740575","0.053840622371359226","0.06881497252346616","-0.20471745625455523","-0.26062135781509493","-0.05709467934110766","-0.09541056653793539","-1.0851534158224223","-0.019791858259456313"
"0.0502259060177794","-0.08616705839780643","-0.018801285401366677","-0.05918245030714242","0.06590812589288161","-0.11721343996583741","-0.05539811331512158","-1.0713143106229481","-0.09582320728263696"
"-0.025017462046743384","-0.030525044261321518","-0.0014044272490090037","0.07923013410368838","-0.055465540957752905","-0.298455534355287","0.03490854468984986","-1.0380687957490915","-0.08287919738896334"
"-0.010334467216560365","0.011664021359469624","0.003474937520301057","0.1074348463685853","0.039471766622618795","-0.35796272031194665","0.14959604988838857","-0.9928311487243083","-0.02474555699528014"
"-0.0013224782584939385","0.035248619477300396","-0.008117322892014769","0.08864582518611233","0.012699867105235668","-0.3101045756518599","0.24597702182272854","-0.9510499798332356","0.03207407027283315"
"0.006519685209823471","0.014139181072093393","-0.02833861990770455","0.038474055311024505","0.012559859227514287","-0.26889609206523335","0.3231598180812203","-0.910416572765189","0.05339409666967312"
"0.0001101969091986693","0.008900617565997694","0.0054800908490588406","0.0786014586152607","0.009573742491908009","-0.27168700820920394","0.403630545732673","-0.8673293300755004","0.08020878989259017"
"0.0038998538043855703","0.02360148117621755","-0.014683172580743522","0.08525117009852266","-0.01031168407922722","-0.29127195888906704","0.4925440124694408","-0.8114188173630386","0.11616273858588891"
"-0.0015054139317880232","0.007568981848349588","-0.0314592159317575","0.11417409356459424","0.012428706548896652","-0.24171499570656332","0.5571602234887341","-0.7621574076253482","0.1544227476276692"
"0.003821865438402314","-0.0036706676133936625","-0.00905061034619712","0.08170151232542482","-0.02209221017338028","-0.27069198593178834","0.6106866320131247","-0.7195451008624291","0.18071935358590255"
"0.0006118257817577026","-0.0068204742828134055","0.0008880026561523302","0.05344288608295983","-0.05484807031754578","-0.3124829215832434","0.6755536174606944","-0.6645712673388736","0.19771653829476696"
"-0.00018538862607123975","0.0065224740593242654","-0.012498135788256414","0.019534845191040474","-0.06737458710376303","-0.31338086851652097","0.7433184407461286","-0.6043995239501199","0.1939412020757788"
"-0.0013706192251502836","0.015150476340971861","-0.006681353060430378","-0.014583075113554582","-0.02927401597622336","-0.2274157975150201","0.7932225519731894","-0.551602480090924","0.182419072056789"
"0.001001767611674036","0.01346193732177626","-0.013702177801507818","0.019974821757979915","-0.020126595302054295","-0.19288124383788852","0.8283031081065615","-0.5141880831932031","0.1770093911542562"
"-0.01309775870263416","0.004477478387066808","0.007864217950426628","0.0443824496027255","-0.02762455564587164","-0.21629096307679305","0.8603465072752493","-0.47802698943556793","0.18088278805425706"
"-0.00611731853746519","0.017455390270348727","-0.001003974853864154","0.06429211131893482","-0.03090097931425746","-0.16529243103383845","0.8853682224521898","-0.43682629778832455","0.18308915337704232"
"-0.008004444430393626","0.006067827449640508","0.002657717237893544","0.08887881058917436","-0.04441329515745653","-0.11682271170568155","0.9061824999991551","-0.4043195721338871","0.1908522906238794"
"-0.017873342594942852","0.011239705298112957","0.004699838580437262","0.10914854065557042","-0.03948070992696479","-0.0664260467963832","0.9128140904358049","-0.3759421505094168","0.19698108318717183"
"-0.015148563882194141","0.035088656996397266","0.039779592310256066","0.06031691822288896","-0.07000482056728094","0.072675640702714","0.9170493918911446","-0.3700318367540645","0.19624562807957674"
"-0.007831136950430804","0.04616450072282608","0.010014930251901321","0.010974075752910243","-0.10967371925500556","0.22531448494187029","0.9092753846145675","-0.3935279724645162","0.18089913150109252"
"0.0037515796270840536","0.002806981889256191","0.021762332406988067","0.025342150774801335","-0.1833824819569388","0.240431542907777","0.8925292255707576","-0.43869965616613704","0.14476377054792028"
"-0.012221593109488803","-0.03053335400058921","-0.008289771447943572","0.03414071936399075","0.026050156737806737","0.4147812878634209","0.8460245010381142","-0.4999531980547543","0.13619980440614635"
"-0.01587067838203922","-0.017494334372167485","0.005778106736729814","0.04193995386897197","0.03850008801826186","0.3986667807364951","0.7680893814947923","-0.5904944554274831","0.1579039018036193"
"-0.020752172400991864","0.0009830979917380101","0.024428572954342375","-0.008885522984128723","0.041252379631588156","0.379081830056632","0.6926062785835095","-0.6563522372728369","0.17753238145299052"
"-0.008668789770251095","-0.015637107645837676","0.02622472276381878","-0.0854058238964127","0.03824639853042483","0.4834620938411317","0.6072872453187074","-0.7221176704657631","0.173560923871977"
"0.002989026715247662","-0.02138536978426561","0.0059794688229939845","-0.09020609339916993","0.06741350974051834","0.5217340482675804","0.4769681340909221","-0.8142816255882873","0.14971583493906057"
"0.0062751290992092805","-0.015698391972936925","0.011995878825264069","-0.05166530143479415","0.04805891645619683","0.47453116218042585","0.3390700623641079","-0.8922634662308926","0.13646129955551348"
"0.018058112098014514","-0.014243148883681861","0.01064136253913874","-0.03534573297485875","0.07142228230775448","0.41002459600065366","0.195041949057197","-0.9665645534410353","0.12260205663905485"
"0.026403830077557224","-0.016842019839653433","0.0038801399954295746","0.01188194862517259","0.11892204895965619","0.29855783209407205","0.07464235965902294","-1.0125277970206052","0.13409149976437373"
"0.02860290943441873","0.00450766351495671","0.004238461246371458","0.04181383367144666","0.17685180417753701","0.13117809684754428","0.003394558203079643","-1.0319210140303547","0.1768132697922309"
"0.02138465289396745","0.05232409495500491","-0.007950243991719678","-0.01614080396543208","0.2217931362775728","0.12485849194415352","-0.051775816017791736","-1.0455886145896067","0.2114123467428711"
"0.015355478229927702","0.05644468691437311","0.020752011046983633","-0.09860319540539711","0.1054453932425776","0.1437639152150499","-0.11706075884582261","-1.0664989880320919","0.2038943611985657"
"0.017117437609549663","0.08735483955538113","-0.008209846189087948","-0.14622079059319754","-0.06684327515753831","-0.01194687828935678","-0.1250298128999487","-1.0777655236282322","0.14747678272260442"
"-0.08503961927386532","0.08870205603415617","0.14416982833393607","-0.1314907217219208","-0.2593768433464604","0.03377269653936755","-0.1301010291162104","-1.090799876285125","0.03907069986308779"
"0.032139344844993305","-0.10866463874768187","-0.022785156831147048","-0.10693097944046533","0.17288371766023702","-0.08144117565094494","-0.11809172038429337","-1.0917233628093987","-0.037459124288573974"
"-0.018046650074905676","-0.017393578783546682","-0.009498357015961965","0.06037083220045703","-0.0630738322958088","-0.2980186953066655","-0.05021544179740344","-1.0695333008975627","-0.04070493283009365"
"-0.01999154512782172","0.0024329397504690748","0.003078615629489832","0.06362781409532822","0.10562967711581771","-0.41065036334290433","0.07996435030356144","-1.0230027727387965","0.003884893171055029"
"0.004945475600161235","0.04957980356184868","0.004516031137590993","0.03870222696608938","0.031947240681490206","-0.3390087593689813","0.21198315487855535","-0.9639919838377011","0.048489428274355616"
"0.012397697238562311","0.04118904433629377","0.009967739239889667","-0.047974119470580105","0.010894603136599127","-0.27241507329023973","0.3064415228627745","-0.9225142462331756","0.04381683682410146"
"0.005381632758067648","0.011795938470344283","-0.027452626728142197","-0.037039209520255856","0.0568638563217859","-0.23155606094251038","0.3677976663144705","-0.8916170256639011","0.03120786759055449"
"0.001941479280805748","0.016388627491858397","0.003993522339387554","0.03772118512427036","0.04213550624490763","-0.2543105216084827","0.43584112785354534","-0.8563662257659072","0.047507187119545276"
"-0.0028148482248404197","0.018090046606918923","6.665186941119099e-05","0.06835684012772765","0.013022244218553105","-0.2562034908191758","0.5010146153801202","-0.814980836813809","0.07412739332512053"
"0.004119376612338472","0.010801574295223743","-0.0014777437009308313","0.038288244638334544","-0.007618506903161065","-0.26239204400798016","0.5630116268151901","-0.7689648225757092","0.07773766073107066"
"-0.00040972553068978107","-0.0010081232802833756","0.012605623874993647","0.04740452059533579","-0.012625284342359853","-0.2271391327842265","0.6224173024914007","-0.7269857637151492","0.09107881638284564"
"0.0036966989250958367","0.006925600285548313","-0.011093764314824244","0.03997498193653564","-0.024873700010778384","-0.21864018640493527","0.6712068607038988","-0.6868272925738719","0.11227299823905265"
"0.0008823780143663231","-0.004471207120095218","-0.004682808538606395","0.022096721875123307","-0.023092129682987","-0.20733090881284577","0.7219190228665179","-0.6472097206825262","0.1178788005036108"
"-0.001149170778531133","-0.015310950379580652","-0.002268115705169789","0.024770277512740004","-0.031089810451902195","-0.21771311686841632","0.7648014501018314","-0.6081858186996424","0.11766633569474999"
"-0.006454305304059555","-0.015433519033779153","0.00803831870808888","0.04316553410904616","-0.04034947675795387","-0.21947988813172986","0.794476424114573","-0.5648215300526718","0.10126078376132881"
"-0.0015631830917756306","-0.00416447386937643","-0.007422778588315891","0.04775688694872712","-0.04591389241098313","-0.23703596411910657","0.833680826401828","-0.5206261035338546","0.10426470928968386"
"-0.005732190804214495","0.010151441069267466","-0.008717691696907023","0.03433712028227443","-0.06602716086176066","-0.21483968668192835","0.8784022661111706","-0.47802698943556793","0.11637520339474972"
"-0.007397868250523765","0.01432988958828699","0.0011168325962350996","0.02191765044962936","-0.068059070061512","-0.1968394909951198","0.9111143970885962","-0.4390822434404791","0.10423038805132943"
"-0.008216264683681515","0.007145081273956304","0.008533297694908716","0.043153981113853004","-0.05968731696288993","-0.19659194886756765","0.9347986486480613","-0.399095276939424","0.09725173625259378"
"-0.016438741788584014","0.012248507645211114","0.009407456979555237","0.06582865967962487","-0.06764742296804059","-0.16834545060698192","0.9518513097708761","-0.35876530115792427","0.0917619724605673"
"-0.019057610374688772","0.020928861284245186","0.024768513460999633","0.06420257560618785","-0.0700287535378316","-0.004489793041027732","0.9599596829518225","-0.3386596802580206","0.0881713171908197"
"-0.011306914743018379","0.02593755662784828","0.028809592375800695","0.05663728925386807","-0.11295971611161167","0.1826013335211031","0.9631918866940555","-0.3507837390552722","0.07517173957790556"
"-0.0030555530581220947","0.015609589435512003","0.031045640896808065","0.012122636025030052","-0.10525808618840816","0.31644396425151833","0.9360525207894446","-0.4011137546281938","0.054178582117774536"
"0.0005636848151013745","-0.04956785051065281","0.0322724006838944","0.10654911673710983","-0.029766077850745","0.34835748363692104","0.8970153014543739","-0.46224856253511865","0.05122532127460935"
"-0.004913794371056745","-0.028062245285858448","0.05383569855757862","0.12973212709138063","0.029025024977254208","0.35532263957883026","0.8289997037406633","-0.540612990452066","0.08128745738372962"
"0.004830900099519145","-0.008131335652292274","0.040423950986301416","0.0829752300454705","0.0983564473654711","0.3413195211869083","0.7706249896029232","-0.5953493560122368","0.12694941349728361"
"0.012216687203934493","-0.008987238796864848","0.01796949680263781","-0.021139399885671865","0.12218889943982174","0.35216769089434175","0.7090737993736783","-0.6467347847557569","0.16002854989222734"
"0.009548714831840248","-0.010526617996205325","0.003604841881593532","-0.07870990043237809","0.14853670671904712","0.3838142530833647","0.6185720945911583","-0.7136084017778117","0.172792781870711"
"-0.0032673733114099834","-0.004212774228869907","0.01217941778532865","-0.09591712402298781","0.13422000373564025","0.38995426860009996","0.5150022557128863","-0.7849543321102783","0.17251494327450842"
"0.002908149891265015","0.007070916850992127","-0.007718935749036732","-0.11913864436123583","0.16810430344126956","0.34612475072174465","0.40137357587818256","-0.8601393278507973","0.16011026712640455"
"0.0036928476477633217","0.013567990369180214","0.015539521103166792","-0.10988662071071496","0.17122516280107605","0.3204968598692843","0.29643840955707107","-0.9188994561238752","0.14580975114538886"
"0.009707580021806167","0.025215648028967284","0.044589564606761244","-0.12199801067154248","0.11958499224390956","0.3026349965478726","0.20217508835040054","-0.9640315618315985","0.12404027996057412"
"0.01028334598301596","0.023828960288670705","0.03842065638449376","-0.09758268083000148","0.08955150749988203","0.24887952473139574","0.1064907120501624","-1.007092419192022","0.0882775495952501"
"0.013980572222222702","0.028863623567485338","0.02214667583523178","-0.053106537585140626","0.10070427177649116","0.19457557722053861","0.03290234926363652","-1.0382798783832115","0.06890075902714475"
"0.01793294558470802","0.038514347009504485","-0.003266458602606715","-0.030376019542601856","0.16333685570757736","0.16592621628177973","-0.03661789501973418","-1.0608921055632867","0.06439813942397925"
"0.01623356946173931","0.03344125118657676","-0.0019343709550129666","-0.021814287354872192","0.1687816065078533","0.12739943907696846","-0.09404523909509568","-1.0787549734756683","0.07478439988790547"
"0.018818739371184643","0.03716089822627868","0.01242202295736406","-0.032170584795939094","0.09081038175084692","0.06733649677511812","-0.13199576924096765","-1.090113857724236","0.0885880750851236"
"0.024448344011976784","0.025107621418487255","-0.02263232817080296","-0.0813035478532421","0.051620142474135544","-0.055522058766070324","-0.13662116425140416","-1.0934384092116214","0.06306451416220679"
"-0.07081877772358314","0.16008271634365523","0.11736078995654933","-0.2200444298774785","-0.1606581264190839","0.023417426891795316","-0.1203486902387838","-1.0946125563639124","-0.02813845655831884"
"-0.002092733724995343","0.002529436597715182","0.06798887165674135","-0.15952599005731807","-0.11358436664298398","-0.07900943828028534","-0.12516913202676905","-1.0897708484437914","-0.15220809886492737"
"0.029826652806822833","-0.10649371936399658","-0.023664954254208965","-0.004364547140166086","0.16244894250014777","-0.1268821442419929","-0.08220311331536327","-1.0764198718357187","-0.18462696000771905"
"0.006175958707897217","-0.011572606426526416","-0.06176059572322335","0.15734378560302878","-0.011486074944148274","-0.3565551278219441","-0.01535779626694381","-1.0547311311799172","-0.15374111417809225"
"-0.025104115786724814","0.031172692366496054","-0.007428767819599644","0.07849266791052512","0.06755232096971218","-0.3576714942795324","0.11434831080283177","-1.0087942729296124","-0.08333681390035584"
"0.002230325080743786","0.033192997725954375","0.013575053242095205","0.06536942812069682","0.0226397084343372","-0.3126042657634161","0.22360237005537523","-0.9639128278499063","-0.03388644681034537"
"0.010490352139638209","0.03046636452874199","-0.006513241534051881","-0.025736529222949403","-0.010872433579229264","-0.28675795538664506","0.3363951351291567","-0.9123558944661638","0.010639639748145063"
"0.007822379767543979","0.016442640797098413","-0.009696414698759235","-0.02917161979371511","0.03427591871606977","-0.23703596411910657","0.41037359147077945","-0.8753372775074173","-0.0003987242445154952"
"-4.0965726102238114e-05","0.010919157105861626","0.008257834360899328","0.049653503659603936","0.0204498416289515","-0.2097189622786432","0.45969256236519446","-0.8449809561880748","-0.019785320880722133"
"0.0002623223638327012","0.01781894136331038","-0.013123907194800454","0.10119622896427985","-0.001647230750770538","-0.23190310529780417","0.5157824428230805","-0.8083581191683026","0.013686058238272287"
"0.001992508705461467","0.0013209927647106533","-0.016112327080177437","0.09572299749152116","0.009082637936208397","-0.23662096702291616","0.5753274376261118","-0.7640043806738958","0.05222554022093868"
"0.002065682974779101","0.004406263921542663","-0.0015525058293694275","0.07124220067721891","0.004103862072553884","-0.24991786228623342","0.6388569594562058","-0.7186479996674202","0.10565390227069682"
"0.0005203579451106688","0.01071639946772987","-0.005350917614570081","0.039004530340310345","-0.02525447357223944","-0.22718524357269212","0.6908229937602084","-0.676009307575236","0.12005247893272518"
"-0.0008699531719243748","-0.0016571139170903468","-0.01313010295130089","-0.013420073597443322","-0.028011791109381373","-0.19751173775327624","0.732925233885328","-0.6377769654703012","0.10252903523575946"
"0.0022736519507344914","-0.02224542779847203","0.0059505552926586176","-0.0015522592852715488","-0.04030639741096269","-0.20239705444702646","0.76937111746154","-0.6017741836882559","0.0944455664309476"
"0.0016661129515315053","-0.017555618699266733","-0.003071498798059663","0.05256870944667753","-0.02616799505815826","-0.23439066099134315","0.8101358939691835","-0.5611803546141065","0.0968791056647456"
"-0.0066372409773536225","0.004371768116407645","-0.0028569190979278922","0.05304334499919644","-0.043740778684982884","-0.20785026190398465","0.8478913773375069","-0.518119497253683","0.10026546784905012"
"-0.004422756511162082","0.019675129372231724","-0.016118522836677873","0.016503146702435877","-0.04321425333286829","-0.18080507102710797","0.8802412785851998","-0.4786866226671921","0.09935186917094865"
"-0.0031229504114409644","0.019975318703277203","-0.008316619726112128","0.021986005671188875","-0.017103621791799997","-0.15063648095258772","0.9046499896041308","-0.44581050240304526","0.09949405715841703"
"-0.007320842703873633","0.0019888880583516294","0.017878625707298076","0.05609718672858793","-0.009567368695101587","-0.1446469322192665","0.9198357744275523","-0.41682621820548066","0.10544143746183603"
"-0.011220261003036984","0.0019978210280644014","0.005626517227685811","0.08451851765335656","-0.050487483083214914","-0.14707624270632264","0.9394519074838622","-0.3823274001915384","0.11294307955930595"
"-0.0071090224505857445","0.014180210409727638","-0.0013494915413718043","0.04895358470081844","-0.053304393717027984","-0.0348401566974466","0.9491206548851969","-0.3617732286941303","0.11044253219348264"
"-0.013251809795934441","0.013148867894865855","0.03231577097939745","0.009958952575271407","-0.07492543931249733","0.09350558267114835","0.9442444854464835","-0.3693590108578079","0.10137682223386048"
"-0.0016690932184195834","0.023200536256551278","0.016681812076630515","-0.003738759900536683","-0.11077463590033608","0.19992442868254834","0.9396469542614108","-0.39133799013552406","0.07840610770664042"
"0.0012424724449557284","-0.005382162287316268","0.05916404914795362","0.06063847658909854","-0.1594542980003855","0.2048291604451262","0.9215633316001249","-0.42975502954531375","0.04783242171157067"
"-0.005106358237682093","-0.04345395984444629","0.001960075055944445","0.07570454507057628","0.019056942742902892","0.3600793314415975","0.8849781288970927","-0.4832117066361337","0.05137894967486254"
"-0.022273426947332132","-0.010722935586404617","0.032134028788717996","0.10016608689288992","0.04194404248050233","0.3199629454765247","0.8184671777530421","-0.5598083174923283","0.07689433887436162"
