"AccX","AccY","AccZ","GyroX","GyroY","GyroZ","MagX","MagY","MagZ"
"-28.745","11.652","-7.0777","0.69928","1.5442","-2.8703","0.55483","0.55031","0.3721"
"-21.987","9.1037","-0.99387","1.103","1.8143","-2.7728","0.43937","0.62004","0.41235"
"-14.925","11.797","1.3441","2.6357","1.1203","-2.2165","0.34965","0.68596","0.38622"
"-3.8495","13.94","1.6864","2.4775","-0.2649","-0.65932","0.32508","0.73983","0.30217"
"5.1552","10.751","8.6432","0.011144","-0.34799","0.69546","0.35508","0.74094","0.26742"
"0.44514","-4.4411","-2.8179","-1.2718","0.34264","1.1626","0.39432","0.70685","0.28338"
"-10.939","-20.232","-5.0101","-0.33019","0.90879","1.2078","0.42261","0.66432","0.33695"
"-4.1969","-9.3619","-7.8851","0.52115","0.33308","-0.81326","0.40304","0.68061","0.33217"
"-14.463","9.7003","2.0484","0.21549","0.42162","-0.87304","0.3495","0.71451","0.3224"
"-11.381","19.02","-3.2309","-1.6969","-0.71375","1.4395","0.35344","0.69484","0.35075"
"-16.38","10.637","-6.8641","-0.96608","-0.81584","1.7544","0.42941","0.65046","0.34924"
"-17.516","8.4059","-8.2415","-1.6172","-0.95379","2.6465","0.52064","0.57699","0.35113"
"-20.732","0.054015","-3.8808","-1.7649","-1.1511","3.1603","0.63597","0.46666","0.33432"
"-14.3","-6.9525","-1.9382","-2.4377","-1.3674","2.7472","0.72796","0.33164","0.31391"
"-6.7886","-10.644","-5.3624","-1.2323","-1.0374","1.8821","0.78587","0.21729","0.28379"
"-1.883","-18.132","-8.908","0.28495","-0.44516","0.90717","0.81076","0.15285","0.25832"
"0.68153","-14.883","-3.619","1.3828","-0.16066","-1.0214","0.80952","0.17355","0.25232"
"-3.8638","-5.4064","-3.0128","0.42862","0.50801","-2.3045","0.76836","0.27344","0.26892"
"-18.338","-0.86408","-5.1576","0.80841","1.2876","-3.0229","0.69866","0.38782","0.31405"
"-28.516","3.6614","-3.9503","1.2144","0.92679","-3.1721","0.60611","0.50513","0.34181"
"-28.294","10.577","-3.6066","0.17332","1.5808","-3.0714","0.49109","0.59189","0.37671"
"-17.531","8.0339","-0.099691","1.5149","1.3578","-2.4912","0.39031","0.64366","0.39295"
"-11.24","11.811","0.79375","2.2971","0.48614","-1.2556","0.33382","0.69382","0.35492"
"-0.04356","15.22","0.020917","0.84456","-0.76916","0.094785","0.34675","0.71613","0.29787"
"-0.25038","1.2065","4.477","-0.84583","0.56523","1.336","0.3841","0.69647","0.30155"
"-2.2293","-7.2104","-6.2772","-1.2343","1.1549","1.4315","0.41059","0.65788","0.35314"
"-5.9885","-17.094","-3.2072","0.7651","-0.423","-0.28589","0.41485","0.65833","0.35141"
"-16.426","1.0792","0.54271","0.85702","0.80319","-0.94503","0.36713","0.69702","0.32581"
"-5.4763","32.003","8.0427","-0.88052","-0.53749","-0.49269","0.33509","0.70635","0.33655"
"-20.53","8.5471","-3.9964","-0.37651","-0.7958","2.1412","0.38909","0.66726","0.35519"
"-18.368","9.4921","-7.984","-1.3115","-0.88795","2.7325","0.48462","0.61171","0.34283"
"-21.729","4.8445","-5.2966","-1.5276","-1.0067","3.4132","0.60367","0.51126","0.32967"
"-16.19","-7.4757","-3.6002","-2.8175","-1.3039","2.9068","0.70857","0.36812","0.32057"
"-8.2096","-10.157","-3.7864","-2.0878","-1.0573","2.1036","0.77172","0.2394","0.29951"
"-3.4695","-13.776","-6.9957","-0.60832","-0.66375","1.0586","0.80512","0.16121","0.27523"
"0.83009","-15.458","-3.9318","1.1308","-0.2136","-0.14292","0.81076","0.154","0.26215"
"-1.6287","-8.4366","-2.4902","0.39442","0.11664","-1.8593","0.78497","0.22583","0.26768"
"-11.311","-0.74725","-5.2328","0.48807","1.0605","-2.7085","0.73076","0.33002","0.30646"
"-29.48","1.1582","-4.6083","1.1493","0.71564","-3.2035","0.64113","0.45296","0.34244"
"-28.797","11.138","-5.3991","0.89819","1.4731","-2.8757","0.53592","0.54978","0.36606"
"-20.706","8.9769","-0.64386","0.91441","1.3311","-2.6821","0.43464","0.60417","0.39949"
"-12.124","11.135","1.016","2.4383","0.53521","-1.6115","0.36705","0.65748","0.38094"
"-1.3192","13.761","0.29426","1.6595","-0.3712","-0.15537","0.35894","0.69276","0.32218"
"0.74199","6.4897","6.9211","-0.28275","0.20045","0.94529","0.38683","0.68595","0.3025"
"-2.5787","-6.3697","-4.8315","-0.76729","0.98296","1.2647","0.41751","0.66372","0.32353"
"-6.7123","-18.275","-6.2483","0.023713","0.38271","0.3168","0.42946","0.64592","0.34189"
"-3.0539","-5.4438","-1.9235","1.7424","0.40428","-0.84894","0.39617","0.6812","0.31655"
"-12.16","20.311","11.021","1.8015","-0.31436","-1.0243","0.35311","0.71181","0.30226"
"-16.537","16.655","-1.494","-1.89","-0.52097","1.8969","0.37554","0.69054","0.32328"
"-17.811","10.692","-7.822","-1.1175","-0.79611","2.2873","0.46134","0.63707","0.31999"
"-19.934","5.1993","-8.7392","-1.2995","-0.72751","3.3657","0.57246","0.55163","0.31187"
"-20.941","-5.3036","-1.03","-2.7805","-1.1551","3.0681","0.68018","0.42481","0.30613"
"-9.7047","-9.5222","-1.6882","-2.066","-1.2403","2.3382","0.75739","0.28883","0.28884"
"-4.649","-10.65","-8.3893","-0.84018","-0.56893","1.4238","0.79762","0.19649","0.26637"
"-0.10341","-17.157","-5.9244","0.38463","-0.19789","0.21675","0.8094","0.166","0.25843"
"0.14529","-9.3873","-2.149","1.1329","-0.072959","-1.5104","0.79429","0.21893","0.25391"
"-5.8385","-4.1902","-2.1016","0.14238","0.51556","-2.5218","0.74812","0.31437","0.27759"
"-21.563","-1.2365","-9.7254","1.8979","1.1488","-2.7936","0.66867","0.43372","0.31396"
"-28.075","9.0488","-7.0884","1.1798","0.9832","-3.0825","0.56834","0.54858","0.32586"
"-25.493","9.7051","-1.679","0.57498","1.5068","-2.7766","0.45816","0.6193","0.364"
"-14.432","9.8175","2.6619","1.5314","0.82469","-2.1308","0.3745","0.67772","0.36117"
"-7.9771","13.893","1.4073","2.1945","0.35507","-0.3659","0.34026","0.71616","0.31809"
"3.2441","19.555","-0.6141","-0.61454","-0.49943","0.62492","0.3711","0.72021","0.27907"
"-1.2766","-4.1817","-2.0843","-2.084","1.2448","1.5404","0.41515","0.67832","0.32106"
"-7.8122","-15.387","-1.941","-0.20983","0.35448","1.479","0.43664","0.64815","0.35123"
"-4.8204","-9.1106","-2.023","1.6224","-0.37393","-0.82667","0.43143","0.67781","0.3074"
"-23.402","2.5346","3.8504","2.3751","0.41685","-1.6646","0.36188","0.74345","0.2591"
"-6.6983","31.125","0.22778","-3.2685","-0.35183","0.48089","0.31547","0.75087","0.29264"
"-19.982","10.637","-6.2899","-0.68216","-0.82594","1.8185","0.38959","0.69849","0.31881"
"-16.891","6.9523","-9.9681","-1.4933","-0.88144","2.7469","0.48213","0.63301","0.32723"
"-20.946","1.9542","-4.3873","-1.4771","-0.8826","3.4381","0.60208","0.53431","0.31022"
"-17.294","-6.5929","-0.37418","-2.5925","-1.3728","2.8674","0.70495","0.39298","0.30115"
"-6.4568","-9.3681","-5.2488","-1.5736","-0.8553","2.0016","0.76978","0.26589","0.27613"
"-1.8463","-14.136","-8.8369","-0.84609","-0.41998","1.1198","0.80097","0.19154","0.26392"
"0.064298","-15.846","-5.1411","1.2569","-0.20661","-0.36444","0.80214","0.18701","0.25555"
"-3.2273","-6.792","-0.68988","0.42652","0.30762","-1.9641","0.77447","0.26471","0.26556"
"-12.55","-2.4974","-5.0941","0.97812","1.045","-2.9172","0.71155","0.37918","0.30706"
"-29.279","3.6166","-2.9398","0.79754","0.64828","-3.4014","0.60791","0.51217","0.33682"
"-29.287","8.9735","-5.2862","0.27678","1.4175","-3.1229","0.49782","0.60163","0.36879"
"-19.95","8.3584","0.054555","0.97379","0.98632","-2.8893","0.39298","0.658","0.39742"
"-11.959","11.229","1.5196","1.9851","0.4097","-1.4395","0.3252","0.70439","0.37156"
"-1.8599","12.731","0.70071","2.1569","-0.21135","0.46705","0.33147","0.73151","0.31341"
"3.1309","10.602","6.8231","-1.1388","-0.28781","1.2739","0.37698","0.71755","0.28992"
"-0.7518","-10.782","-5.8584","-0.9893","1.3019","1.236","0.41334","0.67839","0.32724"
"-9.0538","-21.811","-4.4895","0.58422","0.057604","-0.067225","0.41268","0.67289","0.33899"
"-8.2316","0.7547","1.2182","1.8983","0.9698","-1.3309","0.36247","0.71021","0.33351"
"-7.5753","28.583","12.548","0.43395","-0.42808","-0.92006","0.315","0.72998","0.33679"
"-20.112","11.875","-3.3453","-1.0763","-0.76295","1.9547","0.35792","0.68859","0.36362"
"-17.774","11.865","-10.082","-1.3883","-0.8608","2.5859","0.45396","0.62903","0.36103"
"-20.474","3.0951","-6.5726","-0.97356","-0.88432","3.3498","0.56745","0.54011","0.34655"
"-18.182","-3.8796","-1.7864","-2.6877","-1.2912","3.0033","0.67668","0.41398","0.3236"
"-7.4285","-9.0106","-3.6281","-2.4447","-1.0379","2.3394","0.75553","0.27592","0.30468"
"-4.0613","-9.9072","-5.9419","-1.5571","-0.58586","1.2678","0.79384","0.18194","0.28642"
"-1.8231","-14.973","-6.5303","0.090385","-0.32802","0.45607","0.80443","0.14434","0.27738"
"0.6593","-10.258","-3.6741","0.90085","0.08011","-0.903","0.79497","0.17083","0.27818"
"-5.7878","-4.0182","-4.3639","0.1709","0.8342","-2.1128","0.75657","0.25176","0.31445"
"-25.844","-0.05988","-7.2097","1.5267","0.96395","-3.2261","0.67931","0.36848","0.36925"
"-28.444","6.4681","-3.4484","2.3984","1.1777","-3.1192","0.57799","0.49925","0.38321"
"-25.154","10.962","-2.7606","0.66518","1.2365","-2.9479","0.46804","0.57964","0.41362"
"-16.095","10.593","1.1492","2.6273","1.0576","-2.1439","0.38052","0.63838","0.41622"
"-5.9647","14.201","-1.9495","2.081","0.18883","-0.61371","0.34707","0.69271","0.36134"
"4.7515","18.029","4.2782","0.59466","-0.42231","0.44282","0.37451","0.70493","0.31727"
"-0.55781","-8.4848","5.5962","-0.7354","0.16255","1.0776","0.41395","0.67589","0.31151"
"-10.838","-33.815","-8.6907","-0.53302","1.5699","0.95807","0.43489","0.6322","0.36806"
"-0.60849","1.2393","-2.2825","0.035886","-0.17516","-1.4524","0.39321","0.66363","0.36906"
"-22.194","-0.24942","-4.8775","1.3725","0.77106","-0.55862","0.32099","0.70864","0.36206"
"-9.3449","23.927","2.6813","-0.91927","-0.33825","0.64314","0.30129","0.7226","0.35334"
"-18.305","13.233","-3.3261","-1.1373","-0.74794","1.6728","0.36603","0.67763","0.36169"
"-18.326","7.6493","-8.698","-2.0494","-0.90886","2.4547","0.45759","0.6094","0.36722"
"-19.28","0.95404","-6.857","-1.2836","-0.91153","3.0541","0.57073","0.52222","0.35004"
"-15.615","-4.8325","-1.88","-2.4241","-1.2353","2.8318","0.67661","0.40338","0.33149"
"-8.8379","-9.4807","-4.0417","-1.9785","-1.0739","2.2247","0.75023","0.28042","0.31106"
"-2.649","-15.45","-7.7857","-0.49727","-0.49337","1.316","0.78775","0.19449","0.28905"
"1.5623","-16.484","-4.1164","0.88375","-0.12173","-0.32922","0.79053","0.18684","0.27853"
"-2.907","-7.0875","-2.0599","0.23999","0.26968","-1.9008","0.76471","0.25521","0.28838"
"-12.885","-1.3081","-5.0891","0.73032","1.1876","-2.6496","0.70187","0.35519","0.332"
"-28.669","1.3149","-3.5109","1.0873","0.70235","-2.9063","0.6156","0.46887","0.36136"
"-27.981","11.046","-5.7367","0.5547","1.4204","-2.8385","0.51244","0.55658","0.39145"
"-18.919","8.0455","-1.5575","1.3679","1.1954","-2.7174","0.40829","0.61152","0.41841"
"-12.611","11.623","0.79996","2.4543","0.67721","-1.4259","0.34641","0.66836","0.39334"
"-2.8353","12.253","-0.21355","2.0476","-0.19664","0.22546","0.34351","0.70795","0.3283"
"2.9345","8.4967","8.9731","-0.17123","-0.19691","0.98836","0.38402","0.70576","0.29129"
"-1.0595","-7.5818","-4.1816","-1.0206","0.67268","1.1034","0.42415","0.66984","0.30638"
"-9.2449","-24.292","-4.0661","-0.36267","0.82317","0.37999","0.43489","0.64552","0.34871"
"-8.996","-7.4082","-0.47524","2.1301","0.44556","-0.99518","0.39477","0.67611","0.34181"
