"AccX","AccY","AccZ","GyroX","GyroY","GyroZ","MagX","MagY","MagZ"
"0.06099118898146964","-0.09115809554546571","0.005050311873145261","0.0009202742359841945","-0.005566494008147182","0.0029682629607426965","-1.5842081923309743","0.4958818990635708","0.8703474362544029"
"0.06084772890083375","-0.09100332665160488","0.005662865665821703","0.0007509265814444838","-0.006018587821849213","0.0018703408185407045","-1.5821936377571515","0.4950507611917243","0.8686804046771875"
"0.06077551745084925","-0.09115809554546571","0.005659561262354804","0.0002458681415835839","-0.006084403490863538","-0.001199181563106244","-1.5873930275700883","0.49691092690490435","0.8685496571025039"
"0.06099118898146964","-0.09092542284597023","0.0053600996981670625","0.00014834160716134005","-0.009492219167572506","9.264857901161692e-05","-1.5842722791293116","0.4962249083440153","0.8699061631898459"
"0.06113561188143866","-0.09100436536901334","0.005364849778150729","0.0004099206733264305","-0.006908176337217373","0.0005459904361365774","-1.5847989054286926","0.4970956242097591","0.8687948088050355"
"0.06099118898146964","-0.09115913426287416","0.0056674092205886905","-0.0006348551919748437","-0.008203907362830292","0.0005455050594158868","-1.5862004558445058","0.4965679176244599","0.8692197384227571"
"0.06099118898146964","-0.09115913426287416","0.0056674092205886905","-2.0332122658769844e-05","-0.006928758691890944","-0.0003276876611063871","-1.5875407058445177","0.49672622960004964","0.8702657190202256"
"0.06113561188143866","-0.09115913426287416","0.005518298014144862","6.082766857316659e-05","-0.007983963363469695","0.000541136668929672","-1.5838320306885592","0.4963964129842376","0.8705435576164284"
"0.06099118898146964","-0.09100332665160488","0.005668235321455414","-0.0008175850659466294","-0.008818027387160315","0.002078810120077289","-1.5816586523101612","0.49572358708798087","0.8701840017860485"
"0.06099118898146964","-0.09115809554546571","0.0053588605468669745","0.0001374625366877827","-0.008804624923651944","0.002292618565541471","-1.579981250023244","0.4965943029537248","0.8691216777417445"
"0.06099118898146964","-0.09100332665160488","0.005668235321455414","-0.000283644138102834","-0.005197686931961458","0.0005634639980814367","-1.582232647112661","0.4972803215146139","0.868843839145542"
"0.06099118898146964","-0.09131390315673495","0.00535803444600025","0.0011070476582735855","-0.0071240517315843575","0.00010308417850646336","-1.5812518404598455","0.4970956242097591","0.8707887093189601"
"0.06099118898146964","-0.09115913426287416","0.005975957894310404","0.0009284576075793482","-0.00861866574247329","0.0005331279530382782","-1.5841663965929282","0.4962249083440153","0.8707560224252893"
"0.06099118898146964","-0.09100332665160488","0.005668235321455414","0.0005914952477789004","-0.007798961501113066","-0.0012154416832493773","-1.5814357417072484","0.4969373122341694","0.8693014556569344"
"0.06084772890083375","-0.09100332665160488","0.005662865665821703","-0.0003758755497282138","-0.007548143969742113","0.0009888966937666914","-1.5827620597945786","0.49486606388686954","0.8699551935303523"
"0.06099118898146964","-0.09131390315673495","0.00535803444600025","4.965977321978034e-05","-0.010525884165655659","0.0020623073115738112","-1.582957106572127","0.49779483543528075","0.8690399605075674"
"0.06113561188143866","-0.09115913426287416","0.005364023677284005","0.00023142689759213613","-0.006892141246948429","0.0014254930540278281","-1.583235744825768","0.49658111028909224","0.8694812335721244"
"0.06084676608150063","-0.09115809554546571","0.005662039564954978","0.000581290102024944","-0.00646685236026314","0.000990352823928763","-1.5858549444099912","0.4963964129842376","0.8690072736138964"
"0.06099215180080277","-0.09100436536901334","0.0059767839951771285","0.0009390478531730765","-0.005642122195087278","-0.0007640413330071788","-1.5838905447218237","0.49571039442334847","0.8699225066366815"
"0.06091994035081826","-0.09092542284597023","0.005665963544071922","0.0005791720529061983","-0.007321020079216318","0.001203190515951563","-1.5824304802727462","0.4952090731673141","0.8697427287214914"
"0.06099118898146964","-0.09131390315673495","0.00535803444600025","0.0004023149514909347","-0.0034309550459114837","0.002766588933295779","-1.5831800171750396","0.49658111028909224","0.8699061631898459"
"0.06084676608150063","-0.09115809554546571","0.005662039564954978","-0.0004743648337498875","-0.005565536689325155","0.003637112081854255","-1.581519333183341","0.4972671288499814","0.8716385685544032"
"0.06099118898146964","-0.09115809554546571","0.005513134883727832","0.000929420357178778","-0.008189308250794386","0.0005357975250020761","-1.5809564839109864","0.49590828439283574","0.8699715369771879"
"0.061280034781407665","-0.09115913426287416","0.005060638133979321","0.0007661380251154754","-0.006936656572172663","-0.0009945952753351833","-1.5807280005430009","0.494523054606425","0.8715078209797198"
"0.06084772890083375","-0.09100228793419642","0.005508591328960846","0.0005845634506630055","-0.007771438584979804","0.00010332686686680865","-1.584570422060707","0.4974254408255712","0.8707233355316183"
"0.06099118898146964","-0.09100332665160488","0.005668235321455414","0.00033405600489135826","-0.0060896687443846844","-0.0014219694779032002","-1.5809007562602584","0.497610138130426","0.8707887093189601"
"0.06091897753148514","-0.09115809554546571","0.005356175719050119","5.842079457459189e-05","-0.007110888597781493","0.001207801594798123","-1.5842778518943843","0.4955520824477587","0.8697100418278206"
"0.06084676608150063","-0.09131286443932649","0.005661213464088254","0.0007442836092084178","-0.0077171107418297965","0.0027372236416940013","-1.5860611367176851","0.4963964129842376","0.8702984059138968"
"0.06084772890083375","-0.09108019173983106","0.005662452615388341","0.0013773877457934878","-0.006512564334014907","-0.0016491257831863712","-1.5870085067800637","0.49725393618534897","0.8687621219113647"
"0.06113561188143866","-0.09084855775774406","0.00505712720529574","0.001104351959395182","-0.007759472099704472","0.0005357975250020761","-1.5861085052208042","0.49708243154512666","0.8700695976582005"
"0.06099118898146964","-0.09115809554546571","0.0053588605468669745","0.0001367886119681818","-0.0064319102232591715","0.0029672922073013153","-1.5815416242436322","0.4952222658319466","0.8680430102506052"
"0.06099118898146964","-0.09092542284597023","0.005205825361306206","-0.0011598425485439413","-0.007761626067054032","0.001429618756153698","-1.5827815644723333","0.4972671288499814","0.8703310928075676"
"0.06099118898146964","-0.09131390315673495","0.005666583119721964","-0.0002853770873818078","-0.00863853010803034","0.00010162804834439176","-1.587632656468219","0.4962117156793829","0.8694158597847825"
"0.06084676608150063","-0.09100228793419642","0.005200249180455811","0.00014372040908407674","-0.0055947349133969645","0.0018768934042700267","-1.5876215109380734","0.49758375280116096","0.8698081025088332"
"0.06099118898146964","-0.09100332665160488","0.005668235321455414","0.0005907250480993565","-0.006503230475500148","-0.0007676816584123577","-1.5840744459692266","0.4975969454657935","0.8718020030227578"
"0.061063400431454154","-0.09100436536901334","0.005670713624055588","0.001103678034675581","-0.009698760703424729","8.463986312022307e-05","-1.5838933311043601","0.49518268783804914","0.8727172360455427"
"0.061280034781407665","-0.09100436536901334","0.005061464234846045","-0.0003815557723648499","-0.0073097715830575056","0.002302568788315627","-1.5855150057405494","0.4964096056488701","0.8687948088050355"
"0.06113464906210553","-0.09146763333318732","0.004436725454385411","0.001439773919836542","-0.006844993294963622","0.003174548067036174","-1.584364229753013","0.49501118319782683","0.8718510333632642"
"0.06070330600086475","-0.09092438412856177","0.005812389922698893","0.0024909039324940534","-0.007949978545287752","0.0009699670016597603","-1.5859273903559377","0.49724074352071634","0.8715568513202261"
"0.06099215180080277","-0.09092750028078715","0.00659429439305392","0.00109751643723923","-0.0060171518436161735","0.0018664578047751803","-1.584063300439081","0.4963964129842376","0.8716222251075677"
"0.06099118898146964","-0.09100332665160488","0.005668235321455414","-0.0004510662934436852","-0.008670839618273736","-0.001434589272641154","-1.5886608316241537","0.49724074352071634","0.8702330321265549"
"0.06099118898146964","-0.09146867205059578","0.0053572083451335255","6.28494427319692e-05","-0.006481212142593538","0.0005530283985865901","-1.5825558674868845","0.49691092690490435","0.8720634981721248"
"0.06099118898146964","-0.09115809554546571","0.005513134883727832","0.0009442467010099977","-0.005659353933883756","-0.0016420878207363582","-1.5877636164474302","0.497939954746238","0.8687294350176938"
"0.06099118898146964","-0.09100332665160488","0.005513960984594557","0.0017257105508672078","-0.006081292204691952","-0.001650096536627752","-1.5864512302727822","0.4962249083440153","0.8700695976582005"
"0.06099118898146964","-0.09115913426287416","0.0056674092205886905","0.0009246066091816289","-0.006232548578572145","0.0018662151164148346","-1.5848518466968844","0.4970956242097591","0.868369879187314"
"0.06099118898146964","-0.09115913426287416","0.005975957894310404","-0.0002943306586565054","-0.00796003039291903","0.0018620894142889653","-1.5827564870295059","0.4964096056488701","0.8703474362544029"
"0.06099118898146964","-0.09131390315673495","0.005512308782861108","-0.0009765350248124977","-0.007366492723262578","-0.00032453271242189886","-1.5833611320399061","0.4974254408255712","0.8716058816607326"
"0.06099118898146964","-0.09131286443932649","0.005049485772278535","5.3510771617499666e-05","-0.004720942158592243","0.0027600363475664565","-1.5848518466968844","0.4981114593864603","0.8715568513202261"
"0.06113464906210553","-0.09146867205059578","0.00505382280182884","0.00091690461238619","-0.007493816126592108","0.0031733346252344483","-1.5878862172790322","0.49775525744138327","0.8706579617442767"
"0.06113561188143866","-0.09115913426287416","0.005518298014144862","0.0004086690988471717","-0.007766173331458658","0.0005404086038486361","-1.58669364555345","0.49655472495982733","0.8711319217025044"
"0.06113561188143866","-0.0910054040864218","0.005981947125594159","-0.000639957764851822","-0.005385800080489673","0.002099438630706637","-1.585423055116848","0.49776845010601567","0.8698407894025042"
"0.06099118898146964","-0.09100332665160488","0.005513960984594557","-0.0008029512720352956","-0.004563223882663371","0.00035159705950001786","-1.586395502622054","0.4970692388804942","0.870706992084783"
"0.06077455463151612","-0.0911570568280572","0.005505286925493947","0.0011015599855568356","-0.00947331212083748","0.0005285168741917181","-1.5866156268424305","0.49655472495982733","0.8717856595759224"
"0.06077551745084925","-0.09100124921678795","0.0050432900157781","0.0009212369855836243","-0.005569365964613261","0.0027510568782336815","-1.5853366772582194","0.4967394222646822","0.8702984059138968"
"0.06098733770413713","-0.09132013546118574","0.00538901322850243","0.002323963151952917","-0.006483126780237591","-0.0012113159811235074","-1.5864233664474183","0.4970428535512291","0.8706906486379473"
"0.06077070335418362","-0.0912422316555511","0.005690333519640303","0.0007507340315245977","-0.0038780229357978768","0.0010134082181615634","-1.5850886892124791","0.49548611912459634","0.8722596195341503"
"0.060843877623501255","-0.09101059767346409","0.006002806172478961","0.0019666867756044995","-0.00796098771174106","9.920116474093898e-05","-1.5843586569879402","0.49651514696592985","0.8724557408961757"
"0.06113176060410615","-0.09116640528473338","0.005395208985002867","5.716922009533317e-05","-0.006907458348100854","0.00011497590816338159","-1.584364229753013","0.4965415322951949","0.8694485466784535"
"0.061059549154121644","-0.09116536656732492","0.0050839754834642965","0.00022237705135749554","-0.009457037700863027","0.0011951818000601692","-1.58658497663453","0.4979003767523405","0.8695956376999725"
"0.061059549154121644","-0.09116536656732492","0.0050839754834642965","0.0004020261266111057","-0.007538092122110835","0.0005484173197400301","-1.5852363674869085","0.4985863953132297","0.8717529726822515"
"0.06134839495405967","-0.09116640528473338","0.004940233932654179","0.0007525632557635145","-0.007331311256553103","0.00010526837374957084","-1.5842834246594573","0.4982565786974177","0.870494527275922"
"0.06098830052347026","-0.09101059767346409","0.005699420629174275","6.063511865328059e-05","-0.0056284804018734","-0.0003138544245667071","-1.58959426977385","0.49754417480726354","0.8689092129328838"
"0.06091608907348575","-0.09100955895605563","0.005388187127635704","0.0005646345339548075","-0.004694376561281007","0.003202214540115535","-1.585581878921423","0.49788718408770816","0.8717529726822515"
"0.06098733770413713","-0.09124327037295957","0.005389632804152474","-0.00011718473236141292","-0.0053975272360594975","0.0005671043234866158","-1.5865598991917023","0.4961853303501178","0.8694158597847825"
"0.060843877623501255","-0.09100955895605563","0.005539776636679708","-0.0004905390270203092","-0.008967129793690949","0.00449792769599892","-1.5853784729962654","0.4980718813925628","0.8704781838290866"
"0.060842914804168126","-0.09116432784991646","0.005384676198952125","0.00109751643723923","-0.007749420252073193","0.0003256294049430741","-1.5852502993995907","0.49910090923389655","0.871736629235416"
"0.060843877623501255","-0.09116536656732492","0.00569322487267384","-0.0009855848710471384","-0.006485998736703671","0.0001275957029013355","-1.5896722884848697","0.4977024867828533","0.8712626692771881"
"0.060842914804168126","-0.09116432784991646","0.005384676198952125","0.00013919548596675642","-0.006886875993427283","0.000995934656216704","-1.581179394513899","0.4970692388804942","0.8686477177835166"
"0.06098733770413713","-0.09116536656732492","0.005390045854585836","0.0004088616487670577","-0.005410451040156856","-0.0003143398012873975","-1.5853924049089476","0.4966998442707847","0.8700695976582005"
"0.06098733770413713","-0.09116536656732492","0.005698594528307552","0.0006689965905330034","-0.0064852807475871506","-0.0005427095483722945","-1.5827425551168237","0.49774206477675076","0.8709521437873146"
"0.06098830052347026","-0.09085479006219481","0.005545972393180143","0.0003979825782935004","-0.006447945313528116","0.0014344725233606033","-1.586504171540974","0.49875789995345193","0.8704291534885802"
"0.06098733770413713","-0.09116536656732492","0.005544320191446693","-0.001852925985173491","-0.007361706129152446","-0.0003136117362063616","-1.5861085052208042","0.4996154231545633","0.8708540831063019"
"0.06127618350407517","-0.09116640528473338","0.005091823441698181","4.01285521854248e-05","-0.008781409942217799","0.002954429724203016","-1.5853338908756829","0.4965283396305624","0.8705108707227573"
"0.06091608907348575","-0.09100955895605563","0.005388187127635704","0.0006494527736645774","-0.006409652560647055","0.0031900801220982717","-1.585743489108535","0.4961853303501178","0.8700859411050359"
"0.061059549154121644","-0.09101059767346409","0.005239075921191878","0.0010992493865182038","-0.00560143614515115","0.0005571541007124597","-1.5847933326636197","0.4970296608865967","0.8720144678316186"
"0.06098830052347026","-0.09101059767346409","0.005699420629174275","0.0007511191313643698","-0.005604547431322737","0.0005600663610366029","-1.5863230566761075","0.49705604621586175","0.8685496571025039"
"0.06098733770413713","-0.09116536656732492","0.005544320191446693","0.0009253768088611727","-0.005388193377544739","0.0005605517377572935","-1.5879001491917144","0.49720116552681903","0.8706579617442767"
"0.06098733770413713","-0.09116536656732492","0.005390045854585836","0.00039981180253241707","-0.009039407364753952","0.0005391951620469098","-1.5861029324557314","0.4970164682219642","0.873272913237948"
"0.06098830052347026","-0.09101059767346409","0.005699420629174275","-0.0002799856896250006","-0.005657917955650716","-0.001628982649277714","-1.5843419386927218","0.49771567944748585","0.8728643270670619"
"0.06098733770413713","-0.09116432784991646","0.005081497180864121","0.0007609391772785541","-0.003914401051034884","-0.000745354329260593","-1.584411598256132","0.4965283396305624","0.872030811278454"
"0.06098733770413713","-0.09116536656732492","0.005390045854585836","0.0009315384062975238","-0.00821180524311201","-0.0012147136181683412","-1.585381259378802","0.49721435819145143","0.8702820624670613"
"0.06098830052347026","-0.09101059767346409","0.005699420629174275","0.0011019450853966073","-0.007768327298808218","-0.0005541159013085221","-1.585450918942212","0.496871348911007","0.8696446680404788"
"0.06098830052347026","-0.09101059767346409","0.005545146292313418","-2.8611769213866578e-05","-0.011652887748886398","-0.0012321871801132007","-1.5872648539734135","0.4979003767523405","0.8700205673176941"
"0.06098733770413713","-0.09100955895605563","0.005082323281730846","0.0004042404506897944","-0.009485757265523824","-0.00034224896272710303","-1.5875657832873455","0.49651514696592985","0.8702493755733903"
"0.06098733770413713","-0.09116432784991646","0.005081497180864121","0.0005813863769848869","-0.0047563629550072236","0.00012808107962202612","-1.5864484438902458","0.49875789995345193","0.8708704265531374"
"0.06098733770413713","-0.09116536656732492","0.005698594528307552","0.0002220882264776666","-0.005149342331449118","0.0021033216444721614","-1.5845537037654889","0.4985863953132297","0.8713280430645298"
"0.06098733770413713","-0.09116536656732492","0.005235771517724979","-2.5145870655919154e-05","-0.009078418106751533","-0.001214470929807996","-1.5865933357821391","0.4992592212094863","0.8727826098328846"
"0.06098733770413713","-0.09147594307245503","0.005388393652852387","0.00178318670195317","-0.009000157293050865","0.001848256177749285","-1.5856738295451245","0.49738586283167374","0.8709031134468083"
"0.060699454723532234","-0.090931655150421","0.0056893008935568964","-0.000471765409831427","-0.007745351647079579","0.0012148395572481358","-1.5895218238279036","0.49874470728881953","0.8697427287214914"
"0.060771666173516745","-0.09116432784991646","0.005690746570073665","0.00012003676893810235","-0.007893018075377173","0.004282905808733013","-1.5838348170710954","0.49738586283167374","0.8709521437873146"
"0.061059549154121644","-0.09116536656732492","0.005392524157186011","0.0003845040839014824","-0.008120381295608476","0.0036176970130266336","-1.583926767694797","0.49859958797786214","0.870494527275922"
"0.0606262804542146","-0.09147282692022961","0.004758078691541361","0.0005794608777860272","-0.004530196383303456","0.0005729288441349021","-1.5845007624972969","0.4985863953132297","0.871769316129087"
"0.06055599464289635","-0.09070002116833402","0.006611022935605098","-2.6108620255348965e-05","-0.008218506474866195","-0.0012040353303131497","-1.5839490587550884","0.49757056013652845","0.8700859411050359"
"0.06257406396513003","-0.09156215661735735","0.006062491960099828","-0.0009983894407195554","-0.008170879863470376","0.0022921331888207798","-1.587632656468219","0.4979003767523405","0.8700042238708586"
"0.061058586334788514","-0.09131805802636883","0.003694680350849855","-0.0008197031150653752","-0.007307378286002439","0.0018744665206665739","-1.5886329677987894","0.49720116552681903","0.870641618297441"
"0.05904147983188796","-0.09053486510038856","0.005477199496025303","0.001801190119462508","-0.00432006490186863","-0.0007329772228829846","-1.5863342022062532","0.49754417480726354","0.8715405078733905"
"0.06113272342343928","-0.09093581002005487","0.006630642831189812","-0.0004925608011791117","-0.009827998744398311","0.0044887055383058","-1.58658497663453","0.4979003767523405","0.8695956376999725"
"0.06242771542649476","-0.09179067444721895","0.003587493763392311","-0.0018716033274024301","-0.008149340189974779","0.003616240882864562","-1.582491780688547","0.49738586283167374","0.8728970139607327"
"0.060841951984835","-0.09147282692022961","0.004457377976053532","0.0036952074064208543","-0.0016527353339971902","0.003643664667583577","-1.5842026195659014","0.4982433860327851","0.8711319217025044"
"0.060701380362198486","-0.09054836842669857","0.008468448776870818","0.0021485501749367985","-0.00649389661698539","-0.001646456211222573","-1.5850580390045785","0.49962861581919576","0.8704454969354157"
"0.06098733770413713","-0.09116640528473338","0.006007143202029266","-0.003410269737211218","-0.007188192092660136","-0.0016197604915845934","-1.5840939506469813","0.49910090923389655","0.8721942457468085"
"0.06076974053485049","-0.09147178820282116","0.003529047127071532","-0.0007338258507962323","-0.008162263994072137","0.0018715542603424309","-1.5854787827675763","0.49805868872793047","0.8726191753645302"
"0.060771666173516745","-0.09116432784991646","0.005536472233212808","0.0014418919689552876","-0.007303549010714333","0.000985984433442548","-1.589354640875719","0.4966734589415197","0.870641618297441"
"0.06098830052347026","-0.09085582877960327","0.006163069740623573","-0.00012536810395656658","-0.009464935581144748","0.0009784610942718448","-1.589204176218753","0.4970164682219642","0.8719327505974415"
"0.06098733770413713","-0.09116432784991646","0.004772948507142406","0.0006437725510279413","-0.005954208131067929","0.004509576737295493","-1.585874449087746","0.49805868872793047","0.8723903671088339"
"0.06098733770413713","-0.09116536656732492","0.005235771517724979","0.0019717893484814774","-0.006468527668201686","-0.0003313279865115662","-1.5846818773621636","0.4985732026485972","0.8732565697911124"
"0.06127618350407517","-0.09101267510828101","0.00601829556373005","0.000742935759769216","-0.00643837212530785","0.0018683993116579423","-1.5831215031417754","0.49894259725830675","0.8711319217025044"
"0.061203009234757536","-0.09116432784991646","0.004317766929577039","-0.0013443053717947012","-0.007519185075375812","0.002313732452891509","-1.586922128921435","0.4980454960632979","0.87279895327972"
"0.06113176060410615","-0.09116432784991646","0.004315288626976865","0.0002052401084876442","-0.005941284326970571","0.005388593978466053","-1.5838877583392872","0.4984016980083749","0.873714186302505"
"0.060699454723532234","-0.09116432784991646","0.00568806174225681","0.001453348689188503","-0.007347346346822047","-0.0012086464091597097","-1.58647630771561","0.4989030192644092","0.8736488125151634"
"0.060699454723532234","-0.09100955895605563","0.006151710853706107","0.0005739732050692771","-0.007749420252073193","0.000550116138262447","-1.5862561834952338","0.4985732026485972","0.8723740236619985"
"0.060771666173516745","-0.09100955895605563","0.00569157267094039","-0.0006567096078819013","-0.008351334461422378","0.0031869251734137826","-1.583093639316411","0.4982301933681526","0.8741554593670621"
"0.06098733770413713","-0.09116432784991646","0.005081497180864121","-0.0011754390920547051","-0.006855523802005914","0.00319784614962932","-1.591165789524384","0.5002750563861874","0.8716058816607326"
"0.06185291228461808","-0.09132429033081958","0.004803307713994544","-0.00046396713807604525","-0.007775028530562402","0.00010429762030818964","-1.5882651653039839","0.49735947750240883","0.8736488125151634"
"0.06098733770413713","-0.09131909674377728","0.0047721224062756825","0.0007370629872126939","-0.007485678916604882","0.0029621957517340647","-1.5882707380690566","0.4966602662768872","0.8734526911531377"
"0.06005051449300481","-0.09092750028078715","0.005202934008272668","0.0007432245846490449","-0.004275070917233383","0.002335817093682928","-1.5869555655118721","0.4982301933681526","0.8725864884708593"
"0.06055599464289635","-0.09085479006219481","0.006301648161016658","-0.00012479045419690868","-0.010543355234157642","0.0005370109668038025","-1.5891233711251973","0.4970164682219642","0.8725701450240236"
"0.061708489384649075","-0.09101371382568947","0.005416894132754393","-0.0013366033749992623","-0.008202471384597251","0.0005472038779383037","-1.586208814992115","0.49874470728881953","0.87279895327972"
"0.06156406648468007","-0.09116640528473338","0.004485258880305494","-0.0002770974408267112","-0.004803271577286525","-0.0016297107143587496","-1.584514694409979","0.49753098214263114","0.8743679241759228"
"0.06098830052347026","-0.09070002116833402","0.005701072830907725","0.0007588211281598085","-0.008866132657967148","-0.0016573771874381102","-1.5883543295451488","0.49856000998396466","0.8731911960037707"
"0.0602661860236252","-0.09100644280383026","0.005364643252934048","-2.716764481472186e-05","-0.004327962782150349","0.00014264238124274222","-1.5873177952416053","0.4989030192644092","0.8727826098328846"
"0.06134743213472654","-0.09124327037295957","0.00478554654535996","-0.000632544592936212","-0.00607004370853314","-0.0005359142742826271","-1.5931552666553792","0.49836212001447744","0.8728970139607327"
"0.06120397205409066","-0.0913211741785942","0.0050883125130146015","0.000742935759769216","-0.007295172471021601","0.0018635455444510369","-1.5859970499193479","0.496871348911007","0.8711319217025044"
"0.060700417542865356","-0.09070002116833402","0.006153363055439556","0.00038575565838074125","-0.007050098852582808","0.0034092277114900487","-1.5887082001272723","0.4980454960632979","0.8732075394506061"
"0.060699454723532234","-0.09085479006219481","0.0059982626177119735","-0.0009886656697653143","-0.008630392898043113","0.00011449053144269098","-1.5849410109380495","0.49771567944748585","0.8739266511113659"
