"AccX","AccY","AccZ","GyroX","GyroY","GyroZ","MagX","MagY","MagZ"
"0.063796844518201","0.09931567051381948","-0.009096252419083664","0.0026595776623141634","-0.006851455197012301","-0.001523170524167177","-2.4307892256026347","-0.9697044076235661","-0.7444831717687236"
"0.06386809314885239","0.09924088286041022","-0.010332512366137334","0.0005853336503425494","-0.006844753965258115","0.0010449577050064482","-2.4283929366213237","-0.9701001875625407","-0.7431593525750525"
"0.06365531007623138","0.09900405529128091","-0.009101622074717377","-4.3438113045086326e-05","-0.004315517637464005","-0.005361772319748281","-2.428476528097416","-0.9704036188490879","-0.7442216766193566"
"0.06351088717626235","0.09900301657387245","-0.009262918268945394","0.0008405585691514028","-0.0076836045830588695","0.0010388904959978164","-2.426888290051664","-0.9696120589711388","-0.7431103222345462"
"0.06365531007623138","0.0989251127682378","-0.008791627724478892","0.0004240730924380493","-0.006420661727100359","-0.00023740759105794746","-2.4315415488874645","-0.96871495777613","-0.7440909290446729"
"0.06379877015686726","0.09900405529128091","-0.009095426318216939","0.0010823049935682384","-0.007686715869230455","0.0027520276316750627","-2.426163830592198","-0.9686094164590701","-0.7430939787877107"
"0.06328751309097695","0.09899574555201324","-0.009111328759901394","0.0010998270362778618","-0.006021938437726307","0.00022030265655322774","-2.4270276091784844","-0.9701529582210705","-0.7428651705320145"
"0.0633577989022952","0.09915259188069094","-0.00941863828232302","0.0003272204827354063","-0.009390982702143197","0.0001967618855997368","-2.4270276091784844","-0.9711424080685067","-0.743290100149736"
"0.06364664470223325","0.09915259188069094","-0.008786258068845183","-0.00010380251292933798","-0.007285838612506842","0.0006399108315901961","-2.4282814813198677","-0.9694273616662841","-0.7441726462788503"
"0.06364568188290011","0.0991546693155079","-0.00971603459434395","0.0015276729582644876","-0.006870362243747326","0.00021447813590494137","-2.4313465021099163","-0.9677518932579587","-0.7434045042775841"
"0.06350318462159735","0.0989967842694217","-0.009257135562878322","0.0006041072675314315","-0.0072882319095619085","-0.0019306442811868817","-2.4270554730038483","-0.969150315709002","-0.7424402409142928"
"0.06357539607158186","0.09899574555201324","-0.008479155071640236","0.001298923653439955","-0.001814043555508662","-0.0027480186788297447","-2.428699438700329","-0.9680949025384034","-0.7437640601079639"
"0.06379010478286912","0.09907676550987325","-0.009399844487605028","0.0009264358334205456","-0.004341843905069734","0.0006600539654988532","-2.4322381445215666","-0.9685302604712752","-0.7455618392598631"
"0.06364664470223325","0.09899782298683016","-0.009405833718888788","0.0008234216262815515","-0.0058134822642300285","0.002576806635505779","-2.430510587348994","-0.9712743347148316","-0.7437967470016349"
"0.06335876172162834","0.09915155316328247","-0.008643755669335155","0.0002533775884591367","-0.0068631823525821265","-0.0010698286670422163","-2.428476528097416","-0.9706674721417374","-0.7418355333813813"
"0.06364760752156637","0.09899574555201324","-0.008476057193390016","0.0009185412867052207","-0.00602457106448688","0.0012910437023965497","-2.4271112006545765","-0.969123930379737","-0.7435025649585968"
"0.06350222180226422","0.09915259188069094","-0.008947554263073199","0.0004030851511704786","-0.0013863613717683065","0.001966688097597776","-2.4278077962886786","-0.9693218203492242","-0.7424565843611282"
"0.06364664470223325","0.0989967842694217","-0.008786051543628501","0.0014537337890282748","-0.004764021505583437","-0.0010557527421421909","-2.4341607484716876","-0.9699814535808484","-0.7413615734231533"
"0.06364664470223325","0.09915259188069094","-0.008786258068845183","0.00077499532143023","-0.0034979673634533415","-0.0016886839859226494","-2.4268325624009357","-0.9692558570260618","-0.7447773538117618"
"0.0635734704329156","0.09915363059809944","-0.009254244209844782","0.00024413519230461015","-0.008129475824417729","-8.55246725235976e-06","-2.427278383606761","-0.969374591007754","-0.7405444010813811"
"0.06364664470223325","0.09899782298683016","-0.009405833718888788","-0.0009558359084247559","-0.008969044431335001","0.00019846070412215367","-2.429674672588072","-0.9696384443004038","-0.7422931498927737"
"0.06364568188290011","0.09915363059809944","-0.009096252419083664","-0.00027420919202842157","-0.006864139671404153","0.0006428230919143393","-2.431318638284552","-0.9680949025384034","-0.7431920394687234"
"0.06350222180226422","0.09915259188069094","-0.009257342088095","-0.00012286495499804905","-0.003912247083685326","0.0032335213386000742","-2.424464137244989","-0.9696252516357713","-0.7438621207889765"
"0.06357635889091498","0.09883993794074394","-0.00847874202120687","0.000406551049728426","-0.0018087783019875166","0.0015342174394625083","-2.4283093451452316","-0.9685962237944378","-0.7439601814699893"
"0.06379010478286912","0.09915363059809944","-0.008935162750072327","0.0019234593185900992","-0.003921341612494577","0.00409021125061887","-2.4305663149997216","-0.9712347567209343","-0.744859071045939"
"0.06342904753294659","0.09923153440373404","-0.009725534754311285","0.001207847541333891","-0.00855380739228099","-0.0025810490869122003","-2.4281421621930472","-0.9699946462454807","-0.742260462999103"
"0.06335972454096146","0.09899574555201324","-0.008798443056629374","-0.00043903192345081207","-0.005596410221335511","8.921094692499323e-06","-2.4257737370371006","-0.9705355454954127","-0.7413452299763178"
"0.06350318462159735","0.09899574555201324","-0.008482252949890454","0.0009351968547753573","-0.006024092405075867","-0.0006361445671052223","-2.4293403066837023","-0.9688073064285574","-0.7422931498927737"
"0.06335972454096146","0.09899574555201324","-0.008798443056629374","0.0007719145227120544","-0.005811806956291482","-0.0014913783489619468","-2.4323217359976588","-0.9684774898127452","-0.7415250078915078"
"0.063789141963536","0.09923153440373404","-0.009090263187799909","0.0014977314457222193","-0.008555243370514031","0.0034152949204986796","-2.4278077962886786","-0.9701397655564381","-0.7428815139788498"
"0.06393260204417188","0.09915570803291636","-0.009703643081343078","-0.0006139635256672158","-0.0018106929396315698","0.0008920640379889294","-2.430036902317805","-0.9699814535808484","-0.7420970285307485"
"0.0632133760023262","0.09915363059809944","-0.010354404039105543","-0.0002632338465949213","-0.004332031387143962","-0.00019639325815959722","-2.426191694417562","-0.9700210315747457","-0.7415576947851787"
"0.06364664470223325","0.09915155316328247","-0.008476470243823381","-0.0008687070696763545","-0.004334185354493521","0.00023267976293083636","-2.4292845790329745","-0.9689920037334122","-0.7416557554661913"
"0.06364664470223325","0.09899782298683016","-0.009095839368650303","0.0012065959668546321","-0.007292061184850015","-0.0023587465488359347","-2.428671574874965","-0.9694273616662841","-0.7441889897256855"
"0.06328847591031009","0.09883993794074394","-0.008801127884446227","0.0004335080385124618","-0.00602098111890428","-0.0019219075002144526","-2.4293681705090666","-0.969123930379737","-0.7429305443193561"
"0.06364857034089949","0.09883993794074394","-0.008165856317934851","0.0010952058382005985","-0.006025528383308906","0.0006479195474815898","-2.4278913877647708","-0.9697703709467287","-0.7439438380231538"
"0.06393356486350502","0.09915570803291636","-0.009548749168832176","0.00127360333897495","-0.0026595954050636014","0.0002440861158670642","-2.4278077962886786","-0.9679893612213434","-0.7418355333813813"
"0.06364568188290011","0.09915363059809944","-0.009406246769322146","0.0007734549220711422","-0.004340886586247707","-0.0014809427494671002","-2.4310678638562755","-0.9721714359098405","-0.7416884423598623"
"0.06328655027164383","0.09915155316328247","-0.009111741810334752","0.0011791576032708813","-0.003914879710445898","0.0010925246236341206","-2.431597276538193","-0.9697967562759935","-0.7425709884889764"
"0.06350414744093047","0.09883993794074394","-0.008481839899457088","0.0021280436084689424","-0.008977181641322227","-0.0002293988751665536","-2.429618944937343","-0.969836334269891","-0.7414432906573306"
"0.06364568188290011","0.09907572679246479","-0.009406040244105466","0.0015550150468882952","-0.0043442372021248","-0.0027659776174952947","-2.4328232848542117","-0.969915490257686","-0.7438784642358122"
"0.06378817914420287","0.09931151564418564","-0.010020039713298678","0.0002505856146207902","-0.00518332714963106","-0.00041578353591171927","-2.4318201871411054","-0.9700210315747457","-0.7404463404003684"
"0.06364568188290011","0.0991546693155079","-0.00971603459434395","0.00023980281910717586","-0.004759234911473304","0.0008714355273595817","-2.4278077962886786","-0.9689920037334122","-0.7422441195522674"
"0.06350414744093047","0.09891784174637859","-0.008636940337184672","0.0008505711649854733","-0.005181412511987007","-0.0006308054231776265","-2.429786127889528","-0.9674484619714115","-0.7429468877661918"
"0.06350414744093047","0.09883993794074394","-0.008481839899457088","0.0004269613412363389","-0.004337535970370615","-0.0010535685468990835","-2.4271112006545765","-0.968635801788335","-0.7430776353408752"
"0.06357443325224874","0.0989967842694217","-0.00909893724690052","0.001452771039428845","-0.006659273443490474","-0.001069343290321526","-2.431653004188921","-0.9689392330748822","-0.7429959181066981"
"0.06364664470223325","0.09891991918119551","-0.009405627193672106","0.000781156918866581","-0.004762824857055903","-0.00234151567525142","-2.4301762214446248","-0.9689260404102498","-0.743584282192774"
"0.0633577989022952","0.09899782298683016","-0.01003800740714994","0.00042099229371987375","-0.0022290412648571668","3.221917728564519e-05","-2.4270276091784844","-0.9699814535808484","-0.7426527057231536"
"0.06379010478286912","0.09907676550987325","-0.009399844487605028","0.0009389515782131336","-0.0022359818263168584","-0.0006099342241879336","-2.428002843066227","-0.9690579670565745","-0.7397108852927732"
"0.06350318462159735","0.09899574555201324","-0.008792247300128937","-0.0004576129907198082","-0.008546388171410286","0.001915238165204579","-2.4256901455610085","-0.9694273616662841","-0.7394330466965707"
"0.06335876172162834","0.09915155316328247","-0.009108643932084534","0.0007893402904617348","-0.0072879925798564026","-0.0036428106634227475","-2.4326839657273918","-0.9696516369650362","-0.7415250078915078"
"0.06357539607158186","0.0989967842694217","-0.008789149421878719","0.0002475048159026147","-0.0030731571361790654","2.6637344997704127e-05","-2.4314858212367363","-0.9700078389101132","-0.7410673913801155"
"0.06364664470223325","0.09899782298683016","-0.009095839368650303","0.0004945463631163144","-0.004338493289192641","0.0010883989215082512","-2.427306247432125","-0.9690315817273094","-0.7407568658902417"
"0.06379010478286912","0.0989988617042386","-0.009709425787410153","0.0005241990507787537","-0.0026572021080085353","-0.0021124178630854873","-2.428086434542319","-0.9696780222943012","-0.7414106037636596"
"0.06357443325224874","0.0989988617042386","-0.009873819859888385","-9.119049317680693e-05","-0.002651458195076376","-0.0001852295935837149","-2.428058570716955","-0.9700342242393782","-0.7409856741459382"
"0.06364664470223325","0.09899782298683016","-0.009250939806377886","0.0005963089957760497","-0.002654569481247962","-0.0006130891728724224","-2.4277799324633147","-0.9703244628612929","-0.7424565843611282"
"0.06364664470223325","0.09899782298683016","-0.009095839368650303","-0.0001049578124486537","-0.004968409074086102","0.001083787842661691","-2.425857328513193","-0.9691767010382668","-0.7419826244029002"
"0.06350222180226422","0.09915259188069094","-0.009102448175584098","-0.00027488311674802245","-0.002648825568315803","0.001101018716246205","-2.4289223493032415","-0.9703112701966604","-0.7424892712547991"
"0.06350222180226422","0.09915259188069094","-0.009257342088095","0.0014357303715189366","0.0007166287505184874","0.0015533898199297845","-2.4282257536691394","-0.9691371230443694","-0.7428978574256853"
"0.06364471906356699","0.0991546693155079","-0.00987092850685485","0.0004249395670775362","-0.006235659864743731","-0.0008521372078125112","-2.4285601195735085","-0.9684906824773778","-0.7418518768282167"
"0.06364568188290011","0.09915363059809944","-0.009406246769322146","0.0009434765013304539","-0.008555004040808525","-0.0017248445516140948","-2.4277799324633147","-0.9698231416052585","-0.7422441195522674"
"0.06357539607158186","0.0989967842694217","-0.008789149421878719","-0.0009699883275363748","-0.006860310396116047","0.0019268872065011516","-2.4285601195735085","-0.9688204990931898","-0.7422768064459384"
"0.06335972454096146","0.09899470683460478","-0.00848844870639089","0.0007385071116118386","-0.0055985641886850705","0.0023649396969243606","-2.427668477161858","-0.9702057288796004","-0.7409693306991026"
"0.06364568188290011","0.09915363059809944","-0.009096252419083664","0.0009298054570185501","-0.0039189483154395115","0.00023559202325497975","-2.429396034334431","-0.9689392330748822","-0.7433554739370778"
"0.063789141963536","0.0991546693155079","-0.00940005101282171","0.0021521123484546886","-0.006875866826973978","-0.002783451179440154","-2.429061668430062","-0.9682664071786256","-0.7435679387459387"
"0.0635012589829311","0.09930943820936869","-0.009412649051039263","0.0007623833016776989","-0.003917033677795458","-0.00019202486767338245","-2.4266653794487514","-0.9686621871176001","-0.7422114326585966"
"0.06335876172162834","0.0989967842694217","-0.00957311914440056","-0.00016455201265336161","-0.005598803518390577","-0.0019187525515299633","-2.425940919989285","-0.9673297279897193","-0.7419989678497357"
"0.06335876172162834","0.09915155316328247","-0.008798649581846054","0.0009210444356637384","-0.005178779885226434","0.0010835451543013458","-2.4304827235236295","-0.9681344805323008","-0.7423258367864447"
"0.06357443325224874","0.09915259188069094","-0.0087893559470954","-9.947013973190357e-05","-0.00644268006000697","0.00021763308458942987","-2.431262910633824","-0.9677914712518562","-0.7421297154244193"
"0.0638613534135205","0.09907780422728171","-0.009706534434376612","0.0012890073325658273","-0.004977503602895355","-0.001700090338858877","-2.426191694417562","-0.9683719484956854","-0.7409366438054317"
"0.06364664470223325","0.09899782298683016","-0.009405833718888788","0.0005029222846313541","-0.003496531385220302","0.00023753353013774173","-2.426191694417562","-0.9708521694465921","-0.7417701595940395"
"0.06328558745231071","0.09922945696891712","-0.009266842248062337","0.0006118092643268702","-0.0060221777674318135","-0.002776898593710831","-2.4315136850621006","-0.9703244628612929","-0.7414923209978369"
"0.06364664470223325","0.09915259188069094","-0.008631364156334281","-0.0002666034701929257","-0.005600478826329124","-0.00020464466241133637","-2.42925671520761","-0.9680157465506084","-0.7410183610396089"
"0.0635734704329156","0.09915363059809944","-0.009254244209844782","-9.571541629412716e-05","-0.007285838612506842","-0.0002167790804285999","-2.4255786902595524","-0.9693086276845917","-0.7432574132560651"
"0.06350222180226422","0.09915259188069094","-0.009102448175584098","0.0007633460512771287","-0.0024422840324635777","-0.0001823173332595715","-2.4263031497190184","-0.9681608658615658","-0.7422114326585966"
"0.06350318462159735","0.09891784174637859","-0.008792040774912257","0.000245194216863983","-0.003914879710445898","0.00023462126981359875","-2.426526060321931","-0.9680553245445058","-0.7401031280168239"
"0.06364760752156637","0.0988409766581524","-0.008940532405706038","0.00014911180684088385","-0.00897191638780108","0.0010546652394202588","-2.4270276091784844","-0.9693218203492242","-0.7424402409142928"
"0.06379010478286912","0.0989988617042386","-0.009244537524660769","-8.252574678193821e-05","-0.004761149549117358","-0.0014848257632326246","-2.429228851382246","-0.9696780222943012","-0.7414432906573306"
"0.06364568188290011","0.09923153440373404","-0.009251352856811246","-0.0007856217792455584","-0.003913204402507352","0.0006636942909040322","-2.4289780769539697","-0.9702848848673953","-0.7433391304902423"
"0.06350318462159735","0.09884201537556087","-0.009411616424955858","0.0008352634463545387","-0.00518045519316498","0.00129565478124311","-2.430120493793897","-0.9679629758920786","-0.7423094933396092"
"0.06335876172162834","0.0989967842694217","-0.009108230881651174","0.00015652497875649377","-0.003491505461404662","0.000666121174507485","-2.4285601195735085","-0.9679893612213434","-0.7418518768282167"
"0.06364760752156637","0.09891991918119551","-0.009095632843433621","0.001958503404009346","-0.004975828294956808","1.3046796818369004e-05","-2.427640613336494","-0.9693877836723866","-0.7403319362725203"
"0.06350222180226422","0.09915363059809944","-0.009412236000605902","0.0017999385449832493","-0.0051850024575696065","-0.0014865245817550416","-2.429535353461251","-0.969374591007754","-0.7401685018041657"
"0.06364471906356699","0.09923257312114254","-0.00987113503207153","0.0018037895433809686","-0.005608616036316349","-0.0019177817980885821","-2.4277242048125864","-0.9691767010382668","-0.7413942603168243"
"0.06350222180226422","0.09915363059809944","-0.009412236000605902","0.0015280580581042596","-0.0005482287430840735","0.0006877204385782137","-2.426581787972659","-0.9691898937028994","-0.7411491086142926"
"0.06364664470223325","0.09915259188069094","-0.008786258068845183","-0.0008050693211540415","-0.004754448317363171","0.0027991091735820447","-2.427306247432125","-0.9688732697517198","-0.7407568658902417"
"0.06364664470223325","0.0989967842694217","-0.008786051543628501","-0.0005225023137213801","-0.0026502615465488423","2.954960532184731e-05","-2.433185514583945","-0.9685962237944378","-0.7430286050003689"
"0.06364664470223325","0.09899782298683016","-0.009095839368650303","0.0008369963956335125","-0.009395769296253331","0.0006243787765280989","-2.424380545768897","-0.9681872511908306","-0.7419499375092293"
"0.06364568188290011","0.09907676550987325","-0.009715828069127266","0.0007826973182256686","-0.0026562447891865086","-0.002325983620189323","-2.426971881527756","-0.9695197103187114","-0.7415903816788497"
"0.06364471906356699","0.09923257312114254","-0.009716241119560631","-0.00011564433300232521","-0.0022290412648571668","0.0026027742900627225","-2.428086434542319","-0.9687017651114974","-0.7407732093370772"
"0.06357539607158186","0.09899574555201324","-0.008479155071640236","-0.0004467339202462507","-0.00812660386795165","0.0006333582458608738","-2.4265539241472953","-0.9675408106238391","-0.7403155928256847"
"0.06350318462159735","0.09899574555201324","-0.008637146862401354","0.0012921844062439459","-0.006447705983822609","-0.0023524366514669575","-2.428866621652513","-0.9688468844224548","-0.7410020175927735"
"0.06357250761358248","0.09931047692677715","-0.00987443943553843","0.0007794239695876073","-0.006658076794962941","-0.002353164716547993","-2.43349201666295","-0.9678046639164887","-0.7413452299763178"
"0.0635012589829311","0.0991546693155079","-0.010032224701082868","0.0011196596780261167","-0.005394176620182404","-0.0019168110446472018","-2.428866621652513","-0.9688468844224548","-0.7410020175927735"
"0.06335972454096146","0.09899574555201324","-0.008798443056629374","-0.0011129566430517078","-0.003488394175233076","-0.0010470159611697613","-2.4277520686379503","-0.9678442419103861","-0.7411981389547989"
"0.06364760752156637","0.09899574555201324","-0.008476057193390016","0.0011207187025854893","-0.003920623623378058","-0.0021204265789768807","-2.4288387578271493","-0.9688600770870873","-0.7407895527839128"
"0.06393260204417188","0.09915570803291636","-0.009703643081343078","0.0009263395584606025","-0.004764978824405463","0.00065714170517471","-2.427334111257489","-0.9685302604712752","-0.7409693306991026"
"0.06364664470223325","0.09899782298683016","-0.009250939806377886","0.0009306719316580367","-0.0034977280337478347","0.00023753353013774173","-2.4336591996151347","-0.9677387005933263","-0.7436823428737868"
"0.06357443325224874","0.09899782298683016","-0.009408931597139005","-7.183922622826686e-05","-0.00560215413426767","-0.0027754424635487596","-2.432488918949843","-0.9665909387703002","-0.742816140191508"
"0.0634945192475992","0.0989905519649709","-0.009096252419083664","0.0005824454015442599","-0.0033091362258086065","0.00026495731485675706","-2.42761274951113","-0.9685170678066428","-0.7424238974674574"
"0.06363894214756823","0.09899159068237935","-0.009090056662583227","0.0017856898509116875","-0.00668583904080171","-0.000615516056475875","-2.4282814813198677","-0.969044774391942","-0.741165452061128"
"0.0637824022282041","0.09899262939978781","-0.009393648731104593","0.0011082029577929014","-0.002261829434511575","-0.0010127969023610785","-2.4283093451452316","-0.9673824986482491","-0.7407405224434064"
"0.0637824022282041","0.09899262939978781","-0.009393648731104593","-0.00031021602704709795","-0.005209414087531283","-0.005530926106908932","-2.4266932432741153","-0.9689260404102498","-0.7400540976763176"
"0.06363894214756823","0.09899159068237935","-0.009090056662583227","0.0003126829637840156","-0.0060477860459210225","0.001530334425696984","-2.42836507279596","-0.9680289392152409","-0.7418028464877104"
"0.06335105916696332","0.09898951324756244","-0.009102448175584098","0.0005049440587901568","-0.00752133904272537","-0.001049685533133559","-2.4274177027335817","-0.9682664071786256","-0.7394493901434062"
"0.06378336504753723","0.09883578307111007","-0.009083447855649431","0.00039056940637789055","-0.001835822558709766","0.0028440065202459193","-2.4281978898437755","-0.9687545357700273","-0.7396781983991024"
"0.06349355642826608","0.09914739829364864","-0.00940645329453883","-0.0006035658299933736","-0.0018315146240106463","-0.0010091565769558995","-2.4307056341265425","-0.9674880399653091","-0.7422931498927737"
"0.06349355642826608","0.09914739829364864","-0.00940645329453883","0.0005915915227388433","-0.0035204643557709653","-0.0008067544844279458","-2.429479625810523","-0.9682004438554631","-0.7414106037636596"
"0.06356673069758371","0.09899159068237935","-0.009403148891071928","-0.0008029512720352956","-0.008360907649642644","0.0017276400626576869","-2.426275285893654","-0.9695988663065063","-0.7400377542294823"
"0.06363797932823509","0.09899159068237935","-0.00940005101282171","0.0012607987693025327","-0.007736975107386848","0.0006617527840212701","-2.4283093451452316","-0.9680553245445058","-0.7409529872522672"
"0.06335105916696332","0.0989905519649709","-0.009257342088095","0.00039355393013612306","-0.002673476527982986","0.002410807797029616","-2.4294517619851588","-0.9687017651114974","-0.7414106037636596"
"0.06363797932823509","0.09899159068237935","-0.00940005101282171","0.0015162162380312721","-0.004366734194442424","0.0011138811993445044","-2.4256901455610085","-0.9682136365200956","-0.7417374727003686"
"0.06349355642826608","0.09914739829364864","-0.00940645329453883","0.0004989750112736918","-0.005626565764229347","-0.00017916238457508322","-2.427947115415499","-0.9687017651114974","-0.7417865030408749"
"0.06363797932823509","0.099069494488014","-0.009090263187799909","0.00017568369578514778","-0.0043643408973873575","-0.002312150383649643","-2.429786127889528","-0.9697044076235661","-0.7414106037636596"
"0.06349355642826608","0.09914739829364864","-0.009716447644777314","0.0004978197117543759","-0.0026770664735655857","0.00026981108206366246","-2.4267489709248435","-0.9677387005933263","-0.7404790272940392"
"0.06378047658953785","0.0992273795341002","-0.010014050482014925","0.00023652947046911438","-0.009421138245037033","0.00022200147507564464","-2.430677770301178","-0.9688204990931898","-0.7425056147016347"
"0.06363797932823509","0.09899262939978781","-0.009709838837843513","0.0014469945418322657","-0.002682331727086732","-0.000587606895036169","-2.4278913877647708","-0.9690579670565745","-0.7409366438054317"
"0.06349548206693233","0.09898951324756244","-0.008786258068845183","0.0005871628745814661","-0.006469484987023712","-0.000613817237953458","-2.426804698575572","-0.9677123152640612","-0.7411164217206218"
"0.06335105916696332","0.09898951324756244","-0.008792453825345619","0.0017853047510719153","-0.0014153202661346099","-0.0001495544046129606","-2.426080239116106","-0.9683719484956854","-0.7419499375092293"
"0.06378143940887097","0.09922530209928329","-0.009084480481732837","0.0019544598556917405","-0.003949103858333347","-0.00016678527819747439","-2.4272505197813965","-0.9676859299347963","-0.7421950892117611"
"0.06363701650890197","0.0991484370110571","-0.009710251888276875","0.001089621890523905","-0.005208217439003749","0.0008942482332320367","-2.426470332671203","-0.9685170678066428","-0.7423912105737863"
"0.06335105916696332","0.0989905519649709","-0.009257342088095","-0.0007871621786046464","-0.003935222735413963","0.000260346236010197","-2.426470332671203","-0.9663798561361805","-0.7411164217206218"
"0.06349355642826608","0.09914635957624018","-0.009096665469517026","0.0007375443620124088","-0.007311207561290546","0.0017363768436301167","-2.4276963409872225","-0.9681476731969332","-0.7432737567029006"
"0.06349355642826608","0.09914635957624018","-0.009096665469517026","0.0008203408275633759","-0.00857534706577659","0.0019416911964822133","-2.4261359667668336","-0.9686753797822324","-0.7427997967446727"
"0.0634945192475992","0.0989905519649709","-0.009251146331594564","0.0014635538349424594","-0.004367212853853437","-0.002740495339659041","-2.4248542308000864","-0.9684115264895828","-0.7406424617623937"
