"AccX","AccY","AccZ","GyroX","GyroY","GyroZ","MagX","MagY","MagZ"
"-8.0491","-0.62266","-2.2851","-0.14903","0.28834","-1.4351","0.79962","0.46589","0.18833"
"-6.7509","-0.11881","-0.69281","-0.42727","0.027964","-1.2974","0.77232","0.49418","0.20264"
"-6.8725","-0.59293","-1.6749","0.14406","0.096336","-0.99801","0.749","0.51671","0.20791"
"-8.1683","-4.1222","-3.3276","0.73964","0.39466","-0.82764","0.73119","0.53139","0.21714"
"-11.523","-7.9163","-3.3796","0.51022","0.49008","-1.3394","0.70357","0.5598","0.21624"
"-10.21","-2.6383","-1.9385","0.12246","0.28855","-1.5034","0.67315","0.59313","0.22928"
"-8.5304","-2.5758","-0.68467","0.037103","0.29313","-1.4117","0.64188","0.62878","0.23499"
"-8.8004","-2.8291","-0.52555","0.085862","0.12182","-1.2554","0.61172","0.65901","0.23653"
"-8.5937","-3.8481","-2.0789","0.40508","0.080474","-1.1462","0.58742","0.68396","0.2381"
"-8.972","-6.02","-2.1658","0.54923","0.10499","-1.119","0.55811","0.71542","0.22056"
"-8.298","-6.0376","-2.3188","0.56669","-0.005755","-1.0948","0.53447","0.74126","0.21312"
"-7.8867","-2.246","-1.8683","0.48455","0.032787","-0.89564","0.5066","0.76889","0.19247"
"-6.4826","4.4729","-2.4242","0.18845","-0.014911","0.17839","0.49618","0.78054","0.1739"
"-9.7168","-3.5671","-1.9028","-0.8891","0.027751","0.97182","0.51898","0.75722","0.19941"
"-9.9789","-7.6275","-2.5906","-0.81963","-0.278","0.98797","0.54026","0.73143","0.21497"
"-9.4854","-3.4069","-3.1686","-0.61801","-0.43117","1.2683","0.57305","0.70094","0.23247"
"-9.1791","-3.7585","-3.4334","-0.58115","-0.38161","1.4981","0.60779","0.66634","0.2321"
"-8.91","-5.3818","-1.0199","-0.45553","-0.34828","1.3189","0.63709","0.63329","0.23287"
"-6.4057","-4.0789","-0.95168","-0.25339","-0.51637","1.2917","0.67011","0.60123","0.2297"
"-7.0807","-3.5614","-2.7847","-0.082589","-0.46611","1.2493","0.69663","0.57633","0.20912"
"-7.3358","-3.9345","-2.5509","-0.070104","-0.23952","1.1062","0.72415","0.54598","0.20279"
"-6.6755","-3.8668","-1.4413","-0.12845","-0.23594","0.86553","0.74354","0.52557","0.19399"
"-7.7841","-3.7715","-1.5719","-0.1051","-0.22016","0.74035","0.75781","0.50913","0.18387"
"-8.6147","-2.9743","-1.9872","-0.17387","-0.17217","0.63264","0.77572","0.48995","0.18602"
"-8.8988","-3.0353","-1.2525","-0.24304","-0.16196","0.529","0.78661","0.47996","0.18052"
"-9.3832","-1.5086","-1.3836","-0.26734","-0.20347","0.51266","0.79992","0.46444","0.18662"
"-10.251","-0.29032","-2.5157","-0.35218","-0.11356","0.6151","0.81238","0.45459","0.18412"
"-10.237","-0.46112","-2.8297","-0.68639","-0.080908","0.78256","0.83038","0.44059","0.18846"
"-11.193","1.0888","-2.5577","-0.75289","-0.028848","0.96253","0.84842","0.41437","0.20379"
"-11.804","2.9444","-2.5631","-0.93846","0.008354","1.2746","0.87084","0.39187","0.20991"
"-13.707","-5.7925","-3.2016","-0.65634","0.061681","1.1271","0.89239","0.35246","0.22856"
"-15.245","-4.4196","-0.6761","0.35517","-0.17969","0.43085","0.90309","0.33472","0.22454"
"-12.769","2.7716","-0.98096","0.52094","-0.20082","0.32216","0.90805","0.32881","0.2033"
"-10.063","5.0148","-3.0436","0.11093","-0.13042","0.67324","0.91471","0.30745","0.19679"
"-10.967","0.76906","-1.1427","0.1173","-0.32898","0.85882","0.92375","0.28953","0.18116"
"-9.7163","-3.4034","-1.7006","0.66091","-0.22336","0.54846","0.92753","0.2662","0.16814"
"-8.922","-6.9735","-3.0193","0.85721","0.071817","-0.25528","0.92483","0.26847","0.14852"
"-8.4974","-8.1016","-3.568","0.99052","0.36333","-1.3609","0.90826","0.29582","0.14411"
"-9.407","-5.5346","-3.6587","1.181","0.28945","-2.3945","0.8767","0.34695","0.14871"
"-8.7162","3.1953","-1.5389","0.50376","0.27542","-2.1493","0.84043","0.40688","0.14748"
"-6.5283","3.4836","-1.4414","-0.75255","0.29834","-1.6008","0.8081","0.44151","0.17858"
"-7.165","-0.84581","-1.6058","-0.40312","0.14725","-1.3055","0.78014","0.46893","0.20014"
"-8.9084","-3.7413","-2.2856","0.36332","0.31668","-1.2059","0.75513","0.49366","0.21204"
"-12.671","-4.9997","-2.7187","0.9633","0.52126","-1.4883","0.72856","0.52371","0.22378"
"-10.327","-1.1718","-2.4222","0.7456","0.33506","-1.4486","0.69778","0.56831","0.21227"
"-9.1145","-2.1827","-1.2314","-0.1512","0.39855","-1.271","0.67259","0.59806","0.22998"
"-9.5069","-3.7189","-1.5037","0.038653","0.21766","-1.1304","0.64632","0.62442","0.23602"
"-8.894","-4.1227","-2.2042","0.62368","0.19371","-0.9993","0.62516","0.65202","0.22783"
"-8.858","-5.2","-1.818","0.91943","0.23832","-0.97347","0.60344","0.67788","0.21897"
"-8.6861","-5.59","-1.6144","0.85945","0.15579","-0.96398","0.5797","0.71013","0.19326"
"-7.3282","0.1341","-1.7479","0.76143","0.087954","-0.73711","0.56169","0.73647","0.18022"
"-7.7366","2.9115","-2.868","0.012868","0.17468","0.12825","0.55334","0.74609","0.16726"
"-10.543","-4.8161","-2.5328","-0.68327","0.28224","0.70027","0.56266","0.7275","0.18432"
"-9.1717","-5.1717","-0.93412","-0.58057","0.048832","0.77295","0.58056","0.70343","0.21452"
"-9.7908","-3.3672","-1.2909","-0.66773","-0.17868","0.96089","0.59558","0.68004","0.2223"
"-9.9123","-3.7437","-2.4147","-0.62978","-0.25587","1.162","0.62151","0.65163","0.23833"
"-8.8953","-5.2378","-1.6394","-0.44304","-0.33476","1.1426","0.64482","0.6252","0.23582"
"-6.2785","-3.8835","-1.4795","-0.23777","-0.40497","1.0391","0.6676","0.6039","0.22715"
"-6.243","-4.2145","-3.0039","-0.10337","-0.40145","1.0071","0.69379","0.57714","0.2199"
"-7.0223","-4.3226","-3.0996","-0.055679","-0.20151","0.86031","0.71256","0.55878","0.20486"
"-7.2904","-3.8161","-2.2884","-0.17911","-0.11487","0.7799","0.72961","0.5392","0.20632"
"-8.0538","-3.7703","-1.5465","-0.17498","-0.20586","0.70366","0.74436","0.52207","0.19892"
"-8.8917","-3.0336","-1.753","-0.16226","-0.23543","0.6893","0.75774","0.50746","0.1917"
"-8.9807","-2.345","-1.9917","-0.28289","-0.25786","0.66413","0.77552","0.48911","0.19047"
"-9.2797","-1.8347","-2.2494","-0.23426","-0.25917","0.67407","0.79191","0.4764","0.18237"
"-9.6229","-0.68059","-2.8423","-0.24896","-0.21174","0.7116","0.80914","0.4559","0.18237"
"-9.8177","-0.63412","-3.0547","-0.56309","-0.13931","0.80158","0.82473","0.43928","0.17916"
"-10.175","0.52318","-2.3926","-0.80216","-0.10005","0.92195","0.84184","0.42021","0.1833"
"-10.817","1.3681","-1.7512","-0.93458","-0.09521","1.089","0.86493","0.38978","0.19699"
"-11.013","1.2067","-2.3153","-1.2392","-0.069601","1.2094","0.88766","0.3657","0.20168"
"-13.309","-5.1295","-3.208","-0.85515","-0.053146","0.98733","0.90859","0.32803","0.21758"
"-14.782","-4.3362","-1.6393","0.027695","-0.22539","0.36238","0.9189","0.31096","0.21394"
"-11.429","-1.4493","-2.7927","0.52294","-0.024087","-0.008166","0.92112","0.31029","0.20017"
"-9.8796","-1.9497","-2.7679","0.29106","0.22794","-0.41723","0.91372","0.3139","0.20632"
"-10.755","-5.2007","-3.3593","0.76935","0.10095","-1.0338","0.89793","0.33645","0.20242"
"-10.497","-3.2443","-3.4542","1.7095","0.32031","-1.431","0.87333","0.37054","0.19615"
"-9.1876","-0.41515","-2.4233","1.3962","0.42342","-1.4809","0.84196","0.41525","0.18582"
"-8.9835","0.10317","-1.3725","0.45938","0.20604","-1.4168","0.81362","0.45313","0.18432"
"-7.2295","0.94781","-1.7141","-0.16907","0.13148","-1.3316","0.78873","0.47943","0.19982"
"-7.36","-0.4529","-2.6167","-0.22242","0.15762","-1.0996","0.76485","0.50607","0.20741"
"-8.6976","-2.7763","-2.9444","0.019262","0.31732","-0.97905","0.74124","0.52488","0.22619"
"-8.5308","-2.1456","-1.9537","0.20541","0.2308","-0.89968","0.71952","0.54648","0.23301"
"-8.617","-4.2434","-2.2297","0.44305","0.33098","-0.82259","0.69752","0.56774","0.23216"
"-9.5878","-6.6128","-2.7307","0.3296","0.3094","-1.0408","0.67687","0.58668","0.24014"
"-9.6453","-5.1932","-2.698","0.061489","0.36824","-1.227","0.65004","0.61546","0.2429"
"-8.7287","-3.8997","-2.0962","0.23547","0.32642","-1.2291","0.62109","0.64027","0.25601"
"-8.0679","-3.0365","-2.008","0.50689","0.23942","-1.0968","0.59562","0.67209","0.24854"
"-7.9638","-3.2822","-2.388","0.60746","0.20253","-0.85856","0.57207","0.69944","0.23529"
"-9.196","-5.5708","-2.1385","0.5136","0.21004","-0.79793","0.55563","0.71595","0.23431"
"-9.363","-6.6593","-2.5627","0.5338","0.14546","-0.89598","0.53016","0.74213","0.21498"
"-7.6735","-0.1551","-1.9039","0.68275","-0.013174","-0.54568","0.51283","0.76392","0.20473"
"-7.8878","1.5115","-1.8134","0.074863","-0.033842","0.35115","0.50953","0.76978","0.18502"
"-10.111","-5.7208","-2.9015","-0.64099","-0.036845","0.78199","0.52558","0.75065","0.19478"
"-9.7639","-4.5357","-2.5637","-0.50111","-0.1909","0.94232","0.54871","0.72711","0.21573"
"-8.4707","-1.9886","-2.0568","-0.64916","-0.29264","1.3176","0.57294","0.70388","0.21521"
"-8.8156","-6.4384","-2.3586","-0.59497","-0.31467","1.3195","0.6057","0.66822","0.22783"
"-6.998","-4.1343","-1.4101","-0.45427","-0.3495","1.2402","0.63213","0.64226","0.22205"
"-6.6629","-5.0232","-1.9","-0.25693","-0.41834","1.259","0.65952","0.61662","0.21132"
"-6.5271","-4.7642","-1.3665","0.13931","-0.29069","1.21","0.68965","0.58713","0.20049"
"-6.3324","-4.825","-1.341","0.1374","-0.29649","1.0163","0.7147","0.56487","0.18048"
"-7.859","-3.3879","-2.2146","-0.21016","-0.29889","0.89476","0.73723","0.53806","0.17648"
"-9.0427","-3.0134","-3.0405","-0.16998","-0.20977","0.88853","0.75951","0.51525","0.17158"
"-8.2928","-3.08","-2.1016","0.048026","-0.053161","0.80731","0.77635","0.49586","0.16483"
"-8.2317","-2.7767","-1.3227","-0.057787","-0.14139","0.72193","0.7948","0.4732","0.17002"
"-9.473","-1.2528","-1.758","-0.27313","-0.17703","0.75347","0.81152","0.45633","0.16564"
"-9.711","-0.040187","-2.1323","-0.47884","-0.14711","0.75966","0.82792","0.43203","0.172"
"-10.206","-0.23056","-2.5745","-0.59349","-0.10712","0.84364","0.84596","0.41342","0.17052"
"-10.683","1.4309","-2.7873","-0.81335","-0.038095","0.96599","0.86342","0.39008","0.17502"
"-10.996","2.2003","-2.3497","-1.1604","-0.12072","1.1057","0.88438","0.35696","0.19044"
"-11.073","1.0284","-2.5409","-1.1003","-0.049022","1.3567","0.90969","0.32623","0.19413"
"-15.42","-5.1985","-2.0036","-0.44772","-0.051937","0.85887","0.92732","0.28656","0.20701"
"-14.605","-2.0087","-0.92027","0.1626","-0.29936","0.23114","0.93478","0.27647","0.19332"
"-11.223","1.3306","-3.3122","0.6832","0.081642","0.051631","0.93587","0.27687","0.1791"
"-10.769","2.9423","-1.2157","0.27125","-0.053603","0.011702","0.93242","0.27416","0.17931"
"-10.281","-0.81622","-1.6285","0.29527","-0.16492","-0.17369","0.92664","0.28168","0.16621"
"-8.9401","-4.3583","-3.147","0.94389","0.17864","-0.56964","0.91766","0.29205","0.1594"
"-8.6718","-5.1215","-3.152","1.7854","0.41834","-1.0062","0.90129","0.32105","0.14905"
"-8.9841","-4.0008","-2.7508","1.5123","0.21158","-1.6942","0.87401","0.36529","0.13752"
"-8.1535","-0.38373","-2.1069","0.4595","0.073567","-1.8395","0.84404","0.4079","0.14193"
"-7.1111","0.38169","-2.3413","-0.36557","0.2111","-1.6544","0.81277","0.44857","0.15399"
"-7.5634","-1.4099","-2.1146","-0.63107","0.24465","-1.5049","0.78166","0.47933","0.18628"
"-8.5007","-2.2292","-1.5873","-0.26701","0.4494","-1.4298","0.74951","0.50921","0.21156"
"-9.6353","-3.5035","-3.0967","0.67255","0.48758","-1.3318","0.72049","0.54029","0.22496"
"-11.23","-3.034","-2.7936","0.49254","0.42326","-1.398","0.69076","0.57127","0.23242"
"-9.8723","-2.5806","-1.8057","-0.035459","0.39948","-1.3469","0.65801","0.60503","0.23959"
