"AccX","AccY","AccZ","GyroX","GyroY","GyroZ","MagX","MagY","MagZ"
"0.03513948988701627","-0.039778977653308234","0.018924262879355","-0.07742462971713923","0.18841860884467262","0.35995798726142486","0.7594515956319288","0.4475835538440515","-0.35166842707876705"
"0.02976599518883585","-0.04693574059761045","0.00399125056200406","-0.043722617239497885","0.16013223095084356","0.35415773544917295","0.8358542047802262","0.3947733173202232","-0.2819799697724232"
"0.036360344801420995","-0.03784176968652686","0.026408736731881734","-0.021545680216631263","0.04839397804390612","0.43630774542604617","0.896708799375369","0.3258152592862361","-0.24713574111925124"
"0.007374668777640038","0.0038301600852874615","0.0015226546470136601","0.055176798111533","0.002527875961792697","0.3503232593557178","0.9559751559247592","0.23954842525443162","-0.2440795165610228"
"0.006511019835825333","0.027945397378405054","-0.02428246465208576","0.06273823346545504","0.04244184826795613","0.1886030166724416","0.9675665072762151","0.18706800534641543","-0.26674787732178706"
"0.002166779004757414","0.09950991066920184","-0.06645284864622024","0.006688973560807919","0.04436127250611932","0.18400407224389875","0.9940371413720875","0.13738443034048556","-0.24917867197368207"
"0.015290006515275081","0.1852092904543476","0.018976926809608705","-0.04590131958300763","0.06418016541912372","0.07236985336867897","1.0123715384616503","0.11792525000757355","-0.22242444950405615"
"0.025639351527054575","-0.03163751060578417","-0.02023043990080059","-0.08112351367814873","0.11314702316578108","-0.2872676009433701","1.0047925779626212","0.14664568091248842","-0.1840908949515164"
"-0.07568101535587324","0.14773236635704368","0.028460977810042833","-0.17457376629640664","-0.023649289237406442","0.06734377742592847","0.9798265904364086","0.20965384719722588","-0.16242765617113206"
"0.021739933227891216","-0.033164425196223105","-0.04316919571758162","-0.011010311350070403","0.0441147629094475","-0.5699995407456073","0.9531609095629879","0.24771468466193847","-0.17748814242999603"
"0.03271222234820372","-0.09997161275626457","-0.10157452699502532","0.005496511906954105","-0.06585005687968576","-0.1616909357663147","0.9112258523900529","0.3133481912085399","-0.16949619692746268"
"-0.03730303673744078","0.04126279327229457","0.07248079511955748","-0.049830300698280844","-0.09041725114994177","-0.20858318075222734","0.8893806133046165","0.35057789080140617","-0.15738079978834618"
"0.0037766129297453423","-0.02184136672658037","0.017379247733362933","-0.02009577931988991","0.03362254862003665","-0.26416366903850064","0.8522938617450313","0.39833533677099353","-0.15726149262644742"
"-0.009063545696833052","-0.027067154008551985","-0.0424959235112009","0.01439087408128678","-0.06535943098339717","-0.23129638439694097","0.8070430093537708","0.4435993691250418","-0.16994564171543744"
"-0.0032384887314161797","-0.014689797369320459","0.009470674348381352","0.012715689778278841","-0.06771922187969258","-0.24770939820709145","0.7551048388751325","0.48887659414372236","-0.19313045539620186"
"-0.0002585628953888736","0.019006195361182286","-0.008753833609826234","0.07038342803452749","-0.1237439126417406","-0.2175456618997781","0.7050335446958874","0.5243648620051009","-0.22677180636228492"
"0.016284598886395028","0.029231329530080837","-0.023090814151835226","0.01884070272985155","-0.12461746606683982","-0.20597185399491227","0.6595876455270789","0.5597212032201546","-0.2683331916648254"
"0.005979543563939372","0.02137758720470071","-0.013138363959968136","-0.03501647261185374","0.01177820840932962","-0.19047862907047036","0.6114110914725908","0.5950247737766784","-0.2684802826863444"
"0.003482953033141682","0.00591472050363323","0.0022797760913669447","-0.02091411647940528","0.008390975087294226","-0.19655797249711932","0.5674141112227142","0.6316871887903478","-0.24930941954836566"
"0.0066650709291256145","-0.0002803978639149963","-0.00810389875293049","0.04509295880710473","-0.02345902212152867","-0.18824346927169044","0.5114635498916486","0.6573864994944241","-0.26468860302052083"
"0.00525839188342742","-0.00389731575192004","0.005475960344725216","0.040546855198596965","-0.049118517167716966","-0.18072498386819402","0.46401145529662646","0.682558103613201","-0.285853366672424"
"-0.0008795813652556371","-0.011565335404667186","0.010185210293054973","0.0538741979035044","-0.07796013997832146","-0.1989435990793133","0.41728382016107046","0.7104605893109021","-0.3117250430129358"
"0.00017470580451816548","0.0021981896161566944","-0.014895893553925158","0.07681652085791775","-0.11156203063145291","-0.2222538160904763","0.3484323076864377","0.7379541024049959","-0.35761744172686954"
"0.0046027119175681055","0.03665504284835775","-0.021905359408085134","0.06347473690901886","-0.03401681275024833","-0.18536033155078863","0.28707616423474136","0.7587853198596861","-0.40017577728637227"
"-0.016429113595252735","0.04713985636937178","-0.013848810705351468","0.11809248443427373","0.1329228367317943","-0.17660170862592792","0.23137637733195274","0.7731125536505624","-0.43350006538384767"
"-0.051398711774416475","0.13862281468483317","0.03727237617974628","0.15472510669257955","-0.009450336469108844","-0.024421545387824244","0.21683146049190485","0.7672813958830051","-0.4759766837091732"
"-0.027501535926210404","0.05618812371448303","0.031200534809318965","0.10101330654038818","-0.11401516011289592","0.10525412619546276","0.20752494282030332","0.7483763074646573","-0.5455343934408334"
"-0.034376065964735456","-0.05382555316793797","-0.03516221306685144","-0.0417268373198798","0.08982434336415958","0.25344206590588675","0.27481608107454786","0.7153022972310232","-0.5420042089243771"
"-0.04887612512162437","-0.07010640982816917","-0.025837599533695202","0.07779274895173961","-0.0618939368476611","0.1786673551999063","0.33199265072163253","0.6855264531555098","-0.543507806033238"
"0.0077463170402269545","-0.06509252089752376","0.03886675085252516","0.08797863971370744","-0.019895881465945894","0.38927474119113326","0.4051909199530613","0.6112781366038971","-0.6140297791281897"
"0.015996715905790132","-0.02842164150918625","-0.013838484444517409","-0.12542539924551274","0.18711665524671656","0.3803438095304274","0.5131353794134933","0.5529665589283235","-0.5798229449016001"
"0.022390799097084906","-0.03816792695278389","0.00473907837160669","-0.1902569572711189","0.2639414907143462","0.3823338540852586","0.6101850831565714","0.5243516693404684","-0.4790982820547434"
"0.03728657699988894","-0.05238900699203521","0.020128511417823083","-0.10160697415561823","0.2011222296129648","0.3897601179118238","0.7154267515566879","0.4747868283162308","-0.3871827370521923"
"0.040541869165190494","-0.04031495583607455","0.02597462072641785","-0.06802723087710447","0.1546372209124112","0.3877700733569926","0.7967333939690625","0.4113037261047241","-0.3268263878888884"
"0.03364230582400416","-0.04050400240441461","0.02738167702766687","-0.03749459008078618","0.19841062404957463","0.3343543652449991","0.882971933470879","0.34871772508822607","-0.24260860634583262"
"0.019807554826305824","-0.034562538828012766","0.025998164601119506","-0.018736376885494958","0.030865470412600217","0.39573025157631736","0.9367769802489107","0.2785195565787856","-0.21393566321772528"
"0.003005394643910813","0.014024610541940052","-0.003645019324783358","0.046694974140556005","-0.046765906162586746","0.21554385155436978","0.961408601870754","0.21886232711069878","-0.23355433679899523"
"0.0015476861735569166","0.042404343704194145","-0.09578975567578488","0.0630915625684458","0.1217581059699098","0.32132200029445823","0.9864024532223308","0.16354548430669877","-0.23458397394962835"
"0.0032451366578593807","0.19733112261109753","-0.029127546235426738","0.022212251827054892","0.037573882057951175","0.11570671387553347","1.0066037266112864","0.12320231586056664","-0.2122620942617755"
"0.02607839714296038","0.060843655139209085","3.629266255905499e-05","-0.020714827312323304","0.14681113954234426","-0.10325400547877761","1.010588253638349","0.11983818637928355","-0.19851888981784857"
"-0.05303550464073196","0.07600269699830148","0.03764825207410607","-0.18548171925794688","-0.01277414741918498","-0.3355383158160439","0.9898575675674762","0.19095984141299785","-0.16541196956328458"
"0.021732230673226202","-0.009231337387853386","0.05731977896299049","-0.020645509341164353","-0.11165297591954544","-0.5118271407708466","0.9816377390850737","0.20066964258250508","-0.16710188196606976"
"0.02146649253728322","-0.1582114591313126","-0.05576723393513489","0.05828551656809198","-0.12110171269294734","-0.2051442866861349","0.9322351767145665","0.2933613042903286","-0.1641339120207527"
"-0.03042850669891576","0.038248435352938245","0.038238914193814304","-0.11774265744206255","-0.016144627661834908","-0.19997259772717724","0.9029502962569221","0.3314485270843062","-0.16295391515923344"
"0.008327859917435527","-0.010768639152376937","0.020339993239704632","-0.05000840937417537","0.1280452973335691","-0.2643092820547078","0.864944038460322","0.38315057977900596","-0.15832871970480208"
"-0.012356387816126559","-0.048157272269961596","-0.05637854857651124","0.024396730668161226","-0.08475949691176494","-0.25358245652744693","0.8174362162145716","0.4327681914617734","-0.16344421856429683"
"-0.00015265276874493796","-0.013898294704072521","0.009602024386190596","0.007673577576144828","-0.06290151490784403","-0.25838768606228324","0.7769500779605683","0.4739952684382819","-0.17330748872948878"
"-0.004711602311100119","0.006177723751455773","0.008742672959580117","0.07646222900532756","-0.1142305568478519","-0.22609071906753497","0.7259314137189445","0.5153410793964828","-0.20120575247759598"
"0.01493568900068444","0.038279596875192105","-0.03292761022236084","0.05002512500498386","-0.14788510003619482","-0.2225814453769424","0.6731016008286561","0.5505918792944766","-0.2539019281091261"
"0.012090557871294873","0.03589470170536367","-0.015383293065292795","0.004958238605912876","0.0029476602652513334","-0.1857583404617549","0.6178197713063283","0.5854468992534959","-0.287683832717994"
"0.0001852968171825522","0.002332599648811659","-0.004670830076038884","0.0020246443014901765","0.045861869759645936","-0.1813171434674365","0.5740178378340003","0.6170565237129244","-0.27366115533318097"
"0.006563012079814177","-0.0063807852038115015","0.0039883592089705235","0.05369512647801045","-0.07067494374269952","-0.19780781755289745","0.5316369594552399","0.644180642197309","-0.2849708205433099"
"0.0067055093411169464","0.007650313421432152","-0.001767705105151239","0.06331203222671522","-0.056372600541623054","-0.18329262672064697","0.48323749479783923","0.6707374761024966","-0.31978236230281093"
"-0.0021505028849829505","-0.004078260324474096","0.0023685819345398615","0.053407264347780925","-0.10258477337789906","-0.187522684841465","0.42519714656446805","0.6942863824714783","-0.355656228106616"
"0.0004356298437955066","0.008191589062981628","-0.012727378778772546","0.06395803720793267","-0.09212606524725914","-0.20024683557436737","0.35915988045160685","0.7187719680293663","-0.4000123428180178"
"0.00420314189432051","0.031113485474213727","-0.01710777862458083","0.052446440247549936","-0.05798328945968269","-0.16820954512518857","0.29983779625148843","0.7384026530025004","-0.435085379726886"
"-0.016207665148633584","0.05945281252927866","-0.0171201701375817","0.11207529943783716","0.10685504520801166","-0.11848270009044318","0.26177581080416","0.7509224917387266","-0.4656639687560064"
"-0.051061725007822106","0.1320477334892696","0.05635530620108928","0.17622330524784813","-0.025499547190678234","0.020204233000823968","0.2651194698478491","0.7341810003201059","-0.5117688322788009"
"-0.017006805195128774","0.018614598898192163","-0.004826963139849873","0.05459240910467907","-0.03900205051595153","0.15267785869053158","0.26589965695804346","0.7086136162623545","-0.5727952627623581"
"-0.037062331904159085","-0.05301016000229541","-0.05789857417128489","-0.08235679591501836","0.04548612212200051","0.19058578057646244","0.33773259874663214","0.6812388371499528","-0.5427233205851367"
"-0.044225707742622154","-0.06943851453452818","-0.037411272676509726","0.028318009786639002","-0.10139291144447603","0.19742959233819896","0.378497375254276","0.6615817668475537","-0.5358100425737427"
"0.010738759527584914","-0.04814584637846851","0.022538660696492702","0.0009318272311773527","-0.0011130468480797307","0.39929777047339277","0.4455098752548798","0.6118981918416238","-0.5601127480180517"
"0.026000408776977114","-0.04165282385817343","0.002733305467198863","-0.09997992733258179","0.18016891389585896","0.3682336603491985","0.5479372972932247","0.5611460110004628","-0.5161652194775359"
"0.021495377117277024","-0.033248561306308516","-0.0033657972318303746","-0.126465168812897","0.22959049808297896","0.3452753414605362","0.652036548853414","0.5186788235485008","-0.4273876162673907"
"0.030629644130650547","-0.041996639320374306","0.027719965332590683","-0.07637041890576354","0.15772936070755694","0.38308618800232896","0.7461884147586281","0.45501102403213933","-0.3687636724686441"
"0.04354971676187847","-0.038044319581176926","0.025944261519565713","-0.06133900940986528","0.15626466290985633","0.3858771041462995","0.8258789552998868","0.3914355731682051","-0.316088743318"
"0.027432121125336596","-0.03507670394520139","0.026637773197181185","3.5988728907876394e-05","0.1756288293823981","0.3556381344472791","0.8925570893961217","0.3313297931026139","-0.25676203130532926"
"0.023380577371539212","-0.030108518580528314","0.025832737902557863","-0.005736754144233452","0.03456311436267772","0.37607249438835066","0.94449525987476","0.260656688666404","-0.23412635743823584"
"0.006357931561858177","0.00453980143157452","-0.0047193635019589664","0.03385189448416179","-0.05395537051600603","0.17860910999342347","0.9694333835756084","0.20503641457585692","-0.24156262574836398"
"0.0005906437564289121","0.04722814734909103","-0.09568649306744428","0.03914124078342939","0.032081265316573924","0.2804532804123151","0.9894674740123791","0.15287261861902024","-0.2656528663838122"
"0.01035363179433422","0.2415389355152343","-0.0400713174673636","0.04741896183932725","0.04123562655220269","0.15983473843711352","1.0055170374220874","0.10566926456399711","-0.2584944366698866"
"0.03071148377396632","0.03936921143666859","-2.752362939543468e-05","-0.008234800529874088","0.19220719808284267","-0.11117535356044717","1.0119814449065527","0.1017114651742523","-0.23022027364456413"
"-0.04274296596960694","0.0061223601135847565","0.06906899853998404","-0.09256675541697193","0.004631584073196012","-0.45477110725367403","0.990749209979127","0.18204160012143955","-0.1946798141562022"
"-0.0022660412049581658","0.04891086955079924","0.06220203508533409","-0.06499745788769871","-0.14481449991454468","-0.36102059365229705","0.9885758316007287","0.18428435310896157","-0.20940362541025592"
"0.016915245549593054","-0.18071007819859652","-0.11044685030364973","-0.004917261685198763","0.015197033252491889","-0.22274404657837368","0.9363590228684496","0.27950900642622173","-0.1920632283178472"
"-0.035541077357818814","0.003887497286234556","0.07248286037172429","-0.1038212982343069","0.023465395918335085","-0.2289520148360057","0.9074085083151742","0.32113186334170474","-0.18407128281531387"
"0.008627296730037934","-0.016038052565503957","0.00843579714011352","-0.02196351354278382","0.03651604475961186","-0.26583821872488295","0.8687056548844722","0.3752349809995163","-0.18339466411632638"
"-0.008014072623724906","-0.039014481640680304","-0.06209929707858052","0.023725694197358614","-0.11471639615003036","-0.23963515645840436","0.824847993761416","0.42147527053636824","-0.19645634682721522"
"0.0032037354265349242","0.006668413855213155","0.013729947154606105","0.009352227777710715","-0.051971327257356044","-0.24022731605764686","0.7827457536362967","0.46357306337862053","-0.21875207700013133"
"-0.0009758632985683106","0.003735470606332078","-0.00751220400713885","0.04252723112462418","-0.08719826661087755","-0.20537241374485946","0.7366032588333858","0.494905641880767","-0.23947066455342683"
"0.005770611768650857","0.035082424691946494","-0.012401068936416246","0.0340521464008432","-0.10768967599635558","-0.22507870860489518","0.6873400155896989","0.53084246033965","-0.2718470327344464"
"0.0085358288933909","0.02716012701760789","-0.0170685388334114","0.004202576445320386","-0.040627099216341576","-0.19852617509951942","0.6383832744250165","0.5724125465966029","-0.2914428254901467"
"0.00293029473592693","-0.000613410665067869","-0.005475658845445525","-0.025132885224106886","0.013880001883088883","-0.19998230526159103","0.5932438773352128","0.6063572726959808","-0.28488910330913264"
"0.00047317979778744803","-0.00968733433016814","0.00838053099212963","0.01990550378682097","-0.05301480477336496","-0.20797403296776074","0.5478815696424965","0.6381647871248968","-0.28864809608128533"
"0.008939250193971012","0.005411877406196844","-0.0067788329627039064","0.057311213973468965","-0.08588913312175626","-0.20321976798859692","0.48072975051507233","0.6646028870483921","-0.3210734946028112"
"0.0011962571169656492","0.001865072943262976","-0.0024572928036497685","0.06307230757645721","-0.07906584321776211","-0.19546830175916907","0.42622810810293915","0.6893259405696647","-0.35912103883573065"
"-0.002006079985013949","0.00886613214803676","-0.005089043639818317","0.06345355641783142","-0.0870379157081881","-0.20234366300775053","0.370472593549422","0.7168590316576562","-0.3980511291977642"
"0.0022861686020651272","0.041383284491676144","-0.015819061272490133","0.05666135799385382","-0.056918272270178163","-0.17371857090502615","0.3074446205758813","0.7376242857891839","-0.4379781698167601"
"-0.013839129589141779","0.019696942437809423","0.00537682824071824","0.111844239533974","0.05497075835122843","-0.16913904154531095","0.2626117255650822","0.7500649685376152","-0.4646016447117023"
"-0.03917090624370669","0.14590422371815082","0.01067368373554935","0.1196328837933615","-0.00020263664833249342","0.017833167720250703","0.24146308211374828","0.7392733688682442","-0.5140569148357635"
"-0.02421832200024819","0.05849511507867682","0.01491498884792284","0.07500366336219133","-0.057121702519858805","0.07181652390709176","0.24578197504518026","0.7188775093464259","-0.5692160479053954"
"-0.034067963778134897","-0.054476828983043554","-0.021205238923535853","-0.03280311128276451","0.06428547048954662","0.2166505104775442","0.2907541891827994","0.6996294116476338","-0.5659146716446352"
"-0.04217490256306216","-0.07273228743676075","-0.02275417804864487","0.07586243600488278","-0.058179539818198144","0.1748207446884338","0.33491835238486056","0.6710672927183087","-0.5729096668902063"
"0.0016805552415284071","-0.06182679336531968","0.028994225919513693","0.06294041088133531","-0.036620719946160514","0.35403639126900033","0.3973333212003916","0.6144179907864279","-0.6191943083281908"
"0.021774594723883784","-0.03137886997107717","-0.003047954923358003","-0.10153958168365815","0.22446884238513698","0.371388609033687","0.520352110182789","0.5539692014403921","-0.5711772615256491"
"0.029678378629521315","-0.04119786563326713","0.01590362506017575","-0.16298226111927125","0.2300500111175517","0.3715827597219632","0.6289931652773227","0.5156181253537648","-0.4736232273648689"
"0.03637093581408539","-0.04395773778755029","0.008762003719861477","-0.09320987214939107","0.21732485067576396","0.3896873114037202","0.7173772193321734","0.47279473595672605","-0.3976588864737135"
"0.033973515674599775","-0.038287379454757","0.011125106554171118","-0.07317890398365359","0.13155387081629633","0.389541698387513","0.8020832484389655","0.40894223913550964","-0.34196041965851187"
"0.03778435459511546","-0.030710974677436192","0.04566349573350349","-0.04745134643808969","0.16850398404946562","0.35903577149211285","0.8753372453211222","0.34144856687572817","-0.287389650674956"
"0.014200095030175603","-0.030728632873380044","0.04294355862981208","-0.02796722004482837","0.04109442202595378","0.4112623066384145","0.9350494230763384","0.26351949689165277","-0.24099060510912337"
"0.0071955843816784515","0.007678358791460623","-0.014140011260871962","0.02099052258537841","-0.052662990106270215","0.18205043094311935","0.9681237837834966","0.2122132241359275","-0.24698865009773227"
"-0.0038932058779423693","0.04542805008022662","-0.06349747279551225","0.026554252520483514","0.06548690561118993","0.2993344348471769","0.9865139085237872","0.1581892624659108","-0.2576936077749497"
"0.011610111024064632","0.24086376919973407","-0.01120115742749847","0.09677046905570083","0.02632538589913937","0.147758565626333","1.0090557432433247","0.10731834764305745","-0.25447394874836676"
"0.024734301353915432","0.03920717152094854","-0.009579521426117675","-0.04671099199612814","0.16625907141181337","-0.13620865793006157","1.0128730873182035","0.10742388896011727","-0.22546433061544924"
"-0.04150092902987344","0.01370406234968872","0.05857338702824538","-0.13696876694267668","-0.008735697968466034","-0.4685558061212852","0.9789906756754864","0.194271200235751","-0.19832930583455738"
"-0.0071860479972358764","0.04031756043059427","0.06464109789433907","-0.02917643354171226","-0.055968133339316835","-0.35633670829763336","0.9757027442825256","0.20246384497252276","-0.19947334711303866"
"0.027313694347362","-0.18715012613106005","-0.09666129209017955","0.029722661452207155","-0.04821145758384682","-0.1863844764314457","0.9311206237000033","0.2861317240717281","-0.1895381657817707"
"-0.03335547747162108","0.027025093754507845","0.07376744721948136","-0.11432489636408658","0.03403419571350806","-0.197934015500277","0.9097490696457564","0.3246015341400477","-0.1862907228955675"
"0.01923564014242853","-0.013152495604796907","-0.009083654380866113","-0.010993944606880097","0.07427269910033849","-0.25210205752934084","0.8725508627847145","0.3679130521284884","-0.19008403690607464"
"-0.018884302894725948","-0.04905887898050649","-0.04844798025595312","0.01524964672397821","-0.09138653645724365","-0.24656876291346871","0.8256003170462457","0.41697657189669163","-0.1875458996125298"
"-0.0010240042652246387","-0.00770961638445676","0.02814086372418697","-0.005390838213158307","-0.07925730698216742","-0.23833677373055717","0.7805445114325348","0.46131711772646605","-0.21364311551937076"
"-0.006512074464047146","-0.011706600972217998","-0.008646853547585372","0.046234779832028526","-0.12570402292983993","-0.20742798415698388","0.738832364862512","0.49875789995345193","-0.23241029552051395"
"0.009448581621195058","0.03229970075467717","-0.014871110527923417","0.030833674489949208","-0.1698723200810893","-0.22339687826770252","0.6883988409535337","0.5351960396683693","-0.28175116151672697"
"0.009485168755853875","0.04100934622462987","-0.00869125646917183","0.018675109798749617","-0.05501081451729029","-0.21611622745734446","0.6297454885621528","0.571700142706449","-0.30982920318002405"
"0.0068922962917435295","0.012182133602810402","-0.008430828170936835","-0.00036018273125750725","0.04241552200035039","-0.18515647332809862","0.5777794542581505","0.6049588502449378","-0.3117250430129358"
"0.005100489512794641","-0.0006296146566398735","0.006701274455294784","0.041105249966266286","-0.05754292280155048","-0.1777690396391887","0.535621486482303","0.6345499970155964","-0.32365575920281175"
"0.005376818661402008","0.001400039159494601","0.005004876325475396","0.05549835647774255","-0.06980617691171043","-0.17099318061834878","0.49162450623242643","0.6572413801834667","-0.34470611872686685"
"0.005093749777462752","-0.002004876505443376","-0.00599899374451569","0.05332543063182939","-0.09803511567621793","-0.17678372489618688","0.4381259615333997","0.6789565061685333","-0.38541764479396406"
"-0.002131246498320409","0.005284738395401112","-0.005861241424989327","0.03709924888303868","-0.08778941098347894","-0.1920925066667664","0.3832342255661691","0.7012916873913266","-0.4141821112243499"
"-0.004037628777911388","0.013146894331789779","-0.00797440744207138","0.0379772765177187","-0.0759665235314512","-0.18554477470465106","0.3171969594533079","0.7225714554435211","-0.4597639844484102"
"-0.003373283438053936","0.02582018156069209","0.003490633436768829","0.07279415303149983","0.03895720775577954","-0.16881141225884483","0.26163649167733966","0.7423076817337153","-0.48277555759271884"
"-0.0279251764327862","0.0849813702770458","-0.03301641606553376","0.09689273825482841","0.048506463005494244","-0.07551957965852041","0.24040425674991325","0.7487325094097343","-0.4978115286813296"
"-0.030765493465510125","0.10672691922319485","0.02754152754537812","0.12048973093685407","-0.08290469169408854","-0.0004963560715463484","0.23405130456690398","0.7330464311617124","-0.5499634675332393"
"-0.019625673781233567","-0.013313496803108496","-0.04886722644581596","-0.028058681256774208","0.012271706262084299","0.21045710352153293","0.2641163721347426","0.7080991023416876","-0.5717983125053959"
"-0.043994631102671725","-0.0620740081085336","-0.057867595388782715","-0.031395571368398066","0.0280868525316682","0.11762637880586452","0.33335797816447227","0.6857375357896295","-0.5451258072699473"
