"AccX","AccY","AccZ","GyroX","GyroY","GyroZ","MagX","MagY","MagZ"
"-0.009968595869972213","-0.009569959263011952","-0.003928784972503328","-0.06935293707551937","-0.0017963331573011717","0.12398481384691054","0.2514383315940877","-0.901155322193186","0.3034259524264349"
"-0.0006658354733014996","-0.05101062899100633","-0.02355756114153474","-0.10697911692043681","-0.12572556260333553","0.10267434892499258","0.22967668398474408","-0.9310235149211269","0.25862856465047607"
"-0.031641659058655465","-0.09490059436815378","0.05390385187908342","-0.07115712982485091","-0.15242518454965565","0.07282368060252462","0.21515963097006047","-0.947421997059303","0.19990656017071678"
"-0.00782150875709956","-0.02760520962613523","0.010705385356309913","-0.10540020757737185","-0.12297566428706429","-0.10358891541605408","0.22767048855853045","-0.9519470810282444","0.1309862448656389"
"-0.009005776536845462","0.02437013205847933","-0.07235120883463535","-0.012535306715567289","0.0540206194203671","-0.2213291734375608","0.2934848440684788","-0.9291897345372117","0.09245003157233961"
"-0.045294437202392845","0.054763003430073356","-0.045585540752751674","-0.07748720844110217","0.10575652185973623","-0.14731165041585756","0.33678522868425387","-0.9059970301133071","0.0981424541051256"
"-0.0019097980517012584","0.0704684106460167","-0.012463026501420608","0.0131787723356046","-0.007942559324417045","-0.2806422087059443","0.39379461537915394","-0.8738465064039468","0.09804439342411295"
"0.009144330711927011","0.03765636643011499","-0.003137586867397647","0.07231085273258604","-0.04170647618817649","-0.36165158338919473","0.48293099271883455","-0.8214452424837255","0.11413615117829358"
"0.021492488659277643","0.04861068021975376","-0.002785667898172879","0.0911412721478345","0.04649609347923851","-0.41664476584343246","0.5816803898091211","-0.750758945382883","0.14857179366057932"
"0.027032551102088992","0.044653166893514076","-0.018493562828511688","0.14112145485263577","0.041867456974740196","-0.4337300264117393","0.6695628950074181","-0.6681728647835412","0.19652346667577933"
"0.028904271885687404","0.04106647568209527","-0.013355215437483397","0.13339057556921408","0.025186176500927793","-0.4057237896278954","0.7501729417856912","-0.584122398409994","0.24367431079604251"
"0.033810799207301345","0.04953721614810174","-0.03595940040324088","0.08343542435399798","0.009061337592418308","-0.37310647399749136","0.8140368295201541","-0.5025785383166183","0.27869831736440437"
"0.019326145159742448","0.04629226296406689","-0.0021053738344250024","0.04850398063788469","-0.06955009412681834","-0.302556967645122","0.863857349271123","-0.428448955746698","0.2875401221023809"
"0.014762381520721618","0.0218844813000301","0.038474352940830875","-0.0036244815230843594","-0.21678812225155483","-0.1350073505463525","0.8996623648639612","-0.3938314037510633","0.25155185217072773"
"0.0070087974310518684","-0.03836943813002549","0.0014677189393764618","-0.047822005033870185","-0.03972003963247143","-0.1232976371596933","0.9125633160075284","-0.3725384430342362","0.22107132382262"
"-0.01016115973659756","-0.13945222273449143","0.00523948897162524","0.010329033521292242","-0.00086845188905195","-0.10159159021041253","0.9265230925149308","-0.35077054639063976","0.22020512114034133"
"0.008338450930099914","-0.12723690601097992","0.063664233619437","0.029962386102465193","0.11153872754477652","-0.03684961632110541","0.9334611850305858","-0.3387652215750805","0.22695496468338072"
"0.012777048055814259","0.05009812354867115","0.014181824328704577","0.09378209429907058","0.16509353574599608","0.3472411171793328","0.8998295478161452","-0.3575119980178384","0.2903838818517486"
"-0.07465079866942761","-0.14672324459372443","0.0013219121363995336","0.10911965816758752","-0.07937457853786567","-0.19155616539040335","0.8859812266101995","-0.3690291942419958","0.3064494900909925"
"0.04075368941847837","0.09447732482520411","-0.1557791353651734","-0.04531693057615371","0.5253613280392428","0.1253924063369131","0.8477241943853225","-0.3774988849360497","0.3781155044644253"
"0.0023641569680484006","0.0569079548785471","-0.07839826717906093","-0.036818739861986416","0.11083270491353195","0.27249310219299033","0.7990460914742811","-0.41904258586373777","0.4184184443606364"
"-0.0056070242909080185","0.012598451540121914","-0.005194578025542412","0.02298919075379478","0.01962415414495361","0.23104678401322548","0.7666404625758602","-0.4538580278288597","0.43528488149481714"
"-0.0019964517916826697","0.027077029624930943","-0.04292962646623142","-0.027544572970678666","0.02714150019491699","0.2014970492575857","0.732200774425862","-0.49330409507998296","0.4430480187416543"
"0.0011510046083086944","0.009373337858588685","-0.043528549594606905","0.0004701887982507392","-0.038442019005066","0.21315094432136542","0.701550566525378","-0.5341221994528845","0.4346311436213994"
"0.0010171727210040624","0.009641534693453538","-0.019160639278391966","-0.01395247412592803","-0.017382440898715223","0.18002398313423637","0.6646031340926127","-0.5777767267217697","0.4207555572581053"
"0.007476727626951476","-0.010643993063361515","-0.01687647038189788","-0.056305754504046034","-0.026382673803997714","0.202120758343673","0.6329219646536576","-0.6188850697165859","0.40377471599607634"
"0.007592265946926673","-0.028718714688006346","-0.017739745787625303","-0.0010341074508584032","-0.01898977920089778","0.20294104500164004","0.6021881652770814","-0.6485421798104071","0.3972046503682269"
"0.005163072769447871","-0.015056464614507497","-0.015441120125963529","0.04756144878004286","0.033177395367794314","0.19313158147648427","0.5578289552974717","-0.6750594357216974","0.41451236056696467"
"0.0034540684531478784","-0.0006149687411805616","-0.01712223538974851","0.026320304367822064","0.03788022408099968","0.20142181586587865","0.5140548856505079","-0.7014447649866626","0.4366250441353239"
"0.00503983189480766","-0.0027283431804370614","-0.011060720280155251","-0.04082185269641574","0.042398768920964926","0.18056275129420288","0.45464920997429703","-0.7396243364330676","0.43618377107076683"
"0.009335931759219233","-0.019098114050832594","-0.023332448655352233","-0.06102322754125229","0.016876170466326435","0.13745644472967639","0.41388443346665316","-0.7730941266056762","0.419497111851776"
"0.005900592378622974","-5.873556894923561e-05","-0.03168432841794001","-0.028593970034057198","0.030080468978538468","0.13780348908497012","0.37913824323764994","-0.794782867261478","0.4199710718100038"
"-0.001303221871831414","0.0027552537623147903","-0.022983421039161005","-0.04372743098749503","0.008001824986140438","0.13255899361790885","0.33901433471338","-0.8202710953314346","0.4075173653213936"
"-0.007301586317211092","-0.004904040664201275","-0.017843008395965903","-0.08427748136588091","-0.03308821349288259","0.13238911176566717","0.309116450097726","-0.8492949575228964","0.38112269868214754"
"-0.008264405650337843","-0.02633278080076945","-0.005499409245363863","-0.12330735012676708","-0.058971721143425096","0.1430237157159968","0.27526190228037317","-0.8848228033781725","0.32393697820492023"
"-0.02291851590052706","-0.08500473361773762","0.004143872697131467","-0.10725831430427148","-0.1488472054523315","0.0766872792992213","0.2553114033196943","-0.9155353266425921","0.25540890562389307"
"-0.019587161007908485","-0.093886806177495","0.06036189540470459","-0.09195444667173455","-0.1352700312589401","0.0013723443031122145","0.25121542099117516","-0.9300340650736907","0.19454590960869034"
"-0.0025933997782212692","0.005482094703008865","-0.025792163986025338","-0.07939152714877443","-0.04806785976054283","-0.16545988600247669","0.2848191943802512","-0.9238730906903213","0.1430803955238693"
"-0.04150092902987344","0.04236383372526414","-0.06402411209804931","-0.06651282575720131","0.13825749586753716","-0.1886803083203119","0.3338316631956616","-0.8983452846264672","0.12858375818082826"
"-0.018518431548137797","0.0601788759977935","-0.025767380960023595","-0.08073456283997907","0.030841537442049555","-0.1922259852649563","0.3878596205766058","-0.8772370212144949","0.10134903837424021"
"-0.0076963422437930475","0.057137511425817175","-0.0036435736482665895","0.03346101814679327","-0.05023618689243295","-0.2831661676535351","0.45651608627369","-0.8388331744693377","0.0986115110293029"
"0.01461892144008574","0.03327921127085671","-3.206718416242107e-05","0.06889886815220665","0.02714150019491699","-0.38999758387752204","0.5365131288939531","-0.7861680572564668","0.11892478110107937"
"0.014489903649446748","0.04196392752300632","0.0024778337741642176","0.10766590627244846","0.02180444776211905","-0.42780843041931477","0.6299126715143375","-0.7102046943026311","0.16064960087197427"
"0.0264606364182117","0.04642937366198386","-0.012334980867078266","0.09112683090384306","0.007145981959248713","-0.42026082241257695","0.7153710239059597","-0.6292149261238199","0.19397388896944973"
"0.029909455269471738","0.03850084368319448","-0.013332497663648466","0.07841372244337189","-0.0001923454709957078","-0.3836148800004415","0.800801512472218","-0.5365232644159964","0.22371896220996235"
"0.033653859656001685","0.03756807545039573","-0.022764504309478927","0.0391287250386368","-0.028807323050485424","-0.3370672524862191","0.8542164656951525","-0.4662063619248635","0.23189068562768558"
"0.024993299754526525","0.029207439029686214","-0.008315793625245404","-0.0009276273451614615","-0.0449063143508002","-0.24724829032243545","0.8869843243233063","-0.4176441634126946","0.2330674137998377"
"0.013154473234399939","0.012141519752139543","0.02448082383416272","-0.04309297900147076","-0.1699082195369153","-0.1010552489340495","0.9164921153838632","-0.3890820444833695","0.19959603468084328"
"0.0008072781063824402","-0.04130589224374717","0.012178694947070266","-0.007688632682117532","-0.10071082178378211","-0.04090979258968174","0.9289751091469692","-0.3773537656250924","0.17537504647071156"
"-0.004836768824406613","-0.1496004918151638","0.02435050642243688","0.09296471988915464","-0.07141447253271502","-0.04029093727080131","0.9410401455296148","-0.36251201791354937","0.1604534795099489"
"0.004955103793492497","-0.11943613827343136","0.048158320351012404","0.022546325938057048","0.14764879351161747","-0.052553980119047695","0.9394797713092262","-0.34929296795180165","0.1799512115846366"
"0.004913702562168041","0.049524751539200204","0.009883600866613745","0.09124910010297065","0.17669863316601275","0.33602891493138143","0.9123682692299798","-0.36880491894324363","0.2380848519783198"
"-0.07532477220261635","-0.12864956168648806","0.045816324393847585","0.11941145138549263","-0.10517910738559098","-0.1661151445754089","0.9026716580032814","-0.3754804072472799","0.25683078549857696"
"0.02875888616638526","0.06832345919754294","-0.11640510280490238","-0.06823518479058131","0.48079813687390743","0.13461941779724018","0.8672845997909042","-0.3870239888007022","0.3131829901871965"
"0.018929463594494225","0.04378999272708227","-0.07817521994504523","0.04144028682686787","0.04318855694913683","0.24853976102691236","0.8147055613288919","-0.43090279136833975","0.37682437216442505"
"-0.019452366301270747","0.00470348252079994","0.02418507972387524","0.048717711048958126","0.09321564529118859","0.20609113991892158","0.7687302494781657","-0.4662063619248635","0.408481628684685"
"0.0024710299140254777","0.03160687624323311","-0.07328470281403439","-0.04618629346443887","0.02038043601435458","0.21555355908878357","0.7453524999977059","-0.4985679682683436","0.4148228860568382"
"-0.005404832230951375","0.009863093116678453","-0.03851824783792096","-0.02220131269384299","-0.03877708059277529","0.22609594146218204","0.7127796881471006","-0.5427106241286307","0.401453946545443"
"-0.0018616570850449304","0.009334593699253059","-0.012789336343776908","-0.016545158797192618","-0.036862442948722214","0.20364726813024475","0.6798446465667625","-0.5812068195262152","0.39253042457328924"
"0.011354963900786037","-0.023169886292003086","-0.007856688068563095","-0.046897765418417524","-0.0318149794595873","0.2278966890959439","0.6342872920964974","-0.6320381563551711","0.37071192304796813"
"0.006153813863235302","-0.0262278703425148","-0.01824160206416062","-0.0030887113710016474","-0.00920598083978657","0.19930314648006445","0.597590634092009","-0.6708641683685678","0.36007233915809245"
"0.00747287634961896","-0.012815951164455264","-0.016888861894898757","0.025216993326875457","0.03485270330634076","0.212789338664451","0.5549868451103358","-0.697328653621328","0.3682277191289802"
"0.0024536991660291853","0.007081096281595053","-0.023132119195171465","-0.00046223418879707146","0.04257587290303984","0.19086729907446293","0.5051941891847315","-0.7266691397639696","0.3784096865074634"
"-0.0007101251626253298","0.010184783898079091","-0.014284578912548807","-0.047578429385214435","0.01838203297337418","0.2031036462030713","0.4568504521780589","-0.7629489675032972","0.3783279692732862"
"0.010783049216908744","-0.01568904351626077","-0.024804973450289196","-0.06068241418305413","-0.004305944449243739","0.18294837787639684","0.4022094906391051","-0.8021971447849332","0.36674046546695466"
"0.0061769215272303585","-0.008755604814777853","-0.02817339973435959","-0.03178837320496545","0.0043281140066136","0.16004345042701046","0.3542558471875297","-0.8323819614640536","0.3534042128492303"
"-0.0033251424713976077","-0.0044682987113515244","-0.012297806328075648","-0.04162382311274081","-0.010826003616360977","0.15484021198120793","0.31995547816435155","-0.8622897321858919","0.33196161060112445"
"-0.003074809444784636","-0.025576594527409218","-0.009317647451365913","-0.07817076065669737","-0.050406110983342654","0.12320578421020224","0.2868532536318288","-0.8886222907923274","0.30064756646440893"
"-0.006772035683991379","-0.03718426156697051","-0.015682754629480537","-0.11100341024605359","-0.08408937373634637","0.11489370786837683","0.25806992203073803","-0.9178176576240116","0.2482177890162966"
"-0.024776757213461693","-0.08530076807914927","0.04572132279417422","-0.1038116707383126","-0.1773585532693368","0.06596530753916734","0.24285627338195226","-0.9348361949999143","0.1836448305694475"
"-0.014484218542336672","-0.04496217752153291","0.01762067571166326","-0.12868912038757996","-0.11584842565707673","-0.10330497003445012","0.2627510446919026","-0.9406013894443093","0.10445429327297505"
"-0.005318178490969981","0.02745200660938567","-0.07050487339750541","-0.03245844692616862","0.029984737096335812","-0.22229021934452808","0.30685948024323556","-0.9244007972756205","0.05629015544891423"
"-0.04104840394330386","0.04676280195010011","-0.0525702235809099","-0.06997583606635048","0.15020244146937328","-0.12580703480566338","0.3482372609088891","-0.9021975426991521","0.06071922954132021"
"-0.007542291150492784","0.06854782215777071","-0.0075869661355774465","0.016794859831063116","-0.0009866807635722276","-0.25814499770193794","0.397779142406217","-0.8749019195745454","0.05683766091790167"
"0.00930030744389354","0.04026250840794579","0.014774551700579622","0.06599714085952507","-0.003716714714286405","-0.34599818414692496","0.49937064968363964","-0.8161549839661","0.07990316743676733"
"0.017235864387524252","0.043331918349950586","0.01091383125750625","0.10592332949748043","0.050318188876179455","-0.40501999338289413","0.5935782432395816","-0.7495188349074298","0.12018322650740877"
"0.022850063918986366","0.042251652245150255","-0.00832343505826261","0.12523608646204323","0.016756026954162107","-0.42848795782828153","0.6698136694356949","-0.679782409660126","0.1575606894200749"
"0.031077355120554487","0.043275827609893645","0.003240118348934531","0.11903597904171499","0.0007767005066006529","-0.3957250291816704","0.7491977078979486","-0.5986739074996223","0.19390851518210792"
"0.0351009771136912","0.0423783757689826","-0.027621977405820782","0.06850125256764213","-0.007210689084977759","-0.3641270046647165","0.811306174634475","-0.5242540863077874","0.2188322716061638"
"0.021401020822630602","0.040726815089528245","-0.019489014372915076","-0.003265087097617196","-0.05234707489500145","-0.2977517381102857","0.8689007016620205","-0.44530918114701085","0.23690812380616766"
"0.015333333385265787","0.02284010131581501","0.022303428474692813","-0.04766507684916313","-0.1788160711758722","-0.12526826664569687","0.9052072661114122","-0.4101903078953419","0.2021619558340084"
"0.003420369776488452","-0.03170814338955958","0.017414976595848782","-0.008851923023108622","-0.07297729550967334","-0.11055649824156673","0.9191670426188148","-0.39772323981764574","0.16666398930741858"
"-0.007657829470467999","-0.09708086220851522","-0.010792237498469692","0.060774224282618146","0.013675374984880709","-0.10495039711759103","0.9322351767145665","-0.3714302592051077","0.1652911397732411"
"0.0030660522618978113","-0.1813852445140967","0.073980168192663","0.08159946086788525","0.019183787486821403","-0.04756188054674554","0.9422104261949056","-0.3535805839573586","0.17486839961881276"
"0.01181519154202063","0.03763247592972036","0.002974526920282507","0.10708825651279055","0.21767905863991374","0.2783904293493803","0.9070184147600774","-0.3693590108578079","0.24091226828085202"
"-0.05235190291421198","-0.10409428215044968","0.047088519728603784","0.08300026153505569","-0.030321083437814887","-0.16215447053457413","0.8901608004148112","-0.3914699167818489","0.26800970313402234"
"0.01797049553869998","0.09184106004252793","-0.13595064931161127","-0.09896904025318046","0.5352695778472175","0.11222656278818231","0.8599006860694239","-0.3943459176717301","0.33031092247074434"
"0.005447104472720269","0.03986364092309644","-0.0566284440886955","-0.031659364758641846","-0.045667382814311284","0.2751141364847192","0.8193030925139644","-0.44193185900109533","0.3562970029391043"
"-0.0023719513316021014","0.0038637625934512024","0.011534501491198263","0.03956099960878081","0.010191213132115129","0.24664679181621926","0.7831358471913935","-0.48574469824557037","0.36662606133910647"
"-0.002015708178345211","0.023399969998975954","-0.07009801872064346","-0.04878668013249889","0.02034214326147351","0.2134348897029694","0.7454360914737981","-0.5295179594961481","0.3702543065365756"
"-0.0023045539782832318","0.013051332330211288","-0.05165531687101217","-0.012088590901431837","-0.041026779824537646","0.20622219163350802","0.7037796725545038","-0.5685418614790319","0.3597127833277126"
"-0.0028533609981654857","0.01707106482921784","0.0023328530720540135","-0.022094447488306277","-0.030356025574818857","0.1993419766177197","0.678702229726835","-0.6040169366757779","0.35420504174416717"
"0.00473846944353897","-0.009700837656478145","-0.01573645118581765","-0.07116290632244748","-0.04149107945322053","0.21399549981536697","0.640445197501958","-0.6482915191823898","0.3323865402188461"
"0.0076683286742436985","-0.027172064466806634","-0.015261443187450886","-0.02047702816126413","-0.03272682563756757","0.21152735919065557","0.5978692723456497","-0.6917613491464204","0.3104699780125123"
"0.01192880422332958","-0.02300265278924073","-0.016163958384347737","0.04402141850293931","0.05965683398504833","0.21258062667455405","0.5550147089357","-0.7217086978621562","0.3157815982340324"
"0.0010036932503403023","0.000642918040466751","-0.019517927903250444","0.051718601550380966","0.07122124535512889","0.20437047944407363","0.5027421725526927","-0.7458908521334969","0.35374742523277464"
"0.004887706440173628","-0.008084593368911491","-0.008935575800505689","-0.031674768752232726","0.02849371303102948","0.188760764106666","0.44411668398667614","-0.7783184218001394","0.3698947507061958"
"0.015829185341826073","-0.0169573174719927","-0.023702128793211583","-0.04319791870780861","0.01308662390933439","0.13504897619505132","0.4038534563355855","-0.807302705997704","0.35562692161885096"
"0.0022977224340626555","0.0008068276475220327","-0.028262205577532507","-0.016130213719838353","0.01680054227938634","0.14250436262485794","0.36489982847660674","-0.830666915061831","0.3533551825087239"
"-0.005481857777601524","0.001746970773920862","-0.011110286332158738","-0.036906350075534534","-0.018305535572854314","0.16399927070063833","0.31516290020173027","-0.8555218952294283","0.34131006219099985"
"-0.002044592758339015","-0.015484416186793783","-0.01632091754902545","-0.05599478638343018","-0.042163595925694165","0.13912614064885181","0.28102971413073674","-0.8838993168538987","0.31545472929732343"
"-0.01822958574819976","-0.03003996323156983","-0.030868553812049268","-0.08411862768197499","-0.04194580589368312","0.13532806780944837","0.2476767151699375","-0.9112477106370352","0.28479442303402586"
"-0.01946199449460201","-0.09711825603521984","0.044616412884929804","-0.08601620714245123","-0.19510485093265376","0.11551256318725725","0.2239924636104724","-0.937316415950821","0.21902839296818918"
"-0.01104695352307418","-0.06345965713142172","0.026900679798016358","-0.10657476208867628","-0.12986835980565536","-0.08402095292141512","0.23555595113656405","-0.9458652626326699","0.15309892843399797"
"0.00015833787585499748","0.0264870381369246","-0.06691753038375295","-0.03343467501999049","0.01935131828067605","-0.2046370680130133","0.28663034302891627","-0.9309311662686995","0.09737104341449256"
"-0.04913608634156861","0.045181874054421166","-0.056417788367680674","-0.09446722312624646","0.136412263838081","-0.13136217137396655","0.3340824376239381","-0.9075009938814103","0.09604068684208719"
"-0.006088433957471386","0.07141260477030852","-0.008290391023593618","-0.0656290216249247","0.006724761677557037","-0.2628774207286707","0.386828659038135","-0.8807462700067352","0.074290827793475"
"0.002942811387257583","0.03401773934827309","0.01065455950048467","0.07689450357547158","-0.027503215485179772","-0.3417511378408828","0.4764387214090046","-0.8315904015861048","0.07586633606841205"
"0.015283266779943194","0.040708118176175936","0.008669604337918309","0.1306659942028276","0.06960816314001418","-0.3964530942627062","0.5661602390813306","-0.7647299772286823","0.12940093052260057"
"0.023653055242814084","0.05064033403588824","-0.01626928624485515","0.15394527951704137","0.008085351053362253","-0.43555018911432886","0.6613709303503797","-0.681365529416024","0.19081960373020854"
"0.03166274927509556","0.050892742366144474","-0.006107006432839957","0.11106441235843582","0.0005447900219647248","-0.4143392264201524","0.740950015590182","-0.5977504209753486","0.2262848833631274"
"0.03712097207459113","0.04314806536865284","-0.02985864550247819","0.06273534521665675","0.009539997003431576","-0.40239895909116524","0.8121420893953971","-0.5173147447111015","0.2566673510302224"
"0.022698901283685468","0.04009735234000036","-0.017902900708803453","0.0015771582876751818","-0.026491808149708737","-0.3362421120610452","0.8605694178781618","-0.4450057498604638","0.26261636567832497"
"0.011017014314858548","0.02711546216904403","0.030036558688103718","-0.055890809426691765","-0.17030311355100122","-0.1472825278126161","0.8997738201654173","-0.40591588455441746","0.2349305667390786"
"0.008467468720738907","-0.030015034013766748","0.011128555525289694","-0.046772607970491646","-0.06218352579132413","-0.06684589765978051","0.9106685758827714","-0.39306622920237927","0.1918655843276771"
"-0.006242485050771666","-0.11633037322213043","-0.008067963365227963","0.0320236329948445","-0.009908892184859554","-0.11217280272146621","0.9157676559243971","-0.3754935999119124","0.18781240951248634"
"0.00479046168752783","-0.18682812373443689","0.07956461005172268","0.11537753056388154","0.027433482435635093","-0.025338907389929353","0.9341856444900519","-0.3592798150785911","0.19884423612641275"
"-0.012048285629525998","0.04185486219511783","0.008302588375354145","0.10814728107216337","0.23153146199463773","0.34000900404104384","0.8965973440739129","-0.3729606083024757","0.27502104182642884"
"-0.05647276965999448","-0.09403326533208811","-0.015321335500288436","0.06868321224193437","-0.002249862949236244","-0.000509703931365338","0.8923899064439373","-0.35910831043836877","0.2994544948454214"
"0.056639245595736715","0.18561439024364773","-0.09949481806304564","-0.020523240142036762","0.4920227000621687","0.18029094033061616","0.8366901195411487","-0.3723669383940139","0.4032517256973421"
"-0.05608764192674377","0.006164220425145769","0.004355974094663062","0.012353695928893217","0.09697790826175287","0.2471321685369098","0.7920244074825337","-0.4200979990343364","0.4220630330049411"
"0.011701578860711664","0.02008022916153185","-0.030131258788497376","0.0060058064450524955","0.07319810872261369","0.241841562281383","0.7588943191246469","-0.4612591126876825","0.4373931861365898"
"-0.00793704707707474","0.02471394752068021","-0.0943667969328514","-0.05979283355318094","0.0020762608075016783","0.22441653800859276","0.7175722661097216","-0.5053753832187047","0.44054747137583095"
"-0.005183383784332241","0.012317997839837216","-0.02338201470735572","-0.01574030013206926","-0.05679142752625965","0.2452391993262167","0.6857796413693107","-0.5523544619749756","0.42724390565177744"
"0.003532056819131152","-0.0006416637785780316","-0.0021580377646787077","-0.0062555799033661985","-0.058081414638940405","0.22314727788398703","0.6551851611195548","-0.5980670449265282","0.40037527905430353"
