"AccX","AccY","AccZ","GyroX","GyroY","GyroZ","MagX","MagY","MagZ"
"0.01565171804926642","-0.05161579379326126","0.030266201902934234","0.10196501008689005","-0.09731040958699565","0.35178644349884836","-0.06005385099145086","0.0922593302043445","-0.6597571090006076"
"0.11803620225951346","-0.07120656860039508","-0.07679737096573612","0.06909098082220329","-0.05222786359883242","0.2666564243466722","-0.08074328814353128","-0.013018022628784742","-0.6820289697091685"
"0.08874621452187412","0.0025519750586054674","-0.020096999970522795","-0.02655679003838535","-0.04691469641827419","-0.0469392113190007","-0.11150563519191052","-0.03259623555744729","-0.7085952716447789"
"0.08788993747304903","-0.025552695345583975","-0.006737456940968877","0.07468478389708331","0.06825436205466928","-0.019655797052194012","-0.09014467071341004","-0.050536727252533505","-0.6932981758256677"
"0.08347870437717654","-0.01674025623228076","0.034749287485990384","-0.004532390594018376","0.07988611367248644","-0.023640545112085885","-0.0409952659178185","-0.056500348512172574","-0.6587649449929789"
"0.06425715969028421","0.09460649615761585","0.09402795277099497","-0.10508397518192043","0.07800839772678961","0.10463979754972265","-0.01637259728242117","-0.009064331973989346","-0.6299773803537221"
"0.0017895614093908492","-0.0483359731022291","-0.07239359751161455","-0.027239317503118848","0.004906460295309104","-0.017674956301726778","-0.03946034631457284","-0.009215578956599569","-0.6438972932965726"
"-0.14634871186138898","-0.02237682434683858","-0.07256392355899864","0.09654340430815837","0.1838674246944288","-0.1474315587368093","0.019698013393848874","-0.020510656353249047","-0.5984650667979924"
"-0.08756560496941818","-0.0227868019332176","-0.020013787245083237","0.16539623226808567","0.06279980807238753","0.25285973877027373","0.06529791660693492","-0.06550545206273913","-0.5546173410280134"
"-0.055259896968580975","0.13508866432177558","0.06665096610138065","-0.10184353515440134","0.10398801583763924","0.10079633216344488","0.08905719296550665","-0.10647802332843856","-0.518855011499307"
"-0.06573679042181498","0.021015103603812417","-0.04349927880156328","0.027214685638875632","-0.243641615253848","0.19551050656242328","0.009976855906626987","-0.11495021758871442","-0.5788883381698559"
"0.033271805897945546","-0.09207051923865728","-0.05916147396788995","-0.13228592987347793","-0.08086323847655927","0.16670614106436263","-0.06990291844560964","-0.15592869693967204","-0.627148972511079"
"0.06735022614676099","-0.024832531877421234","-0.005272132853931673","-0.17026326082401605","-0.09994797623903123","-0.19359350985031792","-0.10408685710955712","-0.10113711425501502","-0.6852275880024192"
"0.08252851811186535","-0.10455279828845263","-0.05831504452630945","-0.11979901685278023","-0.09635956267481981","-0.14456265546648195","-0.15416360916544286","-0.017934731180668677","-0.7351615735803895"
"0.06128597208382269","0.011506783670464645","0.036963526101983606","0.006315673796336427","0.031666599697544824","-0.24239369864457982","-0.1553787538513454","0.025077311116165502","-0.7359908449897505"
"0.07219162908121293","0.03462752370814953","0.007450312746475634","0.0115275119597601","0.0061739805704095945","-0.0787984542189828","-0.14655296613268393","0.08455755026173949","-0.7232704139068692"
"0.07325970969567351","-0.016469155434796864","0.07545461241311881","0.11893948900721164","0.027616818675077637","0.09366299880586709","-0.13120377010022846","0.038846694618954125","-0.7066257520475457"
"0.04379713838131384","-0.018592223950061854","0.034693378936085685","0.12964181186782636","-0.007069167175354944","0.01519056523277215","-0.1690970978053528","-0.020875776022206548","-0.7227225024399698"
"-0.1642320892770882","-0.1520037538235174","-0.0722531760374353","-0.055444190992243444","0.04069220395259828","-0.43288022583470764","-0.19215286934576997","-0.004118082995814352","-0.7246327883651056"
"-0.12857471290083164","-0.052162984973458816","-0.015461791123772458","-0.12352995826932803","-0.03604362233019772","-0.3024965013279706","-0.23884000727782165","0.107397026252935","-0.7415143849128181"
"-0.11130072973520862","0.10673950424132765","-0.024990948385436754","-0.13424793542959257","-0.02137246788702545","-0.16558205731641806","-0.25115134159552027","0.1938535826875045","-0.7193017578763543"
"-0.043673593470336315","0.02241468226076149","0.05989643315359158","-0.028190055301853124","0.06352079807883738","0.09054757168668247","-0.200882724589229","0.22692704396297458","-0.6716926939282007"
"0.013011009632269333","-0.021178492294156692","0.03731457978743174","0.09534845943488642","-0.03086522736414791","0.24542077350651034","-0.15959978276027093","0.19154942943680184","-0.6716186518380792"
"0.09287368865412135","0.021724456303977336","-0.01892942141669901","0.09958033844022944","-0.022363829145894","0.190551196386581","-0.14079701762051308","0.12378487314216313","-0.6890629682707152"
"0.0902775128938606","0.006381481722450077","-0.013627210567597216","0.10011780272820765","-0.036834065502406504","0.09287008584170628","-0.13628819128597924","0.05682617967674453","-0.6945124661036609"
"0.09114394651352029","-0.013897024248853026","0.024291658236257525","0.14632929529456734","0.04313629392859114","0.028563402788328238","-0.11179343261751917","-0.03751294410933122","-0.6954898216932653"
"0.08530735589221305","-0.03963995764428706","0.02032787206789762","0.11028787940072741","0.08836105354187979","0.060174680179518214","-0.0710221306563094","-0.08947100910414983","-0.6621856895565943"
"0.07104088960565227","0.026923604113392428","0.06624920466136779","0.05133952682926076","0.0430784162904587","0.2199898922559703","-0.0742198798297376","-0.11899134790533135","-0.6298441045915033"
"0.01158908971542474","-0.020855000851760265","-0.10463852861944298","-0.13511935811010092","0.0642235979704456","-0.1926564308926733","-0.07390010491239482","-0.12422591144410706","-0.6157464906323611"
"-0.19166264327731544","-0.05510767185655844","-0.0028719658045344453","0.030243792621121767","0.16589228393729594","-0.18407855428038797","0.02145677543923455","-0.09077433271211137","-0.5521147183819051"
"-0.06979941875565666","-0.0009868051058515024","0.08179308173371008","0.002168275828103778","0.0409906872006813","0.030725892690585045","0.057911116016316","-0.09889676832510108","-0.528154698018573"
"-0.06811967819454905","0.08262816521602676","-0.08808569725114605","-0.06909995838679665","0.022902271637489247","-0.027907858519205977","0.0587745082931416","-0.09668005473621998","-0.5331155180567165"
"-0.06396329689915717","0.011286493482570522","0.025184764816014275","0.04643764379890414","-0.1471843971891232","0.23796739164339856","0.021520730422702822","-0.0997841627308845","-0.5564387764450033"
"0.0009543787769145531","-0.0722144648168076","-0.03230326663343785","0.05047958396849561","-0.11500443038748519","0.2527011561774416","-0.07335648755291202","-0.18626080665533187","-0.5886915109019485"
"0.030656879545374747","-0.01839929332117761","-0.02269349704400398","-0.19669293673284757","-0.06403820907145825","-0.07182658677410686","-0.10165656773775172","-0.1580437914621119","-0.6317099652625662"
"0.11862372081856135","-0.1184404771779651","-0.042594340412408095","-0.18603235867129914","-0.08301959390869372","-0.2026615508404481","-0.1334102170298938","-0.08604431965438694","-0.6976370423067901"
"0.06065001449464055","-0.01429369627461934","0.01944997781451029","-0.057176600153493594","0.0026929713661039373","-0.3445064718291462","-0.1310758601332912","0.019685592509521337","-0.7075438739650529"
"0.057517103029504954","0.018873739942704953","-0.026637000110537993","-0.0021695306048698897","0.021740584757830937","-0.18402088788299445","-0.11582259657603848","0.09417945791326336","-0.6994140524697072"
"0.07620199013899039","-0.025688245744325926","0.02421039580907046","-0.006130538045271647","0.07764790272356469","-0.21657356921163357","-0.08761844886640188","0.12498657768368342","-0.6756909667947641"
"0.048950426167856095","0.007825051889174909","0.07186216303203292","0.006537443041375982","0.01004020679765675","-0.2563633834131588","-0.08976094081259861","0.18125754491699667","-0.6551961162491204"
"-0.07664338494882074","-0.016642959320300344","-0.1805415362086691","-0.11047427236135243","0.20758898809471127","-0.19930248319227586","-0.0790165035898801","0.2055043268166983","-0.6144581582642462"
"-0.10801156333415603","-0.09631998265934043","0.044084715121240715","-0.015993268634666005","-0.07739636795242597","-0.07146905511026706","-0.032745073050373635","0.25488410340483325","-0.5373655340296932"
"-0.12581681328189678","-0.031059534244167904","0.04220852820234569","0.07580145727210601","-0.07896402512241327","-0.0661406799911063","-0.061492838119493395","0.2791308853045348","-0.5680781930121103"
"-0.07490114241334633","0.01732613692393952","0.015480483773264758","-0.0402261244926351","-0.08765311225289667","0.1484547262893152","-0.07965605342456566","0.25958693927036985","-0.5928971016208523"
"-0.023126069397252418","0.006632873658276401","0.015142809133828703","-0.005358259262545673","-0.1375105633869864","0.2652291810111827","-0.09759542628749793","0.2479716436527253","-0.614547008772392"
"0.05888042734538067","0.0036569103917615357","-0.05891183579157127","0.08872669068299952","-0.1171210982963288","0.269352328424819","-0.1280379984185344","0.1537140514432129","-0.6824732222498977"
"0.11324933229769654","-0.03714433343186628","-0.04667696475428637","0.024322292873571523","0.006209533976690953","0.2112101832528077","-0.11860463835692114","0.08091580650857769","-0.6983626547899813"
"0.08599065872697804","-0.04394264330742104","-0.0018175045493550534","0.11573035757899224","0.04681813853721638","0.052345025073413744","-0.08797020127547917","0.047643833568431625","-0.692602180178525"
"0.09878325033050184","0.0036321869969480505","0.030214193949534517","0.08170834633998306","0.10979231611892133","-0.04045029995229546","-0.04137899581862991","0.013037814976981319","-0.6643329101701192"
"0.06889402491362083","0.003962929969878404","0.05997314488485618","0.08348771840018278","-0.0228103137829157","0.13167380464780237","-0.024079172790383577","-0.03333238298062049","-0.6409356096917108"
"0.063376663126392","-0.03985118341901377","-0.058969044540310975","-0.06979396567127337","0.025351322553893458","-0.10711553865906825","-0.04486454241766677","-0.04759095594278905","-0.6409208012736864"
"-0.1576615692217789","-0.04312767771989277","-0.15767103870114083","-0.15279306241478252","0.3892420894903914","-0.3649347931057988","0.029067418471993484","0.047561120374816655","-0.5884990014676325"
"-0.061096018825080436","0.03630402434535056","0.05460852449167472","-0.004341773405282025","-0.017520297657610456","0.22752977371517236","0.0689753281563773","0.07677896521077772","-0.5533438170779228"
"-0.14198138640250915","-0.11623674370148557","0.05324461591376698","0.12130328825433913","0.047861589670404124","-0.01926943218965746","0.07834473323452228","-0.0061102893448834045","-0.5504857923992311"
"-0.15345049869881605","0.1364940641614927","0.07186086283319792","-0.09866049422559833","-0.1901378729174144","0.2863206658578607","0.06088502274760384","-0.02012781242851693","-0.5616365311715358"
"0.014879037391156912","-0.03468030992590069","-0.040884578944392194","-0.0023378665071046192","-0.158106734328117","0.2715724847244693","-0.02164888341857784","-0.05525965060794808","-0.6224843208334216"
"0.0715998916388953","-0.013442971992944412","-0.07999716029865409","-0.2020884520121628","-0.11736087708287748","0.0050833757616108085","-0.07847288623039694","-0.040507161718193005","-0.6713076750595687"
"0.08311048962068816","-0.14863578379342607","-0.0437203126035121","-0.17767296265827878","-0.10875364546918141","-0.02783865884233376","-0.1825915993172195","0.02896837606722385","-0.7508584966861571"
"0.09505657010888167","0.005689343091327847","-0.048173493613363406","0.09561458252893389","0.10254107488432819","-0.21468499469699592","-0.20692647052700852","0.0570116935538524","-0.7636825866952086"
"0.05880229987742217","0.007855155720061159","0.006106427230626784","0.10977128751228234","0.09184198006384524","-0.1814835663976798","-0.12554375406326038","0.04140489553575987","-0.713052605470096"
"0.07025398974837434","-0.01075774354179257","0.02568001055226314","0.16773394101579672","0.08398715774587091","0.007944494068290047","-0.06696098920605559","0.05505139086517768","-0.6683904167087797"
"0.06658379568608816","0.013711182424974806","0.09260683544434753","0.08697340912221622","-0.05844888287466808","-0.1421853582339343","-0.06897557118531543","0.01759649356221761","-0.6626299420973236"
"0.020158110401112348","0.06216587618876065","0.02943537484737366","-0.14805502772076098","-0.050699893952135935","-0.2998870968459141","-0.12448849683602925","0.0355558911301301","-0.6997102208301934"
"-0.18175608034017837","0.0066816052740204385","-0.1565658696913967","-0.052605544655737156","0.22430735728096823","-0.04163390275879734","-0.12410476693521783","0.13292586265366857","-0.6675167200453456"
"-0.11230076132507734","-0.121018429546677","-0.014692073413456552","-0.08857912525109439","-0.04775640264140029","-0.15234761911460645","-0.13689576362893066","0.14910574494180764","-0.6694566228065301"
"-0.09837063378807787","0.07421655611618133","0.07161252485571423","-0.1388816081259484","-0.06324115131203432","-0.06257689663218709","-0.18591725845758494","0.27072958806735753","-0.6558921118962631"
"-0.019516580377570016","-0.010559823327678559","0.02568209087039913","-0.004710849610026675","-0.08112120737794959","0.11408122846297586","-0.193623833965547","0.27851644443768075","-0.6597423005825833"
"0.03809461449502337","-0.016723624281514873","-0.013131834811464857","0.12008747098153405","-0.08895949322788609","0.21175801402804606","-0.18585330347411633","0.20498441531397565","-0.6862641772641208"
"0.10939608557798364","-0.018301164811658898","-0.07767240478168647","0.0402385411375632","-0.01734253062620367","0.08135987292196072","-0.18566143852371078","0.13952283065298796","-0.7103278565536231"
"0.09103456805837841","0.00037285686925944976","0.002318687984524939","0.10569595150343783","0.01779581030740404","-0.02805779115242912","-0.16637901100793875","0.12229367242299045","-0.7108165343484253"
"0.0810969103889939","-0.024268708746457795","-0.01292640339553595","0.10816933084811427","0.11369492257585175","-0.031031935597999643","-0.11176145512578467","0.059038166797419064","-0.7081362106860253"
"0.06529625501413218","-0.015803877404161535","0.07097932802307262","0.05231948598734142","0.10042440697548458","0.02122823703987315","-0.048541953967109155","0.05148408898626935","-0.6605567635739203"
"0.07746810044648535","0.003405052761313766","0.12132952790817973","-0.003468628751812178","-0.04288062504044296","0.04721415736532576","-0.032745073050373635","0.04033435048697188","-0.638788389078186"
"0.03365463049094217","0.02591903428713308","-0.015019723519874812","-0.15650313143179717","-0.08757042991270747","-0.16448639576594132","-0.11364812713810725","0.06896611326531832","-0.6776752948100215"
"-0.226390302784866","-0.07975455969652076","-0.07387062338816668","0.21185297552895965","0.3921028984609378","-0.06580621488622392","-0.03869288651295037","0.1169775773076514","-0.6107412453401446"
"-0.05731464937588935","-0.056629495351636756","-0.04065574394943341","-0.1321346049768627","-0.05742362185632196","-0.11993477879964659","-0.09059235559769008","0.09966097941583234","-0.6624966663351048"
"-0.10762092599436356","0.08162110059715254","0.030976110466840463","-0.11810835249059634","-0.08898429792994285","0.04058252166507156","-0.11224111750179921","0.1751013200779399","-0.6503981888092443"
"-0.02322763510559847","-0.001188218029626348","0.06573432592271052","-0.04570721661003621","-0.09698794846025774","0.2294760146272035","-0.09836288608912075","0.17153283658197996","-0.6444007795093991"
"0.08032133901456993","0.006944057457106076","-0.023307190894120717","0.11864205731386447","-0.16995511367722985","0.27905469978627784","-0.1513815673845602","0.10423856387389491","-0.7062407331789138"
"0.1123649293604064","-0.10405383976547612","-0.07338434902387928","-0.02283941568153411","-0.025857984842289742","0.044430312031153836","-0.1895307150235587","0.032923248339070885","-0.739796608421998"
"0.07088400964999161","0.0208180149872367","0.016311557866603987","0.047951414575044704","0.06709267517501097","-0.10921459552419219","-0.13309044211255103","0.06349286308211083","-0.710135347119307"
"0.08868840019558483","-0.04875010867629958","0.02817548217626536","0.11758800113744118","0.06795009104277301","-0.06635404566146232","-0.08202238781290243","0.0335565950787512","-0.6795263470630603"
"0.07128253786404791","0.0390033899546534","0.05059091009154609","0.08532970765898189","0.032508305920670916","0.007864914439886994","-0.06059746835093331","0.012773132757413428","-0.6592388143697568"
"0.07728139142355814","-0.11776688317194683","-0.08530847253960083","0.06412334973331728","0.0012037797369561928","0.0496707458942895","-0.09663610153546921","-0.029980135405111068","-0.673143918894583"
"-0.22628092432972408","0.09716781657556188","0.0361561026254529","-0.04460411029471006","0.24679695381243158","-0.11619799624854682","0.004124974919253371","0.06311592724263691","-0.5972359681019748"
"-0.01125850701435721","-0.023165178813141445","-0.02319277339664132","-0.0026393161373619136","0.06228800438661635","0.02778346476358095","0.006363399340653226","0.03913264594545158","-0.5991906792811835"
"-0.19647529530355867","0.004255485983850289","0.016883385314233945","-0.021603247819184216","-0.07870274892741538","0.08752008582352294","0.03533500685191265","0.04000113447840872","-0.5722097416408924"
"-0.06853375377472906","0.018190166766227152","0.0013068732511333223","0.014265970778507343","-0.1367002764531322","0.17914766630201345","0.010616405741312557","0.027008073378549144","-0.6020042787058023"
"0.03641956158199326","-0.0013019805728649895","-0.01622240744224341","0.007771523663772555","-0.15751968971277364","0.18355914570261733","-0.0599259410245136","-0.025903556576944865","-0.6557588361340442"
"0.06527828569650174","-0.029245820013148342","-0.029905699981710603","-0.13762404605407705","-0.16370432875892607","0.04551588196208675","-0.11566270911736709","-0.0074171578039998725","-0.7021091845501315"
"0.08771258812078324","-0.12600801477644197","-0.03512209770770285","-0.14885339700290337","-0.0827095351329842","-0.01917428263395816","-0.20005130980413757","0.049533239234007785","-0.7592400612879159"
"0.06000702543334215","0.0255888900644303","0.018357030673815104","0.08508445696446755","0.01472912230978648","-0.09708014385266182","-0.22048492702234382","0.06960536809025684","-0.765518830530223"
"0.0880836935935861","0.029385964424281437","-0.019886367759253915","0.09359517787410312","0.04367620961002664","-0.05323061527463317","-0.21824650260094397","0.05293747795978947","-0.7658890409808308"
"0.09103222423433965","-0.0007428975478698253","0.0012457639058886456","0.06617406298744774","0.03283986210482962","-0.03960981221028497","-0.20395256379571997","0.027851747953421803","-0.7591808276158187"
"0.06218990688810246","-0.021896992567242847","0.0801912367689986","0.05641621620570738","0.004879175123046667","-0.06711524210705669","-0.2034409239279713","0.011956635374728545","-0.7595954633204993"
"-0.035892097661670334","-0.03745618250872659","-0.07804946244383446","0.01665429509508625","0.167339224890607","-0.16911412415677088","-0.16775404315251266","-0.01955590977552201","-0.7350875314902678"
"-0.3137055609752787","-0.23002423486627555","0.03426041272403298","-0.0012301682638811734","-0.16248063012412586","0.23280624907667896","-0.09602852919251814","-0.00994109182630799","-0.6862049435920236"
"-0.1600835207284922","0.19672667386013873","-0.01644474144302723","-0.12602421001353759","-0.0315200714984464","-0.34000849283245205","-0.09874661598993217","0.03604153573835512","-0.6877154022305031"
"-0.07585429752243995","0.02653192167285588","0.06573172552504054","-0.1709468319087262","-0.00013154005709944443","-0.004665417049749838","-0.12461640680296615","0.1453600188881013","-0.6867084298048501"
"0.0012309500134876153","-0.06084153688309668","0.018477039026284968","0.1529719364459874","-0.1325909641457288","0.25075491526541044","-0.13737542600494485","0.09682155364073572","-0.7082102527761469"
"0.09107519434171682","0.002195968152461737","-0.035263819380717105","0.14912097873212407","-0.054562812885775525","0.08450269157990728","-0.1642684965534758","0.0056857936816624485","-0.7315038943283849"
"0.1300170494709485","-0.014488290098580173","-0.05055805827674072","0.01623110719455195","-0.056163542991838504","-0.007638984831346428","-0.2047520010890773","-0.03218266958937246","-0.7562191440109569"
"0.08377230740176457","-0.02984041225302867","-0.02744442358706871","0.06851698983504208","0.04657339881025633","-0.03521563272889914","-0.18802777291204756","-0.03700130392597007","-0.7485780003104133"
"0.0792477113498843","-0.01772819410777422","0.011333226547298974","0.025900246278276483","0.08807166535121758","-0.07665614755581372","-0.1332183520794883","-0.04139219288987315","-0.713008180216023"
"0.07306564106526461","-0.00915691828057631","0.025765823675372685","0.04201321690786796","0.1669671543597556","0.04625112852885407","-0.07249309527608643","-0.0466078505558226","-0.6670872759226406"
"0.05045047355265918","0.023464989951627015","0.1004509350158608","-0.05257945415632074","0.020068747839205245","0.06178933930653663","-0.032617163083436734","-0.03938108066797782","-0.6288519405838746"
"-0.1403407095753808","0.007542807684677872","-0.0780767666193693","-0.02479620313776546","0.1700760103508696","-0.042004409362050674","-0.010648626261984812","0.003944090147541585","-0.6149764528950971"
"-0.11436332647918157","-0.07260614725734416","-0.07525663534626931","-0.018365938651595064","-0.0806631472133014","0.04979905362849007","-0.0036135780804428196","-0.019956477956028777","-0.6028927837872609"
"-0.15698967299733582","0.07729014061771655","-0.005982041417837896","-0.17870092833528567","-0.11289603071266051","0.03994963295367773","-0.01592491239814148","0.030582464959767335","-0.6154799391079235"
"-0.029649712971786663","0.022649192766560442","0.03214238882182926","0.03358546378637659","-0.1133425153496822","0.10620688189889141","-0.05973407607410807","0.004770040466639606","-0.65038338039122"
"0.06763461013012989","0.009392613248859401","-0.006558029501739831","0.023699251747507463","-0.07591552723963733","0.20501104553300484","-0.11959594060068399","-0.01604059904688594","-0.6966596867171858"
"0.11795885606623457","-0.09641145838855279","-0.032689425687430794","-0.02435788274756964","-0.20986587928655837","0.19729816488162222","-0.18390267647832512","-0.056852470393562005","-0.7378122804067406"
"0.05332322054949299","-0.048377552979143805","-0.004289182534676904","-0.05215678806577476","0.0038274557558399987","-0.1139057569521546","-0.20507177600642007","-0.042806588500689066","-0.7526355068490742"
"0.14245416109526113","0.03234728325814694","-0.13160205205952952","0.02687394371649721","0.08278826381312746","-0.22543977781088645","-0.19400756386635842","-0.0269055678367376","-0.7465344386230587"
"0.07343979350931783","0.011755763973429917","0.00721445667780789","0.03691669875186485","0.04284690573792893","0.04090833681034492","-0.13436954178192217","-0.03391373857002854","-0.713200689650339"
"0.0758548697988508","-0.026283669581744544","0.03898273489272786","0.17847800867547767","0.06404335046883314","-0.0030870877530893375","-0.09215925269266986","-0.042267771125140144","-0.6745655270249167"
"0.026667691031414056","0.03505163845267955","-0.08326976076633168","-0.14323350342860697","0.05210071325190459","-0.42239935810843626","-0.05397812756193722","-0.03167575587421788","-0.6516124790872376"
"-0.17616215363435025","-0.006008490000594619","-0.05019530280177765","0.2313686690924404","0.14685054099172234","-0.005106564989810226","0.030922112992581925","-0.01606068653676386","-0.5829754615445653"
"-0.03372796679922004","0.09166264087205453","0.0710755427368621","-0.4527294437059246","-0.05433957056726467","-0.45702802974324197","0.01803518382366596","0.0354330029567593","-0.5989389361747703"
"-0.16295861154936478","0.1351302441986903","-0.07856434118249171","-0.0010422123060852978","-0.09498703582767902","0.24928442213187582","0.04006767562858651","0.12496649019380551","-0.5475389172123936"
"-0.09365954747018071","-0.10479396157455793","-0.0064267094194055295","0.25822622919170113","-0.04256973944133155","0.19739908107706086","0.03312855992224729","0.04885026457815849","-0.5921418723016125"
"-0.0028129277280440125","0.00711586550851765","0.029335259537079193","0.0993977049443145","-0.13008568923799593","0.32063217230700203","-0.0081543819067108","-0.04810023289204692","-0.6162795936812363"
"0.024462152610945774","-0.023047091962703672","0.011615889774026472","-0.041916788854819","-0.07091241883478863","0.1738135245431133","-0.05116410828932043","-0.12227624330889715","-0.6435418912639892"
"0.13757197562253487","-0.04331977675123872","-0.06445458342514679","-0.2533406290657745","-0.18409379384958363","-0.06380519089666895","-0.13724751603800758","-0.06690921312009028","-0.7225151845876293"
"0.07730239989969218","-0.06181367440536255","0.00604154730876063","-0.05528764799574494","-0.02085156914383347","-0.10001680513992657","-0.1598556026941451","0.01669610136886612","-0.7442835590833637"
