"AccX","AccY","AccZ","GyroX","GyroY","GyroZ","MagX","MagY","MagZ"
"-0.288478201571481","-0.13695183838039313","0.04779288219864099","-0.17926448312268028","0.02036888473409205","0.2751478013628672","-0.5092736548746455","0.16577836154048156","-0.004104035081707133"
"-0.004234847644888604","-0.23672691102492643","-0.352349810264655","0.3316762031488013","0.2054061743137163","-0.07142580531222192","-0.5498530918854493","0.16424225937334647","0.04343542930173224"
"-0.1336686238117254","0.18835248664951654","-0.03303917917404394","-0.12419787505438833","-0.1992246621042079","-0.3952529015354392","-0.5543299407282487","0.1979892423682528","0.028326400391529706"
"-0.013125753498565207","0.03610111454600678","0.04568135929061221","-0.057322706950225545","-0.28645453100381757","-0.2144543291074219","-0.5634755033642534","0.2430324843768602","-0.019451479522101037"
"0.07988273140945096","0.021424249592653145","-0.05683151765558235","0.1359870213258992","0.043709282546102325","-0.2583961239212802","-0.6029037506726231","0.2958153180737252","-0.07817574203930103"
"0.08561799070481603","0.1006771581871632","-0.018144101320363187","0.12537340616330034","0.055461750380595705","0.009190088251989966","-0.5864033649377337","0.2962407002123164","-0.12526651135660383"
"0.07818488871401734","0.060464427625410794","0.035036631428523854","-0.0002105515466875554","-0.09161359634795953","0.21869239831461623","-0.5625801335956936","0.2869768225274402","-0.1731362034619853"
"0.08171388300346213","-0.0076134732495023475","-0.01682179910517522","-0.05266294375445328","-0.022567227702759436","0.1971107490900933","-0.5397801819891503","0.2513983331024882","-0.1905479413749679"
"0.06840182186548231","-0.032716908137988165","-0.026198833103145327","-0.10343505561880283","0.06315286166499542","0.101889110394052","-0.521808831634484","0.230897277256493","-0.1606601112765049"
"0.07278438218061402","-0.018610519095904325","0.07030322462887621","-0.05317431754301506","-0.008544054759649956","0.14056163814607786","-0.5049566934905173","0.21884478332974078","-0.1346950311126814"
"0.0740344997954179","-0.024225465674466498","0.02606694972555708","0.003955788124121413","-0.00521228717938581","0.06322523260163515","-0.5000001822717036","0.19670127978196258","-0.12871243023086054"
"-0.05119726863473929","0.15858129477858562","-0.339373825891424","-0.30420144862813986","0.2509806802260053","-0.003666346714907194","-0.5161807930892501","0.1939362958811194","-0.09923183162806606"
"-0.19825660157301228","-0.05772470930957016","-0.051364181554436436","-0.10028332328929952","0.00603755470909741","0.031419331119242055","-0.4979216453089753","0.1481604513004937","0.021757386155946194"
"-0.0848311435908709","-0.09927215392028471","-0.1247630061874659","0.19192505207469954","-0.007771553655262228","-0.023011981380496573","-0.4858341534334167","0.13892020595665033","0.015075827943377964"
"-0.0505175596635004","0.007862307458890487","-0.042340801639584445","0.017493887366306585","-0.03729791343086795","-0.3746083312685609","-0.4945320311851412","0.17055209442911679","0.005884242875689327"
"-0.006695862885581171","0.06394133693301868","0.023412723823802203","0.12731975741976512","-0.2826428751210953","-0.4435196761538111","-0.5343759858860567","0.23674628166212278","-0.046302103083778225"
"0.1302561195229015","0.03945661061302371","-0.026790423573067188","0.013099203644605125","0.053976775550797614","-0.034096904619464956","-0.5818305836197313","0.2831838317916681","-0.11408911743185535"
"0.06531188050772388","0.13122173576870774","0.049312814636747894","0.01718027956332124","-0.0942842359360708","-0.052538618505910996","-0.5885778343756649","0.31070369292441913","-0.15789093710595908"
"0.05732412818364747","0.06239373391425325","-0.020098300169357784","-0.05598687338010493","-0.021436133288971135","0.10986725647344477","-0.5775775772190718","0.3049728502239536","-0.1655750252187731"
"0.07504242225955042","-0.020927349837591855","0.006974960052402163","-0.0564773747691336","-0.023265066653956314","0.15025680120786253","-0.5476146674640495","0.2733409617514872","-0.13462098902255987"
"0.08271368021092697","-0.011195995444473592","0.018335837432804716","-0.02812952534320703","-0.014133629003460681","0.09380428147948122","-0.5296433171093831","0.25627841152577124","-0.12817636549838057"
"0.07574439755915749","-0.0051103646592369255","0.06413638155450403","-0.036952288625862965","-0.01761042140841669","0.15703260290160048","-0.5172360503164815","0.23484387820897848","-0.1268747055540438"
"0.06410402985308557","-0.06329724441367933","-0.11926316511544516","-0.02110700652028395","0.02100471193014703","-0.048108397526154215","-0.5144859860273331","0.2231695017387518","-0.14111151864261454"
"-0.3204948379408718","0.07651592330956469","-0.06689765703609879","-0.3176954549263113","1.0","0.33951791745337817","-0.5468152301706926","0.19361725927717596","0.04690059911942053"
"-0.1829279923595558","-0.06551927303600133","-0.004208570206907333","0.13715587569975474","-0.08633763622048643","0.29747911375350583","-0.5392685421214019","0.18357351433821575","0.0629825410938202"
"-0.10472239693310344","-0.1104238769088094","-0.11448103380034062","0.1997417656998584","0.024754356057727408","-0.08522393254855519","-0.5625481561039593","0.20455903317538437","0.0627900316595042"
"-0.04345483656005253","0.018879561125473013","-0.0462205949632038","-0.022787756492689597","-0.29312699585708635","-0.31880167519098696","-0.5744757605208465","0.24460403505554457","0.02600888297072534"
"0.13355309867074994","0.06834381430074796","-0.07257822574618356","0.22122990101922033","-0.02403401241771591","-0.40434977572426617","-0.6096510014285568","0.3155719551771857","-0.10045648779867644"
"0.0695698275114618","0.12850241181848585","-0.046335012460683195","0.0627822980633134","-0.07957008667600013","-0.029263018857953575","-0.6266950045229291","0.3318782704898505","-0.13689704287289614"
"0.07170528559317131","0.0663720965374525","0.054514910175555216","-0.05828805542863301","-0.09056353062755663","0.2973493643593704","-0.6156627698746018","0.329715911285345","-0.16724985729732245"
"0.08359300486279983","-0.05799664170459235","-0.017648725564230822","-0.06644394554620531","0.012404921727067973","0.2786366184051749","-0.5586149246206426","0.2912897247659349","-0.15621462418560733"
"0.08561017795802017","-0.04732558209320169","-0.04042690895447463","-0.003946763244117455","0.01277864590472317","0.08328881391477379","-0.5392045871379332","0.2679173394844486","-0.1464292215551439"
"0.07829658755495761","-0.00044801306079071614","0.02714455451999935","-0.046234244698247856","0.05092497037441411","0.101889110394052","-0.5152214683372216","0.23759704593930528","-0.1028258346825659"
"0.07434146261702682","-0.03313852808990331","0.047748675438251224","0.00824793618311635","-0.030250897576542125","0.07256863063931937","-0.5040293462302229","0.21793493819997609","-0.09981380245642142"
"0.016228298762800106","0.06283947019477892","-0.11209776933579829","-0.05213591566624163","0.10580702732180172","0.07831797045945281","-0.5279804875392003","0.2303537334127375","-0.09126786441459267"
"-0.34953481778104395","-0.08659029146129875","-0.037350638510880996","-0.24741808569824758","0.3617088702073866","0.08240075139491365","-0.5147418059612074","0.16691271391005824","0.039348305927022945"
"-0.0800888062857903","-0.14133435740720335","-0.1796443990125239","0.29722630771936287","0.02967891623939637","0.00603285299469503","-0.5113521918373737","0.17141467487681572","0.009971366250398624"
"-0.11246482900779019","0.02111572690594601","-0.05857898488981304","-0.11621940033284767","-0.08758696638074531","-0.3797550572359321","-0.5246868058905694","0.20181768161557406","0.02237341634575747"
"-0.018063409473542017","0.021822584813496047","0.012861480257949844","0.018585513861889516","-0.23826726314154978","-0.43182781408227594","-0.5668331399963532","0.2603077256718717","-0.009700136253093513"
"0.09873090492696963","0.045453260461662905","-0.057120161796950814","-0.06875034569461666","0.061113088332527765","-0.3167833512822139","-0.625096129936215","0.321491856605914","-0.07350368615263152"
"0.02950684321702573","0.22658102548489908","0.10941060518779813","0.025668562643458695","-0.07764028085598411","-0.06173785055011143","-0.6443785574519872","0.3440843746333163","-0.07728131359063277"
"0.11591504150444036","0.00015830470437955645","-0.0707111402191335","0.05929138924139666","-0.08657576136023136","0.24467111034039465","-0.6093951814946824","0.3235360541052553","-0.13862666609813545"
"0.08325111906301345","-0.004308704632321356","0.009269810996164952","-0.07919698166095045","0.06890507207195831","0.21834639993025512","-0.5780252621033518","0.2991829266709059","-0.12354281149857425"
"0.08167927253515651","-0.05074926915835874","-0.025529230703123896","-0.008500077202270737","-0.041610624295136796","0.13338217167058528","-0.5400679794147588","0.2637462312921511","-0.11331907969459129"
"0.0830159553844584","-0.02825538734504","0.007839332237905564","-0.022717312144265266","0.04427317610619269","0.04496516786697869","-0.5241751660228207","0.2476880555603312","-0.09511064889190086"
"0.04522843359431345","0.03363043825973483","0.035541108576501175","-0.038234375767185746","0.0754973350552435","-0.023856794102311563","-0.5303148444358028","0.2396648757796794","-0.06849399833500776"
"-0.13025445346193926","-0.0196683111646145","-0.32297831858216125","-0.27506357887988414","0.4901145445212197","0.2681125008808584","-0.5437773684559357","0.2113651473928445","0.014766332006669904"
"-0.19579558633231975","-0.00927084714332261","0.00160591898318173","-0.030017955690967373","-0.256928667322253","-0.05565260396516079","-0.5644028506245476","0.19594504486891148","0.06801740322208528"
"-0.08232325186940324","-0.18714706579182863","-0.3099763302322304","0.2694868887398272","-0.005647113606440832","0.06566452121138083","-0.5616527863353992","0.21200322060073137","0.05175776023139393"
"-0.05668962963222141","0.045231223918938364","0.014163967442892514","-0.010163085635073225","-0.1967607283665696","-0.2725820576800848","-0.5554811304306829","0.22703338949762242","0.04873684295443488"
"0.030468592347594785","0.033064951933694804","0.036999931669363405","0.1942679789222939","-0.2813364941461059","-0.35125344032418737","-0.5660017252112618","0.2789418265762721","-0.06628606320758329"
"0.08048181283375669","0.06881200371480757","-0.004701345565369709","0.1963030378767745","-0.06417132763916286","-0.022629941497764535","-0.6061974323212542","0.31319690490338453","-0.10734684470538745"
"0.06593221260331433","0.15830686759094853","0.04499615450457086","0.009103704563974862","-0.10048541145026106","0.060313079533262655","-0.6150551975316504","0.3303894330047811","-0.17982664672536813"
"0.06887449304663121","-0.012608879662035371","-0.03499727861954352","-0.04603126061278813","0.03382956971689439","0.2510864970504232","-0.5668331399963532","0.30262143229118527","-0.17947272553458712"
"0.07803358705956892","-0.03440006155549555","0.01236571444216698","-0.08862608815004394","0.03574531953907823","0.17878725131830397","-0.522736178894778","0.26671209009177343","-0.13444773053167544"
"0.08015563065502997","-0.04036344750260298","0.006593741753982191","0.04197408115874333","0.0012331319677233608","0.09682311738303172","-0.5133347963248992","0.24380053546042774","-0.12333105112082664"
"0.07621714686777432","-0.027091150791428174","0.0751152605171856","-0.021658559677947022","-0.004805076653953984","0.03372742867491749","-0.5121516291307309","0.23220887218381603","-0.1252072776845066"
"0.038544628710464296","0.01641054803427765","-0.08990857601780636","0.00233812497930466","0.04124782927866972","0.09658668515371831","-0.5238234136137437","0.23369770966888542","-0.10261407430481827"
"-0.37417622117515287","-0.04588359196179961","0.14144620428319268","-0.1596757361608336","0.22896237303362038","0.271370652333592","-0.5259978830516746","0.18318358071117377","0.04873684295443488"
"-0.11264452218409471","-0.12188329098650294","-0.2748059517456676","0.18469276563646844","0.1542258057365993","0.04725308218356638","-0.552187448782052","0.189351621720747","0.0688762914674952"
"-0.12706685276923269","-0.07165313647845906","-0.14183461689092508","0.13747417979263504","-0.24758556288087302","-0.3539060946042891","-0.5685279470582699","0.23285876156221932","0.03314505961663988"
"-0.03853280607866742","0.028322351172803205","0.045625450740707514","0.05895221274898321","-0.37665269591621975","-0.41957370463615407","-0.5830137508138996","0.2924004447944787","-0.06340286421825031"
"0.09718476233607104","0.19399071795915093","0.06744148699305644","0.13950402064723239","-0.0641878641072007","-0.27099623175176313","-0.6801613707026486","0.3583346762761233","-0.12767732181096134"
"0.04858400834313076","0.10215740180532684","0.04568135929061221","0.03376601004233821","-0.11451660458036889","0.2315664215327184","-0.6732222549963096","0.3592208890648551","-0.15812787179434806"
"0.07994359270699063","-0.07314003287692901","-0.05159561694706521","-0.12954642743475403","-0.02938025253434981","0.2825002670305404","-0.6283898115848462","0.33841261278543283","-0.18265653540981358"
"0.09584878263398079","-0.08437824200943629","-0.06811594334448731","-0.05811585813248465","0.02373074868618507","0.0599800560883151","-0.5948134452638499","0.3147802717525853","-0.15687656047129395"
"0.08496320439585588","-0.005772316299719078","-0.023837672018797895","-0.10640937255227449","0.02665687670548098","0.008158868900600438","-0.5916156960904217","0.31220434658000495","-0.121940540668344"
"0.06275086210804445","0.019475816560429925","0.038687589757184435","-0.08617358120490064","-0.012828240216553537","0.044456261909980914","-0.5542979632365144","0.2819195015464108","-0.07649794827714682"
"0.05688348926436156","0.007314783639677613","0.09938347177233148","0.03226215365597587","-0.02471283443066927","0.12370719184788831","-0.5390127221875277","0.2651759879246383","-0.07050053897730164"
"0.04470888593238946","0.029847501058034694","0.026457659475472503","0.054683807044457224","0.03115727648197933","0.26055820282230796","-0.562644088579162","0.27197028597158207","-0.08633369952889289"
"-0.5152822410549888","-0.03293977627825101","-0.024643795296493604","-0.28201930602430125","0.24938491106035365","0.25203799260741616","-0.5052444909161258","0.1958623316752965","0.0007353559286370768"
"-0.08576086045957698","-0.21997022062829913","-0.16809863335778533","0.1714022652337451","0.0066634600243296776","0.00800288129565098","-0.5105527545440167","0.18665753484300235","0.006070828942795622"
"-0.0446970633005926","0.0060448510389486","-0.1000878326969672","0.06606448288989879","0.06335626022186086","-0.3800289726235513","-0.4963227707222612","0.2094863762807331","-0.02118850695635249"
"0.04511358621641446","0.04214017586909897","0.024987004573211825","0.21971143395318482","-0.42361626514368733","-0.3876986034768888","-0.5427221112287042","0.27406174815298906","-0.10875956778490653"
"0.10010907346175747","0.09818236557228074","0.028486229697828706","0.041694391004999325","0.09762974387708949","-0.009642315476797133","-0.5886098118673991","0.31205073636329145","-0.17261346630572716"
"0.05689911475795326","0.08663230736291315","0.011258075054636375","-0.06526987307246648","0.005548075255177324","-0.03726711481617343","-0.5801357765578143","0.31554832283615286","-0.14958785711972902"
"0.07189357279095128","0.022380586761691426","-0.0070560056555421845","-0.09645845607485265","-0.07238168401995076","0.09917302307681745","-0.5750513553720636","0.31052645036667276","-0.1442346140039413"
"0.07575627293428717","-0.022568923378184527","-0.031238403787578514","-0.11612025643506528","0.030839776295652793","0.13968510890569644","-0.548350149773938","0.2782210401747702","-0.13058421426913322"
"0.08259312952786702","-0.029799663973652257","0.118645917512754","-0.012722563627823837","-0.01256621988049395","0.2235652088943682","-0.522608268927841","0.24818433472202095","-0.10669675515412028"
"0.07693888841677489","-0.037038720544502926","-0.029028065768090274","0.038290102641145095","0.035185560095997326","-0.05033432046554389","-0.519890182130427","0.24188631583676706","-0.10874920189228951"
"-0.16295861154936478","0.2539821643716917","-0.3898995526192552","-0.18100732848369702","0.4107312297055654","0.30526407740163036","-0.5283002624565433","0.22763601419395998","-0.04130130031696905"
"-0.19040479104318364","-0.07177621291412659","-0.03205492865595417","-0.09668805246971712","-0.009254213379535024","-0.07452249085225367","-0.5027502465608518","0.17800809802498016","0.05584488360610323"
"-0.09007349669088584","-0.11351741975126367","-0.12442495449036771","0.27501285651622454","0.043471157406357416","-0.013259584419298835","-0.5267333653615631","0.1987809257928532","0.042872709416808506"
"-0.023016690942110545","0.004687184897929554","-0.0008345542301002848","-0.0840237240529878","-0.18401111150939442","-0.3413059867738061","-0.5426261787535015","0.23347320242907332","0.008335036058712482"
"0.050593446819023224","0.013159833257085779","0.0023925392783525445","0.16685730023540507","-0.2546135617969553","-0.34417489004413343","-0.5646266930666876","0.28547616887185434","-0.07247302025813962"
"0.058334316344350795","0.08139324287165993","0.06028519260525452","0.09609464771819597","-0.02892963378031865","-0.10557728750859624","-0.603799120441183","0.32042840125943595","-0.11177160001105098"
"0.048476192437348034","0.13023213469813769","0.06670167385594539","0.018620475131107518","-0.1243888759989598","-0.018541393922564337","-0.6152470624820561","0.3291251027595238","-0.15774877629292575"
"0.07659442441054591","0.016135289249102285","-0.09019722015917482","-0.13131014519530387","0.0768897056640297","0.24465669374104626","-0.5847725128592851","0.3156428522002843","-0.19733019683010145"
"0.07294923113800644","-0.039215011302218744","0.03229971288086342","-0.09657847237216817","-0.023799194571578572","0.2237237914872004","-0.5432977060799213","0.27976895851242173","-0.14752208280533793"
"0.0812151172480151","-0.021988468296455205","-0.00627848675221632","0.023855272934017638","-0.0013272093785755162","0.180805575227077","-0.5138144587009135","0.24858608451957936","-0.12664813675827186"
"0.06912137584538004","-0.024966419081086592","0.015563488466890717","0.026788888688399685","0.026239330887525503","0.16308757462791956","-0.49216569679680444","0.21711962243434288","-0.12492295605843985"
"0.012660998575815277","-0.03467365714559433","-0.08239602714921633","0.01743440102763715","0.08500415053019811","0.08080483384704813","-0.49283722412322417","0.20065969690496457","-0.11055879057486007"
"-0.44342059602676603","-0.030312759654779753","0.0865245052942499","-0.05254814555702103","-0.3776862251685848","0.6715322004465397","-0.4383475782080077","0.11569788604072269","-0.09053336688058694"
"-0.07166666523986467","-0.2740822724451002","-0.2962072245696537","0.005311293930801997","0.481672677587902","-0.47602910768440504","-0.45136241734386034","0.13108017681900316","-0.026565443540979103"
"-0.11957442859201313","0.13524666785405148","-0.06944864715035522","0.07504483278902987","-0.03819336317511701","-0.5373429047130597","-0.47867119528493723","0.1783625831404729","-0.040079605829963554"
"0.014632154592408077","0.039824176724949735","0.002998301915575822","0.07735123293744124","-0.32860598803227353","-0.2816212654715183","-0.5106806645109536","0.23678173017367202","-0.07658087541808295"
"0.07203842111654633","0.033139795712141276","0.051363228199531985","0.05345755357188557","0.08989894506939897","-0.17555834406549617","-0.5659697477195272","0.2847435662998361","-0.11316951467254575"
"0.08418763302143192","0.1411094304990253","0.0188088497689752","-0.04918925466215136","-0.0066322736897951925","-0.06750737360933261","-0.6115696509326137","0.33770364255444746","-0.16679671970577858"
"0.07555423530214651","0.05754552026599829","-0.02084591449947881","-0.056404321370767625","-0.10167603714898558","0.056959778524829766","-0.6004095063173492","0.3374318706325697","-0.1748806351052489"
"0.05957419926085209","-0.005055479221709511","0.017941877185801813","-0.10485437878705596","0.017406376485112892","0.21569374565015345","-0.5524752462076602","0.29261313586377435","-0.13575087131781463"
"0.07510390857683376","-0.019215090506244183","-0.02697375160880121","-0.07480855965910893","-0.03676709280685325","0.17183845043238544","-0.5171081403495446","0.26060312993478235","-0.12830519873519206"
"0.07735759695580487","-0.049130148751300014","0.06231480298667871","-0.017210129527447743","0.029186129491868718","0.10529286950020421","-0.5020467417426976","0.23798697956634726","-0.11784157055921528"
"0.015976728315973753","-0.055981680869305606","-0.03864303615286412","-0.007637003481575627","0.0724248592938127","0.19762974666663494","-0.5090817899242397","0.2320552619671025","-0.09047561405029213"
"-0.33102642062167686","0.11425714598750687","0.2187105200526566","0.08177096353858246","0.5146381266213375","0.35815858041083176","-0.522384426485701","0.20772576687378597","0.01640266219835605"
"-0.1174181104763587","-0.03460546614745421","-0.1270383541487038","0.01492606041374272","0.08477263997766835","0.016998406791058837","-0.503677593821146","0.18965884215417406","0.00582352836178966"
"-0.10826938397841906","-0.08625765244598109","-0.10908130803861435","0.06875702242967313","-0.1182125051868263","-0.150502294398014","-0.5423064038361585","0.21547717473255998","0.0384124139078866"
"-0.008641236837747673","0.026743147447582594","0.006924902397254929","0.01995943956115809","-0.2261956414739261","-0.315529107138905","-0.545759972943461","0.24903509899920345","0.0047351096370029455"
"0.11156412281383185","0.06292928272891468","-0.04150217339101391","0.16746259982186595","0.09603397471143788","-0.48328065715663954","-0.5935663230862128","0.318088799497184","-0.10631321712729068"
"0.02663878386826941","0.1519451464229982","0.05052199955329146","0.0048370730134091825","-0.14528270336477153","-0.017190558563621255","-0.6234333003660325","0.34462791847707175","-0.1337650624607548"
"0.08862199184782012","0.008895401080713324","-0.06919900897403654","-0.08413330415053676","-0.02952908074669038","0.22071072222338925","-0.6003775288256149","0.33309533605304215","-0.16654053407395802"
"0.08695397040690628","-0.03238260592759392","-0.02850668603525805","-0.07929090745884956","0.01618350467371457","0.2338586608291106","-0.5578474648190198","0.3029641012361616","-0.14190228816511263"
"0.0745846734247816","-0.05280414667548361","-0.014740180770351299","0.03525890841894565","0.05322850037208532","0.08569926932582271","-0.5329369987580143","0.279189966157117","-0.11998879117274008"
"0.07232952406215969","-0.009738204959843929","0.11036755153035306","-0.011734777319918248","0.08874966054076903","0.10440769030021375","-0.5153493783041591","0.24866879771319436","-0.09395263060239989"
"0.030900637245405257","0.07792963912466476","-0.04090798252342207","0.13957707404559835","0.014398392949029669","0.10455041463376272","-0.4938285263669872","0.2306727700166809","-0.10253558968928944"
"-0.11487896776770765","0.28642278434054685","-0.36435064551164115","-0.025381673944669884","0.32674250854137243","-0.0072983205887442405","-0.5038055037880831","0.21711962243434288","-0.1027118098637787"
"-0.13675465879608592","-0.2375501925878377","0.028161179989080437","-0.14382314871541801","0.10507942272813674","0.2649120158255184","-0.45174614724467177","0.15403308804715637","-0.025092005947560347"
"-0.05161915696171515","-0.17767516983065812","-0.39871490072050825","0.13015318565638814","0.22037994612198106","-0.3036065794777958","-0.4933168864992385","0.1625170984779486","-0.019047209710037396"
"-0.14180950597300046","0.09530503808978294","-0.0010581884297190933","0.05058916406604457","-0.182498024683932","-0.35358892941862474","-0.502014764250963","0.19087590771736568","0.030257418101899605"
"0.00864212162403035","0.019592240215791108","0.07316626246353097","-0.004780772148462676","-0.2416903120253828","-0.42512409538527984","-0.518067465101573","0.24663641638436945","-0.06592473780779015"
"0.05440997362879565","0.04829981883524382","-0.02524448715826041","0.07009807409967701","0.01140446541077861","-0.18921086364841075","-0.5867231398550765","0.30605993791146463","-0.0592624305386535"
"0.08697115844985714","0.0980908898430684","0.06492170165083984","0.09276028189277775","-0.049113219843905126","0.010490465513213724","-0.5904005514045189","0.32162183448159465","-0.10857890508500996"
"0.06694396331337682","0.08898489679874733","-0.05932919961760406","-0.006794280350425324","-0.06728927868769773","0.12999427082371628","-0.5756909052067491","0.31013651673963083","-0.14657138236817727"
"0.06249226018910184","-0.006774391333363542","0.012384307285507382","-0.0763478991246776","-0.018741515822204995","0.2906888954604194","-0.5251025132831151","0.2703751029518648","-0.14496911153794703"
"0.08321994620329802","-0.028878253901222325","-0.015662021744361394","-0.053842234328075375","0.0016449727042057822","0.15407720003518285","-0.4914621919786501","0.23791608254324872","-0.1325241170303177"
"0.07294087149893488","-0.007526987105519755","0.05380370141281401","-0.03793381321390862","-0.00828005004742583","0.16145849890155278","-0.46898201528945","0.21377564617819494","-0.1180207524173094"
