"AccX","AccY","AccZ","GyroX","GyroY","GyroZ","MagX","MagY","MagZ"
"0.01622008999107553","-0.03434025330260193","-0.038243569299734964","0.007838304032607274","0.13044098768569048","0.38505196372112555","0.8522381340943032","0.4500241968010608","-0.031186509393129606"
"0.022057663607823047","0.01653508664645152","0.001867345233654587","-0.15167958082196478","-0.06221703195009505","0.463804336653165","0.9341856444900519","0.37059116304888245","0.0072026128786506745"
"0.03361919816000913","-0.007215186898028913","-0.050409969814424534","-0.32991341416441305","-0.016666366419839377","0.24036601705048377","0.9622445166316763","0.31417932908038637","0.05029864783903954"
"0.05576211718325824","-0.03955565341048893","0.004060436509592262","-0.3079242133134353","0.05770151029105912","0.07821864285299993","0.9785727182950253","0.2788757585238626","0.12735799966816977"
"0.04871427966477039","-0.05314623198280392","0.008278837975435807","-0.1536917274847732","0.22428455851189688","-0.03369952140382384","0.9847306237004864","0.26507623131828567","0.2013938138327424"
"0.038259987345680084","-0.038489929349407065","-0.019933043588779658","-0.10619928974489863","0.2570487951957551","-0.13875688571368686","0.954359054053643","0.27118443504312517","0.27170332211883325"
"0.02401796377006912","-0.02495751895196595","0.03442026293737889","0.06746052025065846","0.28382978924194746","-0.2390745463460068","0.8987149948015823","0.3038494726731524","0.3427319420656837"
"-0.0006456162673058336","0.026052854260187545","0.05958123008564964","0.09553141032123462","-0.01868870243137043","-0.28462229781560666","0.8304764864849592","0.37245132876206244","0.348157966415052"
"-0.16527135430331782","0.4613627006680178","0.15642709994396536","-0.34861963888133507","0.9017312229189758","0.42754669561758196","0.7706249896029232","0.3440607144729597","0.47756537845811736"
"-0.022465990813957493","0.03458280161847634","-0.0044277498960051094","-0.1031377460187117","-0.3345024379049929","-0.003122972195563183","0.7987674532206404","0.31464107234252325","0.4957719782328046"
"0.08261803684216282","0.03384531225846842","-0.03305152535236957","0.08909061550104892","-0.3506093270855894","0.1690763111990613","0.8564455717242787","0.3076357674226749","0.42245527572899183"
"0.04651134903057637","-0.09667576241921509","0.03786716880378814","0.06432484480531543","0.04445700438832198","-0.1942305911214082","0.8887397453212432","0.3513694506793551","0.37644847288720984"
"-0.11503144150076372","-0.037624677748158336","0.10947772243582787","-0.12587789155724477","-0.09444517009361844","-0.10249196402729348","0.887318690227675","0.35778108569074174","0.37494487577834873"
"0.007890739940195974","0.12967945779797654","0.23959480470148511","0.18442593183499045","-0.06551738858903154","0.043730199964333895","0.8875973284813157","0.3005513065150317","0.42413865075304275"
"0.0530546692185058","-0.12132660395683197","-0.005794120729567937","0.401660751450342","-0.1836481379300512","0.09359295048087266","0.9136500051967273","0.3799975329318426","0.2798260151960501"
"-0.021156556520905114","-0.17301318220189413","0.0199349972897928","0.15813324027456124","-0.19574625454341155","-0.37033982668955534","0.897433258834835","0.4443909290029907","0.21221317563780798"
"-0.04671940981542046","-0.010176570229553678","-0.027683934970825146","0.017059615970906328","-0.017770633681046984","-0.35075487600969224","0.8288882484392073","0.50602705816595","0.18250078929096628"
"0.005306532850083765","0.03224776488425408","-0.06023643962411609","0.044246701909205884","0.06216740259581292","-0.4065974677251384","0.7764485291040153","0.5757107127547236","0.13106796209981614"
"0.0028003141259548133","0.04016590768895884","-0.015744712194484898","0.08097945012585243","0.12361051789053114","-0.422566361835857","0.6714854989575395","0.6440223302217192","0.13739287602513392"
"0.012890660737123206","-0.006396469836679275","-0.00033710492920055663","0.2340364186936107","0.14405406133490783","-0.43268646646225467","0.5499992203701662","0.7137983334629202","0.11928433693145922"
"0.002259209660737572","-0.016781774229962645","0.028041938145396673","0.04343510399688652","-0.00048193441465873595","-0.2984312655192525","0.4691941268143449","0.7634291378103201","0.05639475350866108"
"-0.0024874896515773163","0.04053569108637126","0.01996783479924511","-0.0007824447055674397","-0.024042747273259352","-0.24950529207364647","0.3731196569590093","0.795487312867253","0.05664480824524341"
"0.004057756175018366","0.0270780683423394","0.025855868726826155","0.08653740356336095","-0.009810527675896328","-0.15823019974779115","0.3084477182889878","0.8263053774487327","0.01471732973358896"
"0.0013002416049433358","0.000913607797111912","0.018357557684781783","0.07937454654360286","-0.10096929786572928","-0.13094960116137958","0.2673485758769753","0.845144502543918","-0.029651859735281182"
"0.011787269781359952","-0.03201456502505583","-0.005131587834454643","0.14368236878711918","-0.101572408723606","-0.1908669304470228","0.21474167358959906","0.8640627836268983","-0.07970530001351964"
"0.004287869995635655","0.0027634596298416387","-0.0035159410643576076","0.06320612977077794","-0.11504906444068458","-0.08030539412452907","0.16154963096957706","0.8761472644302524","-0.13595780967644291"
"0.004788536048861564","0.01216779930257363","-0.030469960143854547","0.02653981127649207","0.009786506600103407","-0.04342404400285873","0.14402328481557328","0.8730601809062515","-0.17136588724543775"
"-0.022283055140663394","0.05406290789677006","-0.00879947568271278","-0.01758011461657971","-0.023850326190032013","-0.04707407694245155","0.1130665748360842","0.8882581305628716","-0.20490917753050816"
"-0.025903255833220003","0.0931134888678937","0.005522221993261805","0.0550189071772265","-0.01875499675979577","0.2955970340978598","0.15288398128134945","0.870593152619977","-0.22283303567494236"
"-0.051620160221035626","0.08038504574460206","-0.030878880072883325","-0.19071907707884525","-0.04189076006141661","0.6931933748515122","0.28833003637612464","0.8167406955901827","-0.17212749186796955"
"-0.08170826438124675","-0.03162504599688263","0.1016049811759405","-0.18544320927396965","-0.03134110664268416","0.8080577758029276","0.48658115384152834","0.7224659141264612","-0.04064282773211895"
"-0.07281181374315553","-0.1514909574985644","0.08737539374660572","0.10518201230591943","0.059628114420387526","0.4372542300313927","0.6397207380424923","0.6410275953501455","-0.06529528293870644"
"-0.02507523120673099","-0.04585547449281011","0.020730532424448785","0.22713350406569868","0.05173980732688886","0.4689250610564502","0.7813525623680927","0.5506710352822713","-0.06665178902604851"
"0.006835489951089046","0.018715354486812965","-0.10336303537148453","-0.16663108210111036","0.11683988052174847","0.5042119486506521","0.9166314345106835","0.45326959230065156","-0.03299899764718063"
"0.03059594545399111","0.004583780726648795","-0.0008373090040024265","-0.21967858502969514","-0.040576839978185175","0.18698185842533518","0.9544147817043712","0.39388940878984685","0.009742384516879048"
"0.055164206377386525","-0.0028342923561001723","-0.0530534925879439","-0.5184390407247665","-0.04770407860817275","0.2632466756638356","0.9778761226609235","0.3440211364790622","0.08103086526841313"
"0.06363027677357008","-0.057637646056992994","-0.04792340620558287","-0.23635340809182018","0.05082796114890859","0.09904615793783081","0.9959040176714808","0.3106832729527784","0.14592415527323702"
"0.07039793386611805","-0.0522259283589067","-0.014800891954251808","-0.1018957990354472","0.2474277410343884","-0.05946574462168093","1.016718295218446","0.29818981954581725","0.2337865254605974"
"0.03693225948529829","-0.03403279294969722","-0.03130845252358023","-0.14150331755599127","0.33423262522164465","-0.20565635912646343","0.9727213149685693","0.3173719539214471","0.322940027947958"
"0.0289687807810069","-0.04426831429268039","0.0057047902848079875","0.0661685102882236","0.3262868789988244","-0.2538736825598613","0.8943403742194225","0.35985233403804145","0.397466145517594"
"-0.006714266524003789","0.036427563735904604","0.07649358007967322","0.0899667176365301","0.10610833652683098","-0.31879281895222045","0.840618918917483","0.41291323118988693","0.41263286418088835"
"-0.15251399813938826","0.4323928721460165","0.2561787796009856","0.23183172211091635","0.75361006818092","0.48584043977251534","0.7769779417859325","0.3794302483526458","0.5547718213087666"
"0.014747939230724715","0.03911057080196159","-0.008256314362841221","-0.006529963539203706","-0.41405563201539813","-0.00903364721177218","0.8145662422020715","0.3955780698628047","0.5139458911138212"
"0.07377068999006106","0.013383410285696541","-0.060963408386833916","0.12669946585317662","-0.17913437968419604","0.2207276749313447","0.8948697869013399","0.38891577422340096","0.42428574177456163"
"-0.016496510948571602","-0.09639427000152191","0.14684639514212444","0.21750600807140016","-0.1191296359195727","-0.22415406595197973","0.9354673804567994","0.4455782688199142","0.3472263899454315"
"-0.1347692378298622","0.005074086504965047","-0.20098544004452157","-0.24948531262804333","-0.40527223182330463","-0.010019204643134315","0.9411237370057066","0.45032762808760796","0.30662926800618234"
"0.027282884128701956","0.049317008057507834","0.12735041468741903","0.6888874669442437","-0.02020916405045408","0.10792127127565727","0.9461113617458762","0.43734604608924493","0.28114983438972135"
"0.02533991471445216","-0.1350896096189516","-0.032210967720477074","0.27952633726667114","-0.12997366487607828","-0.1020502712114651","0.9271082328475766","0.5105125641409941","0.1431130824175402"
"-0.05333397863400124","-0.0991593357428474","-0.021269261740707028","0.07429796790580925","-0.008870201262960762","-0.39307972605390695","0.8805756444895688","0.568098545261781","0.07470595134309534"
"-0.008351059390319271","-0.008044083389981478","-0.03780986634470444","-0.009646095167678306","-0.048711656668355675","-0.3720143763759377","0.8405353274413908","0.6143256421340005","0.0639977249765108"
"0.008744760688679399","0.022813094663195","-0.04767351069339861","-0.06492813991653977","0.021507678927290823","-0.5726933815454397","0.7182967255691877","0.6903945464048958","0.05970593583752254"
"0.013348962739691552","0.043196885086850545","0.04604969788869734","0.15870126253822486","0.13619686710312504","-0.2945725205897627","0.586807333676111","0.7592470631218231","0.058083031566762686"
"0.008154552437472705","-0.021231639607813258","0.007856369992192741","0.17832209937460522","0.07821206605297767","-0.3068768204592678","0.49496816527611553","0.8114768224018222","0.014753285316626955"
"0.002566349028005027","0.009306859944447127","0.029547920025435995","-0.015049045919678629","-0.028932253156759888","-0.2854474382407806","0.39195560290512493","0.8513978255797148","-0.012708608400973804"
"-0.004432384704493361","0.058423443577492955","0.028210875772641895","0.029404954084395307","0.007747656838892392","-0.1806570311272974","0.32107003117891453","0.8762659984119447","-0.033690325448320006"
"0.0019347395454738594","-0.03050842478278613","-0.0004471828696916358","0.2050287732627893","-0.13616512435753494","-0.1439698316939032","0.2861009303469988","0.8965827019459681","-0.14077095476948193"
"0.014997309438004564","0.01946530845572243","0.0015567313077660592","0.022182406589472566","-0.06663266501669246","-0.15784675213844562","0.2265002078932393","0.9093927793041088","-0.1870637679308841"
"-0.005125614624344634","-0.015024264374845178","-0.00791079767533357","0.09816356772607583","-0.11023375076589109","-0.11846328502161554","0.16617502598001405","0.9252635548569856","-0.2040151909886092"
"0.0025076170486842946","0.003015826411401532","-0.053321975369629473","0.03522573816254818","-0.06563226684767472","-0.0187411816255829","0.13803256236229688","0.9221632786683521","-0.25936063935216525"
"-0.006608356397359819","0.05668047576609396","0.00023558949665641404","-0.06747653810623058","-0.03942566409469827","0.018981326353044167","0.13714091995064648","0.924485187643669","-0.29350209979141295"
"-0.022196401400682","0.10954911442198571","0.04979813057146114","0.1319753336580522","0.010038520780001897","0.26506683836642514","0.18732366943134798","0.9061341911398856","-0.30121620669774374"
"-0.037514856990728665","0.0842708875696579","0.0019427269377432252","-0.16155739171211508","-0.06618272517033999","0.6382487300693436","0.34414127858036997","0.8403159872884294","-0.29190044200153925"
"-0.09398421087861285","-0.003677003789585279","0.04478163305827477","-0.09907494270911772","-0.031388972583785486","0.9672856090254578","0.5805379729691938","0.7192996746146655","-0.20751595730076186"
"-0.08550177255376613","-0.2271511335309263","0.1154979325020849","-0.019359275876326073","0.11104331505437777","0.27152234875160924","0.7247332692282892","0.6258560310227903","-0.23816318880659118"
"-0.03529074433120586","-0.019209256813538012","-0.005329025941601872","0.13368902794503731","0.048537575867210095","0.40303517122270993","0.8208913305597169","0.5559349084706321","-0.23209977003064045"
"0.011534048296747623","0.0014974708524083235","-0.09088478177960635","-0.014086296320248779","0.2123085000483449","0.4123301354239337","0.956978253637866","0.45596089588567806","-0.1771171461868314"
"0.026121724012951084","-0.02106544482245936","0.002743425202816242","-0.1890053827918601","-0.014062937883338204","0.22217895132620938","1.031291075883858","0.38824294832714423","-0.1304843893312519"
"0.055720715951933786","5.9470472133724096e-05","-0.05768378794593644","-0.517745861013177","0.051510050809602505","0.2620332338621093","1.024770940748664","0.3641003720497009","-0.018083968065152157"
"0.060835212249503105","-0.03931882584135963","-0.024381596756092735","-0.3317137559153469","0.10868113086102729","0.07726973136404992","1.0392044022872555","0.3426622920219165","0.07584018655347533"
"0.06926565833036098","-0.06005785761870913","-0.033423270742395726","-0.16777675412443188","0.23440820505482748","0.0018426743454613437","1.0694645166326429","0.3266463971580825","0.159211377550455"
"0.03315126796410952","-0.020926256689725472","-0.012291610571575212","-0.1691631135476109","0.3483291448759854","-0.1399557662137925","1.02775237006262","0.33227966495615263","0.2701670381163012"
"0.01601500947311953","-0.02971692211753819","0.059645252902820814","-0.01981850743525411","0.3286323101127894","-0.279889874788874","0.9588729937626236","0.36530090453125685","0.3764157859935389"
"0.008064047420158796","0.01181120761624867","0.07222676910303959","0.17877459168633725","0.04584033008615033","-0.2625861946962564","0.8743062837826517","0.434311733223774","0.38782351188468056"
"-0.15947518191789473","0.44728807978335955","0.27009857920529856","-0.2513723018429258","0.5941925513429508","0.3039697825297716","0.816851075881926","0.4425043779605457","0.4541125322492515"
"-0.018056278268236955","0.05968548522877412","0.06712559625101393","0.014356215095707307","-0.27129546268069077","-0.07466531663010506","0.8353805197490369","0.42697661168811357","0.4955922003176148"
"0.05852733430799827","0.033059003180262794","-0.04121340191561064","0.09343357894407699","-0.4624480984688396","0.11347640784396044","0.9166871621614114","0.4390215144975702","0.3686689921935373"
"0.05770316095884178","-0.07653503186913961","0.038459896175663186","0.3406609368304667","-0.08424733134198074","-0.2590429446352155","0.9556407900203906","0.48481325343691767","0.27899249940744236"
"-0.09600613147817905","-0.046210715846504075","0.04540533921265199","-0.07569938243496095","-0.4314788345762811","-0.033223852217547103","0.9301175259868965","0.5011589649165639","0.24973772957199314"
"0.01981429456163771","0.11619690583614163","0.23548495288952923","0.38178959971810994","0.13760891236561418","0.0061508781183105396","0.9285292879411439","0.4545624734346349","0.3147519610833993"
"0.04601357143534984","-0.1322850726161046","0.08346793664699738","0.2423449477366903","-0.31655270999199536","0.12474928218199813","0.940037047816508","0.5152883087379527","0.15005904732260497"
"-0.019452366301270747","-0.1682974051674773","-0.11214655283693602","0.11999872864114484","-0.14516392128458439","-0.3906043047783852","0.9212289656957563","0.5537845041355374","0.04294409676308861"
"-0.05265037690748126","-0.005966752444798604","-0.04189080462632498","-0.010828351675778163","0.005809804213405172","-0.27950157341232157","0.8488108835745218","0.6100512187930761","0.06340282351170054"
"0.007862818179535293","0.029018392461346153","-0.037500078519682636","0.002185616034514847","0.11534885645644215","-0.4400641926167508","0.7644949480228265","0.683758636094757","0.015040929980930807"
"0.01136748055211669","0.03263416776020189","0.028327562520066775","0.13465177754446717","0.17013621264102086","-0.4046802296784108","0.6363492151734389","0.7525979601470517","0.030052385899288412"
"0.03025510741006424","-0.039540072649362","0.019072961035365463","0.3339601996184349","-0.05864144614982593","-0.310711296552723","0.5493583523867926","0.7996430022264853","-0.04312212861705619"
"0.003992284460365746","0.017128194286683242","0.05406907205242838","-0.08815928775078208","-0.011441080959513027","-0.3077747673925453","0.44709811330063204","0.8373080597522233","-0.04408639198034753"
"-0.0004655690520111395","0.03551972472090894","0.0017853547226321495","0.04965735465800165","0.018542383876063627","-0.22481903205932574","0.35004840955755384","0.8670707111631043","-0.05440237562288136"
"0.004471768488262864","-0.0064946286317789205","-0.007825709286060915","0.0906993700816962","-0.1523007331027922","-0.21188131556931955","0.2948780353366828","0.8901446816053167","-0.1622348034984738"
"0.00899701935395862","0.041246173793759174","0.0018708561623381663","-0.010955434622902903","-0.06771443528558245","-0.16246025786860918","0.22722466735270508","0.9130999180658366","-0.1744384552505017"
"0.001715216737520975","-0.030115789602387543","-0.0023164426058731903","0.18633217604186159","-0.10575828527291703","-0.12619776306581926","0.1738654417804988","0.931859887173227","-0.21913451365608078"
"0.006770018236436425","0.019335468779664695","-0.02776654505749762","0.0022199861952144928","-0.03139615247495069","0.04154357783762303","0.14162699583426247","0.9218730400464374","-0.2725007706078642"
"-0.010796620496461209","0.047994720796535884","0.01122793545955669","0.06714088738364775","-0.029036361578655273","0.05159815660672748","0.17155274427528075","0.9090497700236642","-0.2970976580952112"
"-0.021570568834149612","0.054848178257567236","-0.010474188664780639","0.1054130722097826","-0.026636363291834747","0.1904183256078242","0.22917513512819052","0.8769652096374664","-0.34987064792686795"
"-0.04991597000140127","0.0807028932715914","0.08135311842818188","-0.13192395904166426","-0.06319589044561719","0.5440856462553797","0.3363394074784285","0.8365033072096419","-0.31568015714711384"
"-0.07226300672327325","-0.008619532834269347","0.03193989508503766","-0.09096377733392123","0.04365046328076463","0.8300696100862434","0.51851309770876","0.7481256468366403","-0.2766683495509031"
"-0.061652737672216414","-0.13830963358518336","0.024311679681700813","-0.09284787830000546","0.1020110119685574","0.4259934901113723","0.6659684615354522","0.656647710275005","-0.24146456506735134"
"-0.058870189799480076","-0.02269726987115294","0.12456852001872326","0.1940052903493175","-0.03175514703321064","0.447956786722619","0.7613741995820499","0.5956052510205074","-0.1932595686262019"
"0.012766457043149854","-0.04584612603613395","-0.09258861481722626","-0.025916563398042783","0.17314937363334937","0.4448018380381305","0.9327367255711198","0.4674121287866731","-0.17882830507050262"
"0.026052401020965957","0.0021384633651701374","0.041884084268237504","-0.1226334254071662","0.033469377608512395","0.3965553920014913","1.0289505145532758","0.3912112978694529","-0.1146312459008688"
"0.048430247961497995","-0.009852490398113577","-0.062468977216439875","-0.441438327762367","0.042468174535561856","0.2086102450993055","1.0337709563412607","0.3677151621590012","-0.054047722826552166"
"0.04989084488985129","-0.021141271193277075","-0.024427032303762603","-0.27872401796272794","0.05874977440117818","0.11642507142215544","1.0500712941792454","0.33772823544936803","0.036226940113720116"
"0.06472981645200084","-0.053814127276444884","-0.01163279513036218","-0.17841513719813173","0.18497704767948725","-0.03422615514577307","1.0565914293144394","0.33391555537058054","0.11459376768968606"
"0.03646047801206617","-0.04758182282567373","0.0041756775805003735","-0.11817589476180598","0.2562590071675832","-0.16063524139881277","1.027027910603154","0.358664994221118","0.2109383867846432"
"0.00670839779911632","-0.01435533036379574","0.0313265151914945","-0.06738507689428475","0.24209068860159044","-0.26974550132644176","0.9651423544695407","0.39181816044254714","0.29440436977326845"
"-0.004875281597731662","0.016231781163180657","0.09210895171293884","0.04509969805430074","0.058216069157898384","-0.28775297766406066","0.9077150103941791","0.430076887876747","0.3252281105049205"
"-0.14333832989469034","0.44766201805040584","0.16189382242951678","-0.1289875727634032","0.8059993407163222","0.4600183982317788","0.8631328898116569","0.40898181712940707","0.4308231205087403"
"-0.016198036955302322","0.04381907681451921","-0.014092510461035287","0.00939593660952483","-0.36190568918550253","-0.005618536604993573","0.8889347920987918","0.40134326430719963","0.4298752005922845"
"0.07217240989707065","0.015029985121590286","-0.06939996348826098","0.1378192237265914","-0.2710561329751841","0.11472382601613512","0.9602940488561912","0.41647525064065727","0.3221228556061857"
"0.030915601472589194","-0.0855033179737993","0.026636740571097783","0.01348107570982557","0.06247853121297154","-0.23324274504691","0.9771516632014574","0.44125107482045983","0.2972644729694716"
"-0.159773655911164","0.018233389609286662","0.009521087153773233","-0.03189523841050216","-0.2104841778085101","-0.04415938973470488","0.9748946933469675","0.44673922330757265","0.260785899632755"
"0.02315816610558693","0.07587493475706067","0.15577448025925275","0.5487785177392176","-0.08581972750715933","0.13969888517926662","0.9883529209978161","0.4316468149680123","0.2330674137998377"
"0.030454411012021475","-0.16393479205193748","-0.0859942646485955","0.23536501314082392","-0.06820027458776091","-0.08980178966483941","0.9889659251558262","0.48316417035785736","0.08403315645208466"
"-0.04020112293015233","-0.10830108765472021","-0.01882606842736842","0.07230796448378775","-0.016202545450567516","-0.4188774987586089","0.9165478430345911","0.5543781740439991","0.04012975521802473"
"-0.024304975740229585","-0.005736364923601763","-0.019602603242089737","0.018264015719793074","-0.16229035501063913","-0.25756254563710934","0.8390864085224585","0.5985472152335513","0.03525777371637812"
"0.005496208258709738","0.01034142248327514","-0.04949093260019318","0.03459898817331935","0.08789055934366598","-0.4124947948815284","0.7891544334700341","0.6598799131099632","-0.02704671430971101"
"0.00775016831755947","0.03528497458659656","0.019490555023494855","0.12723860562885733","0.16132648618132164","-0.44865536057297334","0.6648539085208892","0.7312258434424298","-0.02000595741300066"
"0.018942943065157994","-0.04633016834847719","-0.034381547747796504","0.29347657896240975","0.0389093418146782","-0.3304175914127588","0.5754667567529321","0.7727035810469555","-0.13665894354568356"
"-0.012048285629525998","0.03311717135513666","0.04714634678927452","-0.1903532322310619","0.0990313571349998","-0.3313398071820708","0.43876682951677337","0.8208568069555173","-0.07094030947566966"
"0.004712473321544557","0.07879269195743004","0.06388108509695226","0.03635119244428168","-0.0386909218987929","-0.15817438142491175","0.3487109459400784","0.8498015131591845","-0.027089207271483173"
"0.005835120663970353","-0.003706607235726442","0.0024513985464290236","0.11628251518734561","-0.21995445425540758","-0.1106195972152565","0.33271711018109834","0.868073353675173","-0.11256543422086833"
"0.003505097877803597","-0.01930793496734189","-0.027669478205657457","0.052816136093731","-0.0695955667708646","-0.20130981059267966","0.2689368139227279","0.8898016723248721","-0.17285150656277987"
"0.00720713821367598","0.0012252230196504704","0.0303849667286449","0.06434602529650288","-0.10079219388365437","-0.1568590105118404","0.2012555821133859","0.9080867055054931","-0.2040691243631662"
"0.01081289661623567","0.026712439814560826","-0.04604402673378393","0.07079837311188175","-0.12200398568270737","0.11117814907149076","0.1949026299303766","0.8913847920807699","-0.29498935345343863"
"-0.03180533834528701","0.049084335358012376","0.006292767576699367","-0.010630988007895043","-0.033626705330272524","-0.001108416116337114","0.20395837317370138","0.8878755432885295","-0.32741475197496445"
"-0.03391391268483461","0.08790016619482363","0.024398213747490242","0.0644105295196647","-0.029213944220141196","0.2957183782780325","0.2332432536313457","0.8721235017173451","-0.3135555090585058"
