"AccX","AccY","AccZ","GyroX","GyroY","GyroZ","MagX","MagY","MagZ"
"0.05899526450389788","-0.06463236908557515","-0.005474832744578802","-0.23711398027536973","0.1164593462899929","0.01568950143332095","1.040374682952547","0.2897728995102934","-0.046717686920854415"
"0.05900104141989665","-0.053008082567478486","-0.014794696197751372","-0.09221342631398118","0.2899326967323666","-0.10977989548846188","1.0393158575887116","0.3023191235757844","0.03189265801295968"
"0.045072896946884995","-0.057503651511301414","-0.016779403530057718","-0.007101066601585494","0.3192266526863787","-0.2693329311138548","0.997018570686044","0.35202908391097926","0.13289842814538613"
"-0.009612352716715306","-0.019082533289705668","0.1202087726945831","-0.07024540595419085","0.056370837128442236","-0.3484007989143431","0.9224828378371396","0.4081374865929282","0.18375923469729566"
"-0.17445665074134706","0.575496969509807","0.3269962764009695","0.22690244416183553","0.7501158544805231","0.5654907596378324","0.9144580561322853","0.3641663353728633","0.28139498609225305"
"-0.013704334882504022","0.0277127246789096","-0.06844994749152747","-0.04890702383242763","-0.1958754925843851","0.031539963624191085","0.9443002130972115","0.35202908391097926","0.29919299969605423"
"0.0997870311904791","-0.02137809876240638","-0.12216922160247472","0.2275763688814364","-0.1678308376931177","0.033141706802469854","0.9823064708938113","0.3610792518488624","0.22772310668464674"
"-0.045756590482293705","-0.12288468006952473","0.003305586842622471","-0.0848378016327491","0.049588233274384226","-0.3549776534796999","0.976538659043448","0.3911717198755555","0.2221009609732531"
"-0.16193037121736797","0.1372828692279174","0.11671436602833718","0.09174684164587588","0.043281895534284416","0.11624548203549996","0.9574519386690556","0.3808682487975865","0.2651005695973128"
"0.04379812414982518","0.011909678026570857","0.04560153816849913","0.6844877012748493","-0.16630870076609552","0.1887923135935109","0.9988018555093449","0.4002086951488061","0.1268023224757646"
"0.015342961578597067","-0.19020395531193793","-0.04348930980343749","0.38486077094029114","-0.0613817712778769","-0.33767397338708227","1.009417972973058","0.4470558472587522","-0.04156950116768877"
"-0.03917090624370669","-0.06654257039973653","-0.03758475385852193","0.13412226526478074","-0.1976967916432906","-0.40999510476997214","0.9381144438663868","0.5131510970674905","-0.13102208873213808"
"-0.029918212452358588","-0.0014219482958145806","-0.09852001904031037","-0.1445744887781725","-0.15416511150868886","-0.4111842777356639","0.8392535914746432","0.5488504475629888","-0.15818326302796662"
"0.007984133415509274","0.006883220615283068","-0.11921384575176672","-0.028653660509221857","0.009503858217900075","-0.45967341213264845","0.7413401091452789","0.6292201605040735","-0.19455723830493632"
"0.010285271621682208","0.0413053806860415","0.03526495107360501","0.3572202299406601","0.32712453296809757","-0.3924487363170093","0.6179590904331487","0.7088774695550041","-0.18481490964632669"
"0.013671507216289016","-0.05935360721577199","0.059021546748443586","-0.16366581333486643","0.1511190742414637","-0.382255825182508","0.5530085135094867","0.7270833467478303","-0.24063104927874357"
"-0.005549255130920394","0.06071381546315136","0.1071976840436674","-0.06267434310427449","0.18154266640546704","-0.20324160994102802","0.4430578586228411","0.7720175624860663","-0.13043535899074557"
"0.008979688605962344","0.02341970562973673","-0.05507124395491924","0.1907223142152617","-0.04073001098970943","-0.202909126887355","0.39295870061823174","0.7829015108078646","-0.19018373193177085"
"-0.00030862950071146794","0.0036853940400701324","-0.022275039545944484","0.08659709403852561","-0.1637263332436789","-0.19744135812877608","0.3384849220314622","0.8095506933654797","-0.27452735801545963"
"0.002865785840607434","0.005992416565786178","-0.0016943886532294113","-0.0002827776634633473","-0.07290071000391121","-0.21221379862299253","0.2633361850245483","0.8382051609472321","-0.30082396397369304"
"-0.013222925215940637","-0.01631954498319712","-0.016591465582877822","0.07488235691266318","-0.11039888826269066","-0.10956390284775458","0.19752182951459993","0.8518067981833218","-0.33324936249521886"
"-0.018556944321462862","0.014208775138460337","-0.026802072295596415","-0.017508871146221898","-0.013515590846844533","-0.053286898967290414","0.16375087317333928","0.85503900101828","-0.35279612491041284"
"-0.023486579307071837","0.08257466204163967","-0.029951581849984733","-0.03486435817514382","0.015357623484886842","0.08729518752991294","0.16436387733134897","0.8562263408352034","-0.326483175505344"
"-0.04914571453489987","0.10990227834086273","0.031471082843171336","0.06427093082774736","-0.11457997821789156","0.4527620162574553","0.2512990124672673","0.8130335568284552","-0.3640077294395292"
"-0.035502564584493766","0.031659850831064665","-0.06382171738570175","-0.16019991477691897","0.04366721636015009","0.7913365477751385","0.41001136174104624","0.7381651850391158","-0.3550188336800336"
"-0.06545587403806709","-0.09214799323572984","0.01168571925485224","-0.0641165420042204","0.04779565378013953","0.5690097408628387","0.5968661746325429","0.6436925136059071","-0.2740043677167253"
"-0.07597948934914252","-0.09689493179240055","0.10001060650316161","-0.04779408529548672","-0.14045630597726888","0.5120265138537697","0.6962285758808394","0.5792595395408615","-0.25254542202178404"
"-0.022090491274038046","-0.03311976034765925","-0.11980450787147495","0.12962622463544335","0.09883271347942929","0.5215884352513733","0.8604579625767057","0.44444369966152064","-0.2995491751205282"
"0.0036543348744382557","-0.010455985212429918","-0.07040161078916482","-0.18338292513118978","0.10955229098907146","0.38041661603853094","0.9746160550933268","0.36322965618395703","-0.23424076156608398"
"0.04509696743021317","-0.009643708199012745","-0.03902836512312353","-0.3104273622719529","-0.08185403428691439","0.31178434773288916","1.0002507744282771","0.3191001929883024","-0.18331621557151623"
"0.06130217962606958","-0.013178463540008453","-0.02840883848137616","-0.39121168116011173","-0.036326344408387355","0.2443897900650083","1.027947416840169","0.2860129900900358","-0.1021383151398535"
"0.06895177922776165","-0.047735553002126084","-0.02366701950637578","-0.3317715208913127","-0.005361149120822489","0.022178988188953412","1.0405975935554594","0.2822398880051457","-0.03759804358667527"
"0.06693659836352736","-0.06701518682058667","-0.04493498632020589","-0.08801680081006645","0.1930998978843824","-0.0805505093684778","1.0343003690231782","0.3000104072651","0.042530607558151814"
"0.03811941572304357","-0.05151544565151879","-0.029788426928806584","0.041535599037211435","0.32990075755197457","-0.23149538885242407","1.002535608108131","0.3313957564257763","0.11490429317955954"
"0.014207797584840616","-0.028389441269523932","0.0354363670034504","0.04971030588597029","0.2932833126094595","-0.3069738958034059","0.9541082796253665","0.38006349625500496","0.16378754266438003"
"-0.1694307338224254","0.4808178777285084","0.4350915748119102","-0.44654090063934526","0.2595617571035747","0.43647762727828787","0.9220648804566784","0.36982598850019843","0.2296516334112294"
"-0.04164535192984245","0.05700455559753406","0.09047327199682373","-0.05166241318599586","-0.20808848745638864","0.05700282639161659","0.9376964864859254","0.3281767462554505","0.3208807536466918"
"0.08992246571292895","-0.015704624277387697","-0.10261541408709858","0.018787751501882912","-0.18140561858945403","0.0011721264058273686","0.9600432744279144","0.3478338165578498","0.2808393088998479"
"0.034299911428529735","-0.10092619405464104","-0.05928229312304894","0.06470513089709022","-0.09041246455583164","-0.1775360588132572","0.9808018243241515","0.37803182590160267","0.23864052917072498"
"-0.13107201159065546","0.06662411751729935","0.14949817892431105","0.0689739626209622","-0.0049521346541116515","-0.012264557353048735","0.9648358523905357","0.3821479372669373","0.26843463275174395"
"0.020141653134900808","0.03338100557688597","0.08032875335344312","0.43120753665684414","-0.1782919391208127","0.16848657848342233","1.0178885758837373","0.3696017132014462","0.15102331068589628"
"0.037861380141765606","-0.15571853735100416","-0.06861516766487243","0.526086509680656","-0.19519579622074626","-0.21807957629253769","1.035693560291382","0.4065279815077653","-0.04201567726629646"
"-0.005385575844288851","-0.07872049329654338","0.041826257207566775","0.17980473375772718","-0.24036688483806845","-0.40108844194530074","0.960210457380099","0.48415362020529357","-0.09974236583377703"
"-0.05188012144097986","-0.015569591014287655","-0.12235922480182143","-0.030337509558624666","-0.01795060961958797","-0.3198606477377396","0.8537706444893272","0.5316999835407613","-0.134184545694797"
"-0.0007544148519491599","0.007540520991357733","-0.08209506855765443","0.043519825961636345","-0.19137609412086037","-0.43746742716105647","0.7813246985427288","0.6026633265988859","-0.21065553343785115"
"0.008012055176169952","0.023935948181742276","-0.008941358506572761","0.22395643038758017","0.28086210089366526","-0.5534724634060945","0.6727672349242868","0.6791939741319181","-0.2137624226812695"
"0.025401535151772264","-0.030844969223127773","0.0033902621814617634","0.2716221630553521","0.1317190083130959","-0.2635569481376374","0.6112160446950422","0.6888114266489979","-0.3110876485863534"
"-0.00639653614407193","0.019794581874204836","0.07999005199808595","-0.17837662721415457","0.11882153048334339","-0.29425702572131385","0.4960548544653142","0.7389435522524321","-0.2095229325721547"
"0.0073775572356394115","0.03116230519241144","0.03516788422176484","0.15097038325480316","0.08964723938208467","-0.17446847793849304","0.41355006756228424","0.7658433954380645","-0.19647105592936712"
"0.005761946394652719","0.006854655886550367","-0.03874542557627029","0.12258852506361115","-0.14291661534987707","-0.2597952785522858","0.36130539500464115","0.787967494026738","-0.2770279053812829"
"0.009334968939886109","0.03359290392821219","-0.006116713118023975","0.048704232554566095","-0.16459749337172308","-0.24183633988673595","0.2845126923012462","0.8178224940900464","-0.343137147830664"
"-0.015215961235513028","-0.009769393005436628","-0.027529041058314243","0.054890861480502325","-0.08004470171328425","-0.18146761025085056","0.19473544697819228","0.8422553089894044","-0.38370158287624223"
"-0.011653529702944023","0.015147360188746475","-0.017516698553609603","-0.12350952754264735","0.018326987141107653","-0.03741750708431334","0.15689637213377644","0.8398674366909249","-0.40024115107371405"
"-0.033393990244946166","0.0901853444934397","0.031578475955845564","-0.07865598645481002","0.014778206267855278","0.0809634482085049","0.15068273907758722","0.8563186894876309","-0.3250776390774956"
"-0.04270445319628189","0.12755008711062976","0.09399452694123822","0.11727414727475836","-0.1575851330003787","0.43977818897898346","0.22190267670816688","0.8274267539424937","-0.34070197425218246"
"-0.024536052380180015","0.008149001649234692","-0.12370989971891647","-0.10434118301799901","-0.16247942547798938","0.8711324806566626","0.3964416787887412","0.7238379512482396","-0.39746276511168815"
"-0.08520329856049685","-0.11713018562664605","-0.004287106223445212","-0.22184477162841232","0.2738018745812195","0.3884496007659593","0.5686679833640975","0.6382175577834266","-0.30938793011546695"
"-0.08067804769480108","-0.031846292804885004","0.04189028002473794","-0.01752042414141506","-0.05120786549678987","0.5031198510290984","0.7137549220348431","0.5656315169755068","-0.2481653782698844"
"-0.025903255833220003","-0.04624187736875792","-0.03829107009957164","0.203921611223445","-0.06394738572090802","0.5761447786569895","0.837637489603527","0.4568975750745844","-0.2975716180534392"
"0.0026645565999839495","-0.02598584918634319","-0.057398783146916384","-0.012618103181118256","0.01628287212637549","0.3021981574992511","0.9207831444899309","0.3783220645235173","-0.2698858191141928"
"0.030573800609329196","0.0014822017065039337","0.011289211491346","-0.36377331757636094","-0.06628324364665278","0.3642293024035016","0.9788513565486661","0.33205538965740045","-0.1969678967131647"
"0.05321834850513735","-0.007904895257247588","-0.03434437320879388","-0.3728135363150072","-0.04639973171316159","0.24393353594755923","1.008303419958495","0.3054325924290503","-0.11990527619466737"
"0.07194518453445274","-0.06924635181396274","-0.010633213081625166","-0.3350833795133514","0.07532574980456767","0.07040650453348575","1.0407926403330081","0.28053803426755547","-0.06885652000415024"
"0.07016108031016886","-0.0603445436234446","-0.02498051988446822","-0.14644222300106638","0.2111692906501333","-0.077822692198197","1.0402075000003623","0.2978863882592702","0.00231265358548508"
"0.04752519778835885","-0.06123576315990488","-0.017898770204469828","-0.06014808815537056","0.28607948847370984","-0.23379850139210068","1.01312386174648","0.3338100140535206","0.09695265117550511"
"0.01768646383542758","-0.04453838081888047","0.05545072575202562","-0.04100670061950627","0.21303366905602997","-0.35323029728521393","0.9468915488560707","0.38870469158928117","0.16565069560362092"
"-0.1308216785640425","0.46360633027029546","0.28978043235501705","-0.24805081572489282","0.4189074750298919","0.3877458045209581","0.9074920997912663","0.3894434808087002","0.2376926092542691"
"-0.03932495733700695","0.05187952390418324","0.08810649301365718","-0.012547822460359879","-0.23770793180988972","0.10581230942425689","0.9226500207893242","0.35024807418559406","0.29556475449858516"
"0.09269432629106757","0.00888950328972715","-0.08907149037714539","0.12653579842127352","-0.2959464223478741","-0.007847386506404512","0.9659225415797347","0.3574776544041946","0.21283422661755494"
"0.03961563696672255","-0.08885837520313111","-0.008884977122418796","0.2082347294288907","-0.13934581614371808","-0.16342615754278333","0.9980773960498788","0.3858814613579299","0.16805318228843155"
"-0.11827614265340088","-0.021672055789001082","0.09013044013713295","-0.020438518177286934","-0.22654080775095017","-0.06977757305275135","0.9603776403322837","0.41630374600043496","0.16862520292767216"
"0.014050858033540945","0.08943746795934718","0.15105331380592052","0.42439126949288075","-0.09180536344188027","0.10602344829775727","0.989049516631918","0.3917653897840172","0.10857937925424177"
"0.03805394400839096","-0.14510284543652396","-0.04229352879885332","0.48628644124022585","-0.13688072017699976","-0.17006853796543334","1.0061300415800967","0.43061778712667875","-0.11638326340162865"
"-0.02050183937437889","-0.10251543168958767","-0.009276755458463036","0.2573927239757789","-0.23199752503650145","-0.3309029681334493","0.9558637006233031","0.47990558219363416","-0.23216514381798228"
"-0.027222318319603662","-0.017830878812509127","-0.07047802511933686","-0.07249342626885955","-0.0012363016464156478","-0.32061298165480995","0.8799626403315589","0.5013304695567861","-0.23404464020405863"
"0.015446946066574752","-0.015423131859694532","-0.09172740466366565","-0.07077780648267555","-0.23678172584957904","-0.5283299492743248","0.786312323282898","0.5870827896679236","-0.28150600981419527"
"0.012575818815190756","0.034984785255551085","0.005483808302959101","0.3960575487816603","0.20291959570131962","-0.26634786428160806","0.6882873856520776","0.6401304941551367","-0.3103521934787583"
"0.02284139854498823","-0.018272333711105416","0.019364368116102638","-0.019659653751348184","0.1505207499776971","-0.38439148275354634","0.592937375256208","0.6715290359804454","-0.3419767631053473"
"-0.0043361027711806875","0.045752129911666724","0.11038643338922517","-0.000717074007766153","0.07673779506705682","-0.32801497664534063","0.49129014032805746","0.7310279534729426","-0.27817194665976414"
"0.010953468238872192","0.038064582371640496","-0.018295298620497735","0.09507988075910202","-0.007998801805211106","-0.1858772577583241","0.44601142411143335","0.7396295708133213","-0.3114962347572396"
"-0.002949642931478159","0.0014586228213318499","-0.008745572601158984","0.10635656681722386","-0.20318940838466784","-0.2319564967370801","0.3828441320110719","0.7639832297248843","-0.38778744458510384"
"0.007383334151638176","0.032216603362000225","-0.022000361007758484","-0.00014452682098522074","-0.11384044942787608","-0.1969487007572752","0.29783160082527504","0.7877696040572508","-0.43505269283321507"
"-0.010199672509922627","-0.017872427508847603","-0.015831452785491","0.05027640265043505","-0.08637975901804486","-0.1327236530755035","0.2195621153775843","0.8150652271818574","-0.4361803906648609"
"-0.01169204247626909","0.029716410559832526","0.017153102621097017","-0.06485208269818481","-0.01848431486286777","-0.024516193848358896","0.18370137213401783","0.8237328078453986","-0.43467679355599986"
"-0.042377094623018786","0.0961475824180108","-0.007240623347203071","-0.06863857687274243","0.0034871094214632865","0.12394355682565185","0.19699241683268243","0.82273016533333","-0.4202455300003006"
"-0.0462572565355196","0.11062938052678604","0.0607253797860635","-0.053887327510278235","-0.07862308326257485","0.4958634690547749","0.28467987525343086","0.7861469063074553","-0.4215366623003008"
"-0.03593583328440081","0.027790628484544236","-0.07993688004333588","-0.12102563357611833","-0.13129715814752996","0.8609881071942305","0.4618102130928646","0.6914235742462296","-0.41364277747878014"
"-0.07222449394994818","-0.17034367846214715","-0.006711092691632471","-0.1490223919275384","0.19420560112382307","0.43776387558811775","0.6446526351319339","0.592254314203857","-0.35630996598003384"
"-0.08426936380736388","-0.02275855419825219","0.08354228572500262","0.017837517647245647","-0.13594494102846882","0.4948927156133939","0.7306961278562019","0.5459348686792102","-0.27065396111545875"
"-0.0226392982939203","-0.047075967447752796","-0.0795114380969726","0.11936331390552114","0.07191051490698801","0.5445224853040012","0.8376653534288913","0.44511652555777725","-0.30809679781546667"
"0.009480354659188235","-0.025620220658564615","-0.06949909559226797","-0.029194725784101427","0.09802377907481687","0.3678696278086806","0.9468079573799784","0.3567388651847756","-0.2689215557509015"
"0.04044751287054407","-0.01403021181494718","-0.03627744923692992","-0.3430549461966305","0.02786906249965716","0.34508119077225996","1.0029535654885922","0.3074378774531877","-0.20930229603987613"
"0.06281669443707796","-0.01425976836221725","-0.029734730372469473","-0.37985123588683944","0.021737435444577194","0.2036909520351069","1.018891673596844","0.2859602194315058","-0.13178532769935344"
"0.07420203305130185","-0.06143519690232956","-0.016748424747555536","-0.32201886744908825","0.06382835075202896","-0.01722680625702843","1.0324334927237853","0.2921080011502427","-0.05482240220655234"
"0.0649194918606268","-0.06022509112147149","-0.018390300220171085","-0.12614746144508515","0.18967508979858244","-0.09166806315589453","1.0372539345117702","0.3099972543918893","0.024564256451945477"
"0.040534166610525474","-0.06507486270157992","0.016045094833602374","-0.06320096713516261","0.33083414340345046","-0.25746547029297123","1.004764714137257","0.34264909935728405","0.10933117780867228"
"-0.0003904691440272395","-0.03313637982619464","0.0781932826129595","-0.07614802374829525","0.1931549437166489","-0.35606975110125355","0.9279441476084987","0.4036387879532516","0.17834955379476286"
"-0.18155262922649126","0.5833600602918633","0.38818969810360937","0.20838876936479947","0.6630955735583108","0.6476407696147055","0.8866499584189373","0.3691135846100443","0.2775706195327586"
"-0.018335495874843694","0.04054503954304742","-0.035209713866688114","-0.046133342236470226","-0.21836051841673343","0.055476316605044866","0.928780062369421","0.3564090485689635","0.3011051829758015"
"0.08435111164179097","0.007779425995303961","-0.09670879289001623","0.23372833882179317","-0.24269556287264796","-0.025440836501274367","0.9657274948021861","0.3603140773001784","0.24429536177578945"
"0.028395903277796473","-0.11556172233986864","0.0015336004834977644","0.19176208378264592","-0.023813948074795005","-0.32248168202946853","0.9912786226610442","0.4046678157945852","0.16947506216311542"
"-0.13498105808315009","-0.009509713653321164","0.05003563457064453","-0.05666582285423279","-0.28625356927485546","-0.0393226107130237","0.9485633783779152","0.43212175089478183","0.144240780249186"
"0.005532795393368538","0.09170602677942788","0.1289922901600346","0.432074011296331","-0.00348312892171193","0.0792452146172604","0.9507367567563132","0.44275503858856285","0.08235141577271719"
"0.042578232054753584","-0.14531058891821633","-0.04752068203305452","0.29167623721147584","-0.06424654785279131","-0.12377087946236658","0.9771795270268213","0.46977361575588744","-0.07522882992529083"
"-0.0160536140553333","-0.12336249007741719","-0.04559999751791935","0.2681177545134274","-0.1508264621168713","-0.38463417111389164","0.9239038929307078","0.4978344134291781","-0.12456152419808608"
"-0.0354255390378436","-0.019640324538049685","-0.07857381361323995","0.04475310819850599","0.04989218200037766","-0.31338086851652097","0.8502598024934535","0.5314625155773767","-0.15332925931783903"
"0.0021658161854242893","-0.0013375005705066317","-0.07637432005558516","-0.04103943410588688","-0.0021668155414254417","-0.41907164944688513","0.7781203586258597","0.6039166297389718","-0.17492058693214738"
"-0.009082802083495593","0.050655914797015165","-0.009735861015145345","0.21332767480987463","0.17455902559878345","-0.4797922772052712","0.6278228846120316","0.7087587355733117","-0.23781997642304673"
"0.026319101976242064","-0.020175264003407543","-0.03160584883560115","0.19105927657506214","0.13803252594436094","-0.30741073485202736","0.5703676767113062","0.7085212676099271","-0.33998286259142285"
"-0.012096426596182326","0.029381943554307805","0.10141291272442696","-0.11758861750615378","0.09068832360103853","-0.3048867759044366","0.4900919958374021","0.7396163781486889","-0.2422000201749464"
"0.01055871231229022","0.010016200062685733","0.02342155599780484","0.11548343301981884","-0.09738892547135003","-0.2165967504108281","0.41137668918388626","0.7664634506757912","-0.2613545398660897"
"-0.0027185662915277463","0.007732995327145717","-0.02919776480909835","0.10617364439333218","-0.17118863346137578","-0.24649595640536515","0.33366448024347695","0.7936403398187055","-0.34217288446737265"
"0.005390298132065785","0.024992323786147984","-0.03539352130953439","-0.004295614268846909","-0.14500357038189493","-0.22033900492735214","0.25302656963983994","0.8289043323813318","-0.39702149204713105"
"-0.006906830390629136","0.004534670167576718","0.0019216613656417422","0.00023787731990831612","-0.03143923182194188","-0.08083445475008176","0.1894691839843817","0.8481128520862266","-0.39296831723194037"
"-0.027896291852792392","0.02016540398902572","0.0074899942578002905","-0.04461604886776878","-0.014990819151587427","-0.024309908742065414","0.15450008315246563","0.8491418799275603","-0.4038530528243477"
"-0.03210381233855629","0.10114589058752925","0.0071337382590252185","-0.06054762923913394","-0.01346533160868814","0.193017517947122","0.1834784615311053","0.8460943743974567","-0.3728331907306703"
"-0.047287473221965234","0.09688611049542717","0.039021644765036057","-0.017534865385406505","-0.09740807184779057","0.6335891135507145","0.30424028065901254","0.7927168532944318","-0.3601506759863638"
"-0.05504779704696689","-0.022872813113182996","-0.02534606951799394","-0.08807745403483054","0.005106892868332188","0.8090770669163777","0.525451190224415","0.6876504721613393","-0.33200726053572494"
"-0.07448711938279608","-0.14774118765401706","0.05727847391965425","-0.136785844518785","0.064479327551007","0.4590476447903977","0.6692285291030491","0.6016211060929197","-0.2852813460331834"
"-0.0685754086773978","-0.021667900919367235","0.04114885449685243","0.17302697657774102","-0.04896534615619271","0.5666071260954205","0.7888200675656649","0.5150772261038331","-0.2777143301483717"
"0.0014205940215841733","-0.06002254122682143","-0.09641759233449573","-0.01867764915992974","0.12257900685979753","0.5049157448956535","0.9087738357580138","0.4022931361607383","-0.28269908143318284"
"0.01231393195658029","0.017050290481048603","0.015426138759208811","-0.23361919922943938","-0.035069863454477525","0.3752716227992113","0.9912786226610442","0.33801847407128255","-0.2302039301977287"
"0.049172581667338726","-0.01606298178330704","-0.0890343158381428","-0.45746810859287407","0.0895802270645428","0.2880736949271565","1.0335480457383484","0.29384943288173043","-0.15895957675265035"
"0.06369382284955644","-0.034330904845925776","-0.03879499162827377","-0.35863223471540556","0.03172945064947918","0.1518405838473404","1.049096060291503","0.2762372255973661","-0.07442146365161977"
"0.0676182744513811","-0.058297231611366275","-0.041052312246599304","-0.2463756314218849","0.13399742710951906","-0.05632778412241661","1.057928892931915","0.28366469578545384","-0.006285633794643325"
