"AccX","AccY","AccZ","GyroX","GyroY","GyroZ","MagX","MagY","MagZ"
"0.04057653066118305","0.035557118547613564","0.0018221162112014033","0.19758671885919657","0.041654453536839296","-0.21515032778317028","0.13354648647868028","0.8453160071841404","0.038671919760302896"
"0.04651423748857575","0.059476703029673283","-0.028687647523895785","0.06962093035177905","0.13539989918378795","-0.14357424966654042","0.07458663200829474","0.8691023815165068","-0.0013875027780600104"
"0.051578667180822484","0.05930635337468554","0.00975282909941121","0.03165104889986515","0.17742380217369785","0.004403521923824611","0.05446895009543156","0.8854876709900502","-0.025487549481609414"
"0.03834278980832898","0.017989291018298124","0.07122099129780214","0.06966617958295225","0.025224469253808855","0.15874749458276674","0.08188695425368293","0.8730997589001488","-0.03553386625135838"
"-0.0013513628384877593","-0.11644463213706123","-0.007916580381400643","0.1436149763151591","-0.12433745031139706","0.25288388267709266","0.14990255196739324","0.8410811618371133","-0.08346756147503942"
"-0.059476765979349956","-0.20251275660221094","-0.04689078012217686","0.12084594828864312","0.13250879634126783","-0.07266071077365314","0.18356205300719747","0.8239966611380483","-0.12663550760150424"
"0.0014851029169036696","-0.05764595579626069","-0.006881682520611144","0.06469357790189707","0.06831099613616823","-0.1868358767816879","0.13087155924372937","0.8477434574765171","-0.13026375279897337"
"0.028538400539099236","0.08800819280530367","-0.009440116904857862","0.001072870047493826","0.1968884871225524","-0.024676368166186773","0.12170436069894787","0.8547487623963655","-0.16796808464834845"
"-0.03696604997084641","-0.07475778638326137","-0.13733230301120852","0.2238120179476657","-0.13301315213601256","0.29020935249819485","0.19180974531496428","0.8249465329915869","-0.18936655958999854"
"-0.03323993915164588","0.02385285078906533","0.11848635238746189","-0.32038219313005756","0.030281505931164042","-0.16944240199574254","0.19417817047091082","0.8218330641383211","-0.1529370165937883"
"0.03585775310952883","0.13429136309154724","-0.09546964158992902","-0.14559500335356812","0.05641391647543343","0.1386747402986096","0.14661462057443234","0.8417803730626349","-0.009426844276416142"
"-0.03521371878455573","-0.007679493579611364","0.010259869158885226","0.016166184342635427","-0.26935689206608704","0.4481266685748607","0.27601422556520294","0.7854872730758313","0.008238787408017976"
"-0.004596063991124922","0.02045520614598658","-0.01671125020855292","0.00016952209834879674","0.025526024682747218","0.3154974796461718","0.40037047816507604","0.7285477325220358","-0.038732278797055264"
"0.002344900581385859","0.0412617545548861","-0.044269975122492415","-0.0028134612605246532","-0.05183012273110712","0.4391471992420858","0.5034666320121588","0.6695765216148382","-0.04654934941844932"
"0.007933103990853554","0.018738206269799124","-0.046965129200182094","-0.053834376282309596","0.029209308850494314","0.4627850455397149","0.6001819698508677","0.6066475113178955","-0.027210148778065473"
"0.01308707588108107","0.020287972643224222","0.02727779484367623","-0.16512919272599982","0.16343976748094521","0.4103400908691025","0.7006589241137275","0.5325311214126076","0.04384135199435461"
"0.0055857504566905235","-0.012946829557921459","-0.02392517602722728","-0.14994663154299104","-0.04696933641226738","0.34483850241191466","0.7700119854449136","0.4599450806046878","0.0926265407981624"
"9.671743853489194e-05","-0.012650795096509829","-0.04402214486247497","-0.07522185863364374","-0.023526991757892555","0.2896997069414698","0.8415941528052255","0.39041973799150387","0.11590124343652179"
"0.0059728038286074835","-0.0034525369576166717","0.0031358231145105246","-0.06939722355709313","-0.033329936495444294","0.32598161681308735","0.8906902130967284","0.32700259910315954","0.12587074600614415"
"0.0005405771511063178","-0.005746648225945537","-0.044588023956181465","-0.03349243999595628","-0.05253853865940676","0.24642837229190856","0.9192506340949066","0.2782952812800334","0.1319668516757657"
"0.006541830054485386","0.0014979902111125546","-0.034150239505113554","0.01730607986836037","-0.025308801415389444","0.2572037354912384","0.9508760758831335","0.23158005581641208","0.1217031670631053"
"-0.0011587989718623952","0.009738135412440492","-0.021116433080362942","-0.044234800026394565","0.022409951917050832","0.20333905391260626","0.9730835446983025","0.18679095938913323","0.12397490617323234"
"-0.013415489082565984","0.016051044334108294","-0.046209246907128895","-0.10926083347108556","-0.009489347211106424","0.15624052382040013","0.9916129885654135","0.14123668841317052","0.1346798638504498"
"-0.030081891738990115","-0.03134043742696408","-0.05092421760396073","-0.13271341371319673","-0.06697969308967708","-0.02113214735170448","0.9974643918918694","0.11945559910494154","0.14208344526690708"
"-0.02288000312720199","-0.08140973266705112","-0.056638770349529556","-0.09674508867849749","-0.017510482291161276","-0.16724849921822132","0.9913900779625003","0.13181712586557787","0.14551556910235083"
"-0.015610717162094983","-0.11478268428352226","0.019343302544001156","0.031674154890251466","-0.04973838110497914","-0.4800106967295819","0.9623002442824048","0.1992052568082996","0.14239397075678054"
"-0.010806248689792488","0.030248233872965","-0.05313610267461639","0.22765338884939076","-0.018193050611266196","-0.7933456387713573","0.8781236278575298","0.3348918125533842","0.105294346440317"
"-0.08382646691412558","0.14132347994683403","-0.046547948262486066","-0.02782762135291104","0.15723155492010313","-0.5518949890638503","0.7543246517649385","0.4824517664677033","0.09713896646942918"
"-0.03101582649212306","-0.00031062454050123666","-0.0009645285374780453","-0.19374211082105494","0.15452712924787818","-0.526776743768115","0.6430922609115453","0.5596816252262571","0.1698019310998243"
"-0.02853175261265604","0.018482681787317507","0.02637734489894619","0.005797659981655762","0.11983628843469152","-0.6138775962960318","0.5009031600786638","0.6424787884597186","0.22818072319603921"
"-0.017671150534986243","0.040698769719499775","0.024421344571758534","0.13548936969597114","0.032938065662287686","-0.5116087212465358","0.3426366320107099","0.7386005429719876","0.2090915772922377"
"0.02006270194958441","0.01783556084184577","-0.010123302321639278","0.22086600417341032","0.03854795395936318","-0.3454642697541654","0.22298936589736557","0.8048672974209482","0.12788098996690406"
"0.04173191386093516","0.03343398016471752","0.0145023514649938","0.18978844710381473","-0.026692605772628802","-0.2392808314523003","0.12493656444118087","0.8468067782876109","0.03996632074967027"
"0.04767732324299287","0.0622459236406326","-0.018295298620497735","0.061621443930116405","0.07614186410034529","-0.14218364536176203","0.06254945945101376","0.8733504195281662","-0.009562494885150354"
"0.05331559325778315","0.06731382587651802","-0.004333780922415164","0.0012561775712252696","0.14179718221198026","-0.004020433752119984","0.03532650207031096","0.8920180399831292","-0.023013151630722817"
"0.04576323840873689","0.021104404526275242","0.04296834165581381","-0.024015132939168828","0.06468754439479778","0.1608200531801153","0.06890241163402304","0.8780338154726974","0.007650423321941903"
"-0.0018712852783761924","-0.09447783638290978","0.03460613563239197","0.10714602148875634","-0.11303151502326364","0.2894084809090555","0.14502638252867978","0.847822613464312","-0.02403298271325468"
"-0.06920124124393019","-0.23001799357828104","-0.08132886000376718","0.16149323637657143","0.19326503538118198","-0.14656417026599414","0.19376021309044972","0.8206325316567651","-0.07094357816503676"
"-0.008283662037000384","-0.11977891501822378","-0.03070952939520474","0.126776485821131","0.044174595335824164","-0.1617564616236079","0.15006973491957787","0.838257931605762","-0.12120294587340183"
"0.04964628877923709","0.08830422726671527","-0.06204973102657703","0.06465506791791988","0.26513813924187934","-0.1532696496623339","0.09175074843256595","0.8644453709012403","-0.1908227607030368"
"-0.04632465388883847","0.034290922026698555","0.176997011525413","0.05749991289495723","-0.11406302605399725","0.3366356358322446","0.14079108107334026","0.8469914755924656","-0.19165137345759398"
"-0.06833470384411612","-0.08660331970936043","0.07096076952478383","-0.1878308282805557","-0.0800973542484957","0.09991740915147033","0.21033918918207492","0.8141417406575837","-0.21532649054342176"
"0.03174844019574384","0.13554821115578608","-0.09699999344553673","-0.30222473568481056","-0.1640972942872142","-0.04838702097191946","0.16149390331884916","0.8365824631974368","-0.037280980718067604"
"-0.02109878736091749","0.022799591336885","0.020807772855487554","-0.010695492231056841","-0.015474265156710828","0.410315822033068","0.24179744801811723","0.8001970941410496","0.022781186402198273"
"-0.001775003345063519","-0.010549469779191486","-0.042537228554537135","-0.019156135710846376","-0.04601680418435098","0.3287482641210234","0.3554539916781848","0.7537061439761804","0.009142580018018175"
"0.006658331193793726","0.02184812619073393","-0.0031828158898508283","0.011466040798218894","0.002370875674980344","0.3897843867478583","0.45111050415305903","0.6988774297635821","0.012777362594221471"
"0.0037737244717459687","0.02850111119193215","-0.0279338304830094","-0.016756963709067183","0.013721804947748998","0.44273898697519576","0.5571044958380058","0.6357769148264174","0.012963677888145566"
"0.006635223529798686","0.014682014789755561","-0.030990403689891175","-0.1580144731862132","0.07975574265349547","0.42208620750981346","0.6912130873153056","0.5413042433932087","0.022233680933210813"
"0.006193289455893509","-0.0032382495562509896","0.013018054732706005","-0.20460192630262367","0.07009878903630277","0.3485759031612318","0.7645228118481907","0.46782110139027994","0.10593174086689941"
"0.00542688526672462","-0.013352968064630044","-0.057101386834895455","-0.11763675498612526","-0.016285353528672813","0.2974171968004493","0.8142040124723386","0.413625635080041","0.16414709849475984"
"0.003559015760458707","-0.019777435235966652","-0.015860366315826373","-0.042588498211369515","-0.03120708200760045","0.28965116926940077","0.8580616735953949","0.3532164237279027","0.17671520911121819"
"0.0016535963002008523","0.010516446366600964","-0.03057528800436196","-0.032006917364036026","-0.023669871592080016","0.231891339507227","0.8897707068597139","0.30296556414277603","0.18714232819223306"
"0.010311267743676638","0.01146998894756895","-0.024086265696238618","0.02405880555876135","-0.04806785976054283","0.25455843236347503","0.9302568451137168","0.2482423912472377","0.16151580355425296"
"0.0020281330207871594","0.01748447435778566","-0.023429515507192394","-0.02566432300299217","0.004678492695475313","0.22062089205279278","0.9545819646565555","0.20516834122218172","0.1607966918934933"
"0.0010219868176697022","0.01809939506359508","-0.017136692154916193","-0.10572754244117802","0.00671375251110373","0.17724034764107616","0.9719968555091032","0.1666721458245972","0.18472349806058697"
"-0.018797649154744557","-0.012001596716221166","-0.04979452466871455","-0.1359675073592696","-0.02412100808696002","0.07868945827206975","0.9823064708938113","0.132476759097202","0.1958697288023615"
"-0.026153588859832957","-0.04932479063707273","-0.0710872745085464","-0.1089623810952623","-0.08497250034966584","-0.07301746266336069","0.9821671517669909","0.12325508651909654","0.20158993519476773"
"-0.020087827061134392","-0.09734469643026451","-0.047985363770587236","-0.06512357808522404","-0.029854869171487962","-0.2505245831870966","0.9681795114342251","0.14362456071164986","0.19578801156818423"
"-0.014243513709054996","-0.07065485261983703","0.023640266202270232","0.09550830433084832","-0.07918550807051543","-0.596986486416001","0.9325138149682072","0.23367768949297682","0.17972240332894038"
"-0.03678311429755234","0.0988274733318424","-0.018229210551159745","0.20861982926866265","0.0500597127942323","-0.7894626250058331","0.8447149012460023","0.37750411931630334","0.14427346714285688"
"-0.05256372316749983","0.08366323788570769","-0.08583317497958416","-0.07745447495472156","0.05071786948437554","-0.4626342101288607","0.7282719750495271","0.4858554739428839","0.1577404673352648"
"-0.02740525399289773","0.004076034883044468","0.009063096833261002","-0.09957557250082126","0.18127701043235467","-0.5179914251236163","0.6087083004122753","0.5587317533727183","0.2414025716859154"
"-0.031198762165417164","0.028805455392611475","-0.01222965300657085","0.10868642084784409","0.0940173998046358","-0.6142416288365496","0.4280392567516039","0.6865686736614759","0.2449654430960428"
"0.0027377308693015833","0.046117758439445294","0.016551288139687998","0.19397640786133463","-0.010854244521610759","-0.4056024454477228","0.279970888766902","0.7755004259490418","0.1890545114719803"
"0.030734591437961367","0.01841101028613364","-0.01497850364059764","0.24756305056560013","0.06835168218610435","-0.25860610558659397","0.20276022868304627","0.8128488595236003","0.11585221309601546"
"0.049008902380707174","0.04037780604028506","-0.028700039036896653","0.17575155794412753","0.013964006609721712","-0.19379617895639017","0.1344381288903307","0.8468331636168759","0.016781507068905865"
"0.051001938400279556","0.06610164266084304","-0.013989247852694689","0.09002448261249588","0.11670824918371983","-0.09910403451687352","0.08592720893147388","0.8659097566754458","-0.02510511282565997"
"0.049860034671191225","0.06730759357206724","0.008962126654825563","0.04764039424719611","0.18814098638628496","0.038852163921394005","0.0823885031102362","0.875316126558406","-0.06360863922528837"
"0.026300808408912656","0.014218227466877342","0.0881973641089969","0.04363150491517021","-0.014592574521624387","0.17085521688039215","0.1142089916760114","0.8601973328895809","-0.06820278213073239"
"-0.017382304735048225","-0.16118219091951352","-0.06581468572667533","0.06748651448984307","-0.030857181978149746","0.28911725487664114","0.18949704780974597","0.8261074874792455","-0.08070225027048186"
"-0.05059957172792127","-0.17463358135909465","0.04629339764438116","0.012931345688551126","0.21063797870390857","-0.20525592333189374","0.1837849636101103","0.8309096174054692","-0.03759314055262464"
"0.013865996721580611","-0.060504506104347724","-0.04917907952300457","0.11575300290765919","0.0936488320581556","-0.163418876891973","0.12858672556387465","0.8511999356102276","-0.08621162619871088"
"0.020288001673536074","0.11098254444566309","0.009513053322844333","-0.004917743059998479","0.2692785431471441","0.06658173597444433","0.13028641891108364","0.8514769815675097","-0.10190133516073951"
"-0.05975598358595671","-0.10523687129975771","-0.21052690505519306","0.29807852204768437","-0.13420501406943558","0.29266050493768203","0.22992745841302087","0.8115955563835144","-0.17477186156594482"
"-0.011826837182906847","0.05869039395146765","0.14505788676566525","-0.3194386985226163","-0.17408212960095099","-0.17044713180757193","0.21371071205112827","0.812730125541908","-0.14982358997163572"
"0.039497210188747967","0.11818085608630377","-0.1268945185601406","-0.10980960074276058","0.017632930995138414","0.1561580097778827","0.17932675155185795","0.8294848096251611","-0.029784241654648297"
"-0.03723563938412192","-0.014828985502054349","0.02218095902120086","0.012031174813084218","-0.21701787876884118","0.418470150940669","0.29554676714542066","0.7758038572355889","-0.006473583433250955"
"-0.005241152944319832","0.023237930083255906","-0.009468617384759872","-0.013707935727672847","-0.011898440026736205","0.31666238377582906","0.410568638248328","0.7234817493031626","-0.03673184090439661"
"0.0034155556798228124","0.03552284087313433","-0.048889944219650885","-0.011460878162603574","-0.024577170505655662","0.4226929284106766","0.5167576767108231","0.6648535476764093","-0.04280016271439789"
"0.007084860158368876","0.025699690341310515","-0.032456732728327706","-0.05806469802220437","0.04407407685951137","0.45764005230039523","0.6150055249445566","0.6022675466599112","-0.0228039555112291"
"0.009548714831840248","0.02126332828976991","0.01249967643883619","-0.14704875524870722","0.14635162650777153","0.42507127434206027","0.7092131185004987","0.5256445504744517","0.03820940021485977"
"0.0010662765069935323","0.0015042225155633257","-0.02200655676425892","-0.1656683325016805","-0.008537293642601033","0.35270160528710137","0.780433056131078","0.45181839919107847","0.09576121390120107"
"0.003840159005731714","-0.011627658449174896","-0.06301007328414461","-0.09061333647972876","0.008889259534159035","0.3202784403449736","0.8521824064435746","0.37427191648134517","0.12453058336563753"
"0.006283794473207418","-0.031671788280263416","-0.010270967851566337","-0.11126335263789965","-0.02767912281872715","0.26307679381159393","0.8941453274418738","0.31159356681241973","0.14476377054792028"
"0.0014157799249185509","-0.0002481976242526787","-0.04128568574144906","0.008528884320278308","-0.06002716514470934","0.21779599953837386","0.9186933575876252","0.2696804712750222","0.1491274708529845"
"0.004547831215579889","0.015144244036521088","-0.02350386458519763","0.0130401363932867","-0.017616266020995208","0.2575192303596873","0.9540804158000019","0.22588082469517956","0.13760534083399473"
"-0.0012261963251812649","0.01285927348138669","-0.030975946924723493","-0.05000552112537708","0.0013113630687024756","0.19093525181535959","0.9715788981286421","0.18326851793226043","0.14057984815804597"
"-0.012471926136101773","0.01897607255633689","-0.035670265099887195","-0.11903274190529854","-0.016704898502425944","0.1439483583689123","0.9880742827441754","0.14353221205922245","0.14476377054792028"
"-0.030659583338866172","-0.03497906450880598","-0.05327860507412642","-0.12485737698184914","-0.07454251178368672","-0.027807048014640727","0.9909721205820392","0.12448200432991745","0.14948702668336433"
"-0.01963530197456481","-0.07916194819513966","-0.06483988670394006","-0.0861182585999908","-0.02738666191859804","-0.17181104039271233","0.9921702650726949","0.1322920617923472","0.1521019781770358"
"-0.013039989542646553","-0.1246920483602484","-0.0009796048782957732","0.02956477051790066","-0.05991228688606617","-0.47282712126336196","0.9655045841992735","0.19814984363770094","0.15054935072766837"
"-0.004480525671149706","0.017437732074404876","-0.06654991549806041","0.23398828121363924","0.09828704175087416","-0.8255746530252089","0.8804363253627485","0.33567017976670066","0.11827104322766152"
"-0.10234148269015307","0.15635372084727714","-0.06950735660093521","0.011987851081109875","0.11892922885082136","-0.5623063197226622","0.7485847037399389","0.4914227784177916","0.09959211783942971"
"-0.03592620509106951","-0.0014552911246262068","0.0022454929053978665","-0.243025262815869","0.17144295283308708","-0.5390325059655511","0.6294389864831481","0.570829426840705","0.17333211561628076"
"-0.02738599760623519","0.011186834582022248","0.024528531159216074","-0.002864198164414607","0.11773258032328819","-0.5861868543806367","0.49368642930936796","0.6470962210810876","0.24429536177578945"
"-0.016246177921958666","0.033853621997736116","0.03029884571328884","0.15346390471732646","0.034931682109157945","-0.5266311307519079","0.3320205145469965","0.7429145443068096","0.21814584683907504"
"0.02266135132969353","0.023902709224671494","-0.02603999424604278","0.23242862686256285","0.03042749705152309","-0.3276266752687882","0.21390575882867685","0.8121364556334464","0.1294499608631069"
"0.04236352334346631","0.027180901365777124","-0.005562812486884992","0.2104297985155908","-0.01006134520726728","-0.22217858269876922","0.12259600311059828","0.8490231459458679","0.03605043088789728"
"0.04984174110386182","0.06472845824685645","-0.02452822965993639","0.07111704322929303","0.10933928755117053","-0.13765750744132282","0.05823056651958177","0.8738253554549354","-0.0062545812456559794"
"0.056775003121707586","0.06808663162841364","-0.012225522502237227","-0.0015772907748567249","0.17624390672555015","-0.01654218239249443","0.026744443858175506","0.8968729405678828","-0.01797283262667112"
"0.047181471286432596","0.008939777212296706","0.029686704971045762","0.008908207662453668","0.05787382767902391","0.14805221854235076","0.05945657483560143","0.8843135238377592","0.0030873329654852364"
"-0.0028533609981654857","-0.08224278402863754","0.050832821907033955","0.12054749591281985","-0.0888161354201024","0.2719349189641962","0.13388085238304923","0.8572817540058021","-0.024028079679204044"
"-0.06249039049203669","-0.1923333259992847","-0.04509401073705041","0.13788661619855147","0.10117575129633925","-0.0185154814504618","0.19554349791375022","0.8234293765588514","-0.05589616666364117"
"-0.0161691523753085","-0.09371957267473262","-0.0027780264651556747","0.09800952779016704","0.010066761685251677","-0.16107936109824458","0.15904188668681016","0.8351180774232311","-0.10185230482023318"
"0.029225853542951742","0.0687005136168146","-0.017694310239955435","0.041358453110916335","0.18535279531713267","-0.08382437534953546","0.12145358627067139","0.8555930929328444","-0.16671617662075322"
"-0.033625066884896596","-0.02471342036097741","0.07362907532430496","0.010196077801610979","-0.08857680571459577","0.2610624804207282","0.17041032743535356","0.8394056934287881","-0.15334560276467446"
"-0.03670608875090221","-0.07287147556949464","0.11352355143061262","-0.17721170019884444","-0.09653212512563629","0.03703442810240795","0.2191441579971229","0.8144187866148659","-0.19690742595987354"
"0.0476349591923353","0.15857657610138554","-0.13116546004110785","-0.23059616548722964","-0.11596091061866487","-0.050906126152303326","0.16283136693632494","0.8378489590021551","-0.020295236421988064"
"-0.0377748182106729","0.0072066772162780925","0.023359185382367115","-0.040280787421536166","-0.03932035902427535","0.42677009286447715","0.24472314968134523","0.7983896990863995","0.0402899209970121"
"-0.0070897660639232035","-0.00405634338715555","-0.013229235055307865","0.005127297435572757","-0.07053613251350566","0.2920537840368189","0.34815366943279663","0.7568328054940787","0.02146880762131191"
"0.005677218293337557","0.04617696533172763","-0.025610421795345884","0.004039775488056798","-0.11110491089393523","0.3912405169099299","0.4401042931342488","0.7065291752504221","0.004755998887384326"
"-0.00028359619805017934","0.025478443533308137","-0.06234506208643115","-0.039606862701935266","-0.045016406015333243","0.45196114466831594","0.5536493814928604","0.6377690071859223","-0.008805793296669173"
"0.010541381564293927","0.016330459316984534","-0.009087991410416415","-0.12528098680559827","0.1253695912260049","0.4164558375498032","0.6863090540512282","0.5491538788495358","0.013471959084727949"
"0.0076587004809124185","0.010558618293384513","0.016538896626687127","-0.14747236507245634","0.04017300265975323","0.3813631006438775","0.7628509823263461","0.47394249777975206","0.0787999847753747"
"0.0022120315134143685","0.0005947215527141209","-0.03754964457168613","-0.10369614078638102","-0.012379732064510046","0.33559207588275997","0.8192195010378726","0.41655440662845217","0.1346471769567789"
"0.009033606488617436","-0.023291416228793122","-0.01876617611453087","-0.07783091004809863","-0.03596256325601727","0.34838175247295555","0.8689007016620205","0.3496807896063973","0.1517260788998205"
"0.003363563435833969","-0.0061969322225137536","-0.017182127702586057","-0.06441210613124537","-0.058404509741374365","0.26960511070488163","0.9140679625771885","0.2869628619435745","0.15651470882260632"
"0.0001275276571949447","0.007214571468582402","-0.045767282943431124","0.0024291916831705998","-0.05738975179002624","0.28722428566594804","0.9538017775463615","0.2230444017991958","0.12895965745804353"
"-0.001611324058431976","-0.002024508264463306","-0.03723985674666433","-0.035597973369909365","-0.0014569636348927644","0.2275035339521846","0.9822786070684476","0.17252968892141946","0.12765218171120782"
"-0.014147231775742307","0.007342022094600672","-0.03317130997804466","-0.07968709127579938","0.036855892941431274","0.20775598207089013","0.9960154729729372","0.131302611944911","0.15048397694032656"
"-0.03919016263036923","-0.04479494401877056","-0.05024681489324638","-0.10508250020956","-0.07354211361466899","0.009938515358219137","1.000947370062379","0.10304392430213306","0.15780584112260657"
"-0.014012437069104584","-0.08213579613556597","-0.06650447995039055","-0.08941760147723687","-0.032511428902611605","-0.1885686716745531","0.9963219750519423","0.12010203967193321","0.14755849995678166"
"-0.018932443861382296","-0.11531243016183779","0.01582638462913698","0.0360970265500322","-0.06268611817288805","-0.5299074236165691","0.9667027286899287","0.19106538273005766","0.14095574743526126"
"-0.0188457901214009","0.046486503119449255","-0.04284908163172575","0.2730951699424798","-0.029969747430131147","-0.8476350249805938","0.8787923596662677","0.3436121638754553","0.09788749633449266"
"-0.07800140994870872","0.13403168373943178","-0.06550489790165352","-0.07640218964254473","0.1507265735244328","-0.5317275863191585","0.7663618243222194","0.46915356051816076","0.11230568513272356"
