"AccX","AccY","AccZ","GyroX","GyroY","GyroZ","MagX","MagY","MagZ"
"0.03856134979694876","0.03534625891369581","0.0312748838873242","0.05738727119182393","0.18313899554119628","-0.00562945758120911","-0.09059012474995015","0.8935747744097621","0.16563435215678546"
"0.015077223442654069","-0.044318172728286566","0.04434379959891061","0.14362460381115338","-0.016633817579890475","0.16557917192648602","-0.06152815489521833","0.8886407178372134","0.13206491235677836"
"-0.015591460775432442","-0.1685882460418466","-0.06079199245698852","0.1488619616320518","-0.0006513798461574323","0.08949637095824452","0.0034502858538078517","0.8570047080485199","0.07406201953777874"
"-0.00796593165706856","-0.10338795431269564","-0.004629938083136005","0.18039201101337937","0.0020628583439933064","-0.08357440633837984","-0.015524979219128437","0.8657910226937535","0.016361480485234878"
"0.02247745283706631","0.009109711380321066","-0.048278629578274536","0.11310544150922712","0.12018570980473119","-0.056254977614313036","-0.031212312899103516","0.884062863209742","-0.08653522644605272"
"-0.043840580009371445","-0.06208855015225207","-0.04982756870338355","-0.06524777278355047","0.12063325635402863","0.1098676319256263","-0.0051875000090558085","0.8765034663753294","-0.0833351795556723"
"-0.02073291601432932","0.03354200677519756","-0.008061148033077484","-0.1329733561050428","-0.03917915449802644","0.05354209037309307","0.024738248431962165","0.8643398295841803","-0.020045181685405734"
"-0.0027763354515153538","0.08841952489905457","-0.02902221837491933","-0.26112495528515023","-0.004288234051036247","0.14694555961917635","0.016880649679292495","0.8430204835380883","0.1417729197770336"
"-0.02932126446581999","-0.007954753692853759","-0.03451165863430566","-0.09865133288536859","-0.03433512125857215","0.33840726086276507","0.11482199583402107","0.7962261020866721","0.1892342893871702"
"-0.01169204247626909","0.010615747750849917","-0.012483679023088726","-0.034880724918334126","-0.09715916895406367","0.37029651141213327","0.22427110186411311","0.7513578496715985","0.20927135520742762"
"0.00376698473641408","0.027390722282286423","-0.021707095200071178","-0.02824064093106645","-0.06568731267994125","0.42295988560705644","0.3435840020730885","0.6939037951971363","0.20935307244160484"
"0.0018769703854862691","0.024965317133527978","-0.04940212675702027","-0.07165583411735557","-0.08844278107951205","0.4828068352681995","0.46058420477684486","0.6236792413584308","0.21139600329603564"
"0.011807488987355617","0.004854169255245502","-0.02431344343458794","-0.1264266588289198","0.014497711853001506","0.426673017520339","0.5828506704744122","0.5321749194675307","0.2191101102023664"
"0.012036639988639781","0.004799927432175623","0.0059307288718572215","-0.1586306329298483","0.02986985883769263","0.3538907782527932","0.6587238669407924","0.45035401341687287","0.2741875260378211"
"0.006039238362593229","0.009877842903878612","-0.040847852282084915","-0.12018804142461437","-0.04402797433159085","0.30513468665942883","0.717265764030717","0.3855252594128528","0.3192300655163117"
"0.007597080043592313","-0.01046844982133146","-0.03473057536398773","-0.06450067909439292","-0.0399282564762622","0.29210232170888795","0.763213212056079","0.323598891627979","0.32741813238087036"
"-0.0011684271651936575","0.002391598797612293","0.0014284791482070333","-0.11407458146823482","-0.044923067430185655","0.2568882406227896","0.8012194698526791","0.26213426710524207","0.33928347478340454"
"0.003581160605120622","0.00468452592809551","-0.036645064122622466","-0.012335054798885883","-0.08522618983750288","0.27525974950092635","0.8381947661108085","0.20423166203327547","0.3227765934796036"
"0.002270763492735101","-0.002988230276034221","-0.03765910293652717","0.019529068693443896","-0.021593207737398947","0.24608860858742515","0.8606808731796178","0.15613120678324346","0.3057957522175746"
"-0.008225892877012777","0.012472351246734646","-0.019290750164901123","-0.04256154122258547","0.029120756859456864","0.21268255578589906","0.8864827754667528","0.11279330346553776","0.3199982075175776"
"-0.02814662487940535","0.007583108405104669","-0.04981311193821586","-0.1187150345374867","-0.03190353145062475","0.09531118407211714","0.8954827910593496","0.07280633696448267","0.3280718702542882"
"-0.023457694727078034","-0.02871248238355557","-0.0717419594454258","-0.12367319497455043","-0.161239697603465","-0.07282088509148102","0.9042320322236697","0.05966644299052988","0.3136569501454244"
"-0.01258746445607699","-0.09263722913511538","-0.06320627223999176","-0.05500700529441515","-0.016320295665676783","-0.2531941551508945","0.8973496673587426","0.08049766044522008","0.2977711198213704"
"-0.007648201277136719","-0.08479283526641142","0.006588511686986848","0.08334588864125099","0.0032650114547531305","-0.5437406601562492","0.863522983366754","0.1640468055627331","0.2952542290087116"
"-0.014359052029030211","0.07525378174680049","-0.09800577125077417","0.36224578284968395","0.06580042752540363","-0.7031626440670558","0.8102752130960038","0.2977148836190479","0.26109642512262843"
"-0.07171419970339102","0.09189507334776793","-0.04260951238037555","-0.014634100842324365","0.10014424026560564","-0.5142540243742991","0.7001852390825382","0.4133090111288614","0.2721772820770612"
"-0.030986941912129275","0.023004218666351987","0.013416854926117406","-0.11068570287824173","0.13053193297378302","-0.5215346751846572","0.592658737002567","0.4936391460760487","0.31980208615555233"
"-0.025652922806607033","0.017860490059648855","0.010805570738921964","0.03299601009026865","0.10041707612988321","-0.5690045184681917","0.4312157328431087","0.6083625577201184","0.3503643317378373"
"-0.010488518309860646","0.025822258995509013","0.028829831847035456","0.21571529381646065","0.02930025413858684","-0.47200198083818806","0.29485017151131887","0.7046162388787123","0.3089336940099804"
"0.02006559040758379","0.026524431963629233","-0.01741963170176944","0.25106745910752476","-0.015121253841088544","-0.38463417111389164","0.18963636693656633","0.7638513030785595","0.22597435787325393"
"0.03203728599568187","0.026775801576477","-0.017754202552792985","0.1519138778622444","0.04239158902979973","-0.2691873180976477","0.09403558211242002","0.8157248604134816","0.13083915384411987"
"0.04499875985823425","0.061163580101015344","-0.020339898265641625","0.04948502247970371","0.18609232410714815","-0.23856490078928175","0.006180940739487285","0.8518067981833218","0.11586855654285089"
"0.03911978501016228","0.03401670063086463","-0.008820541254814258","0.03146523822717519","0.21312940093823263","-0.08210371487468751","-0.05537024948975763","0.8891552317578805","0.084577393231705"
"0.029265329135609933","-0.009235492257487233","0.04011003265694599","0.06735846879311891","0.0733680328135234","0.052542214328470574","-0.06322784824242698","0.8918201500136418","0.08628528342600918"
"0.007495984013614","-0.08814062147388398","0.013907145790518577","0.10729043392867081","-0.01868822377195942","0.07613394983763407","-0.041549792109175525","0.879550971905433","0.07973809862372931"
"-0.007243817157223501","-0.13014531475467317","-0.05843140923032239","0.07760982652784795","0.10962887649483358","-0.06441901405632784","-0.041326881506263","0.8809889723503735","0.040402690780176685"
"0.004771205300865288","-0.07132170919606955","-0.012326719858411017","0.19378385794144865","0.014808601140454623","-0.04884327508936855","-0.06389658005116487","0.8921763519587188","-0.022517945191608785"
"0.018047521085350113","0.022781933140941145","-0.0011596948672417797","0.13171539126620613","0.08172781942687014","0.04943823019965459","-0.04801419959364122","0.8919520766599668","-0.13567670239087326"
"-0.04127948058325429","-0.0842018050609966","-0.056642900853863185","-0.09868984286934579","0.057644071161737524","0.12895507146678165","0.0007196309681281085","0.875263355899876","-0.15097580297353475"
"0.007596117224259189","0.07499098624245963","-0.010823216280971873","-0.19477225289244487","0.023209313133443","-0.005061809506361529","0.004230472964001843","0.8702105653456352","-0.07622087714820244"
"-0.004268705417861818","0.052391611586554934","-0.009214384843025312","-0.24615419901401603","0.04203259447153978","0.21439108184272973","0.025044750510966846","0.8593134243592044","0.07292124694866459"
"-0.033172541798327015","-0.023688206278825556","-0.03319196249971278","-0.05674573107098547","-0.0818612141780796","0.3220986030475631","0.13190252078220013","0.8100783999507789","0.10936386470234319"
"-0.011672786089606566","0.015483904629088118","-0.0010417689685168162","-0.046713880244926426","-0.1098915092870166","0.3189193855270401","0.2333825727581661","0.7666085699867485","0.14492720501627473"
"0.0020233189241215368","0.021987314323467823","-0.03259716987567092","-0.00815296681392255","-0.08844756767362218","0.4007539006354644","0.34617533783194754","0.7166743343528014","0.1349577024466524"
"-0.0037391547846421054","0.035399233501527363","-0.05433188367920055","-0.042424830779466446","-0.053684927948783545","0.46797857645110363","0.45314456340463666","0.6532967734583545","0.12199734910614334"
"0.006755575946439524","0.004117635515253367","-0.03221303297264389","-0.08056223066168113","-0.02340421561896765","0.43849194066915353","0.5657980093515977","0.5778611170898182","0.13767071462133654"
"0.008944064290636652","0.011418156948886704","0.0015348396347978528","-0.12342288007869867","0.06043465552794489","0.40592316271081863","0.6597548284792633","0.5015151668616409","0.17553848093906604"
"0.011368443371449814","0.0036361484477349555","-0.03636832033226966","-0.14935935428733885","-0.043324344997401336","0.33423302106482644","0.7435134875236769","0.4230715829568987","0.21285057006439043"
"0.0038546012957286157","-0.005639660332873966","-0.03453024590380696","-0.06650608651000531","-0.03570169387701504","0.3099399161942652","0.7965662110168785","0.35788662700780155","0.23100813949857146"
"0.0041492240116654","-0.006293844556723245","-0.01632091754902545","-0.09491875268837904","-0.007077143109305057","0.3287482641210234","0.8327613201648135","0.2951950846742437","0.24542305960743527"
"0.0011211572089817661","-0.0003443828562762474","-0.037685951214695715","-0.07717142657248918","-0.06313366472218547","0.25079676277812335","0.8674239189177246","0.23304444159061768","0.25361112647199396"
"0.005289202102087489","-0.007411504488228206","-0.045595867013585735","0.0007367741623328649","-0.03457445096407879","0.2498260093367423","0.8982413097703933","0.18493079367595322","0.24527596858591624"
"-0.004769371471087727","0.015500524107623507","-0.0307198556560388","-0.0366310036900976","0.041951222371667526","0.19820134132409692","0.9175788045730622","0.1394029080292554","0.2507019929352845"
"-0.019202033274657773","0.0075974427053414435","-0.03946000282598724","-0.12871800287556284","-0.007368646690612137","0.11826707607717604","0.924433305612625","0.09850564766855897","0.2678952990061742"
"-0.025325564233343947","-0.030288216692192216","-0.052997730779439985","-0.12105451606410124","-0.11243319075949705","-0.03604389096475912","0.932151585238474","0.07677732901885996","0.26662051015300936"
"-0.02582623028656987","-0.07559291517966471","-0.05480276117323368","-0.061727960248034945","-0.0313243535632987","-0.18990831142365897","0.9362475675669935","0.09215997598033482","0.25614436073148816"
"-0.008543623256944619","-0.10619249131554265","0.0008875896057189662","0.04675466461572065","-0.0115049819908833","-0.4621488334081702","0.9093311122652954","0.15958768491695394","0.2530717927264242"
"-0.007792624177105739","0.025354836161701172","-0.0665664375153949","0.28223166364106905","0.034567900956787856","-0.7338627216507321","0.8391699999985514","0.3036911606975626","0.2255821151492032"
"-0.09315618625212385","0.1353508548481783","-0.07616572958673715","0.06727182132917021","0.14887416160381148","-0.526315635883459","0.7315320426171241","0.4416072767655368","0.20520183694540145"
"-0.039652315910270054","0.014213553238539263","0.007193424046646086","-0.1717336549780886","0.14540388087396525","-0.5251021940817326","0.6302191735933421","0.5240086600600239","0.25374187404667753"
"-0.029388661819138857","0.027399032021554116","0.024605565065038162","0.003809196958993348","0.07224796979175235","-0.6133194130672376","0.49195887213679507","0.6072675665556222","0.3003043540808646"
"-0.017671150534986243","0.04273881070971887","0.047943534125663954","0.13156135133029737","0.02127792241000446","-0.5353436428883029","0.32995859147005496","0.7052758721103363","0.2842714327352916"
"0.017439982086147127","0.009482818673440568","-0.025319221239825388","0.23060903011964046","-0.027505130122823827","-0.39509403944477267","0.19852492722770645","0.7752629579856571","0.20315890609097062"
"0.03592803892084708","0.020834338000075156","-0.003607638260564059","0.1861011161379984","0.011117179762720296","-0.23847753297955745","0.10049998959688602","0.8290230663630241","0.103463880394747"
"0.05177893360211285","0.06221580083578721","-0.020397725326312365","0.04417160744045036","0.09611632132192899","-0.20738915401932864","0.031202655916427856","0.8781789347836547","0.05327478950777435"
"0.04678190126318499","0.04546232775470587","-0.009561553732266411","-0.017623438348554052","0.1912833854195871","-0.08731423397130042","-0.023633352400074272","0.8948148848852154","0.07207465640258845"
"0.03829561166100577","0.0012731078921805615","0.03910425485170854","0.004281040537673918","0.08047373177001538","0.05418521452800803","-0.028091564458326623","0.8947884995559505","0.10088815317348064"
"0.011407918964108005","-0.07901964391018039","0.02242816970556826","0.11505982319606971","-0.04002159506140979","0.14393865083449847","0.012394573795676194","0.863838508328146","0.10105649067588572"
"-0.025238910493362535","-0.1558743449622734","-0.0694040939925946","0.1389167582699414","0.08401820470856863","-0.029185517901401847","0.035605140323952","0.8640232056330008","0.03561569520207441"
"-0.00861102061026347","-0.09771759597990234","-0.00894218460743949","0.16071340920103325","-0.015102346794353518","-0.12856640146278905","0.0025586434421574432","0.8900523329528891","-0.04121811706072667"
"0.039957437829982546","0.02522499648564344","-0.04138688309762285","0.10396894781063783","0.10459816608508413","-0.07407558391446606","-0.034946065497889464","0.9010286299271149","-0.11014496974453873"
"-0.012048285629525998","0.03458072418365942","0.0820429126518971","0.001969767574322675","0.10914064389560002","0.24897660007553385","-0.003822172566216401","0.8923742419282062","-0.08940513571035712"
"-0.05280442800078153","-0.11948807414385447","0.09825101165703778","-0.05376409556155123","0.04581161052148954","0.1399779767936637","0.057924064440577086","0.859273846365307","-0.08242321522225438"
"0.02916712156363101","0.1363999594307248","-0.04766111918039774","-0.2762593789881875","-0.054730798761847534","-0.08265947121987817","0.047029308723223306","0.8643530222488128","0.019458563660552"
"-0.022754836613895515","0.03761066286414266","-0.021688507930569874","-0.08182728363533194","-0.03290632291669755","0.3408341444662178","0.11236997920198237","0.839128647471506","0.10175435585575929"
"-0.024998205660080843","-0.014376104711964977","-0.013408911993820513","-0.06646180002843152","-0.09778381948543598","0.2955970340978598","0.22429896568947708","0.790592834288602","0.11171732104664746"
"-0.0014283883851378913","0.024142652946026185","-0.012964882777955928","-0.012957953789716993","-0.06533071141873636","0.3575311036579722","0.31836724011859935","0.7457245818735283","0.122095409787156"
"-0.0030266684781283084","0.024592417583890174","-0.043873446706464515","-0.005687461364742644","-0.10805585044578073","0.4568634495472903","0.42441695945427405","0.685618801807937","0.1288125664365245"
"0.008789050378003229","0.016620261473945394","-0.04441454277416926","-0.06191088267192662","-0.023605013241887716","0.462930658555922","0.5479372972932247","0.6103546500796233","0.12386050204538424"
"0.008507907132730221","0.012293795724220053","-0.009891994078956334","-0.1257719891013075","0.06426393081605104","0.4261633719636139","0.6577764968784139","0.5362778381682328","0.13775243185551375"
"0.0018567511794906032","0.0024032324325870655","-0.013888050496520896","-0.15328737265301265","-0.04279542634823167","0.38114468111956673","0.7432627130954","0.4560928225320029","0.1827786278871689"
"0.004730766888873956","8.803520086642556e-05","-0.02922254783510009","-0.0948167012308395","-0.04445398120739266","0.3361745279475886","0.80587272868848","0.3800239182611076","0.20816000082261726"
"0.008877629756650907","-0.021337588783476365","-0.0342782851394559","-0.09480322273644747","-0.026380998496059165","0.3402274235653546","0.8385569958405413","0.30879672191033336","0.251159609446677"
"-0.0020734773383328186","-0.01118308739835322","-0.04187221735682367","-0.09781374073386463","-0.039959369337978064","0.21689562572149293","0.8741112370051028","0.24680439080229713","0.2608676168669322"
"0.005675292654671308","0.007863562105389372","-0.04148808045379664","-0.0003577758572589325","-0.026892206747021336","0.22746955758173623","0.9125354521821641","0.20340052416142904","0.24151697581376355"
"-0.0030459248647908325","0.01193003688777671","-0.034687205068484675","-0.051698034921174765","0.046812008690507265","0.22333414792145287","0.9365262058206342","0.15804414315495346","0.24914936548591707"
"-0.013492514629216133","0.011811726974952903","-0.02565585734301575","-0.12888167030746592","0.041850703895354745","0.15804612522136888","0.9427398388768228","0.1107880184414004","0.2745470818682009"
"-0.032171209691875174","-0.02871040494873865","-0.04830134735210946","-0.1381048114700039","-0.030307920304012022","0.0006945157126678813","0.9365262058206342","0.08238421148766513","0.2975913419061805"
"-0.022225285980675802","-0.07263049313073149","-0.073321877353037","-0.08682299130677344","-0.027008042324486548","-0.15508738548131992","0.9340463253632313","0.08886180982221414","0.29357085398466065"
"-0.011595760542956416","-0.11702631388579984","-0.007611336111145825","0.002026473525729093","0.00907952665003681","-0.44324341013727386","0.9255478586271879","0.133215548316621","0.29348913675048344"
"-0.008216264683681515","0.024690057020285587","-0.04005066494569547","0.24595525873455226","-0.027468512677881314","-0.7296642130167591","0.8680926507264625","0.262160652434507","0.2771947202555432"
"-0.11045804966841165","0.13127908260700785","-0.04812167041359682","-0.012709564393064091","0.16222157927991646","-0.5560206911897199","0.7547704729707638","0.4074382753674066","0.2714091400757952"
"-0.027973317399442525","0.019695903720400962","-0.011174309149329913","-0.14971557163912788","0.1436878868854827","-0.542527218354523","0.62425631496543","0.513137904402858","0.32696051586947783"
"-0.035464051811168684","0.02008126787894031","0.011387806629789608","0.014998369078527017","0.09353874039362253","-0.5861625855446021","0.486107468810339","0.5962253062582341","0.3743891985859436"
"-0.01946199449460201","0.01191861099628363","0.019020090579895076","0.1558515237239125","0.07136484317843288","-0.5746348884282019","0.35581622140791774","0.6739828716020874","0.35472803204290143"
"0.01299368240576777","0.024863522827498714","-0.022929724482823887","0.24190208292095258","-0.0017606730311806832","-0.422614899507926","0.22128967255015722","0.7659621294197568","0.2651822868314901"
"0.03464556356912225","0.033582516754127566","-0.013458478045824","0.20098522494518395","0.02456631256366561","-0.23847753297955745","0.12095203741411814","0.827901689869263","0.16038810572260714"
"0.04656815537123085","0.05419690244246165","-0.03420600131361748","0.04962654667081989","0.14362087456794084","-0.2388658343561099","0.026410077953806566","0.8807515043869888","0.10072145001575908"
"0.048523641436811295","0.05181200727263322","-0.007150371827513386","0.027588245590271177","0.21396944820456093","-0.12039265748636042","-0.048097791069733685","0.9041289061157483","0.11454473734917973"
"0.033612458424677236","0.0016667817899876068","0.04927355652109089","0.08653162706576437","0.075409515201495","0.040526713607776356","-0.05818449585152922","0.9012660978904994","0.1295153346504487"
"0.009518867432513319","-0.08894458874803347","0.024157611870056637","0.222984053292156","-0.12348304326273836","0.12407703542384176","-0.028286611235875506","0.8975853444580367","0.03474458948574511"
"-0.02420869380691691","-0.14199708038522296","-0.06466434026976105","0.08196819396446688","0.16198224957440982","-0.07157104003570287","-0.016388757805414586","0.8956987934155918","-0.03425744305351"
"0.0018865985788175314","-0.07279149432904307","-0.006577057826006371","0.12772960792456656","0.04302102615528217","-0.08815878946530195","-0.043193757805656284","0.9094323572980063","-0.07203041737959395"
"0.023383465829538597","0.028459562495593674","-0.024075939435404557","0.12016239607304792","0.16594076290348952","0.04144892937708837","-0.04670459980152971","0.9097885592430833","-0.12989275655580873"
"-0.013444373662559787","-0.01744135978433593","0.019851974152686955","-0.08418602015393507","-0.0597471493892666","0.18477339434619325","-0.008893388782478119","0.894854462879113","-0.13608528856175942"
"-0.024776757213461693","0.04918820709885856","-0.06982953593895788","-0.26937571935226406","-0.02252300364329222","0.0024979329183935674","0.030645379409146082","0.8827567894111262","-0.07729300726060773"
"0.0035041350584704726","0.05087092930056677","-0.04874124606364043","-0.1825453329796858","-0.015642274609976487","0.20868305160740908","0.0397289864778351","0.8722686210283025","0.07991133916018504"
"-0.03768816447069147","-0.013375819847616209","-0.016331243809859508","-0.059853486777945025","-0.14968246612454963","0.3629673229297062","0.1765960966661785","0.8172024388523197","0.11979098378335805"
"-0.007291958123879829","0.0055453525931841935","-0.009575390921784051","-0.01961633001937384","-0.07508339691813172","0.33212163232982267","0.28024952702054273","0.7683236163889712","0.12449789647196663"
"0.003343344229838303","0.03781840634583504","-0.03863596721142925","-0.020753337296300498","-0.08024334536885475","0.42019323829912036","0.3738998440692036","0.7216875469131449","0.1162281123732307"
"-0.001303221871831414","0.01875690318315144","-0.03921423781813661","-0.04070824824368302","-0.05979980192447804","0.4843843096104437","0.5070889293094887","0.6507505891842853","0.1079583282744948"
"0.010092707755056862","0.0080003611880838","0.00047825662625682633","-0.10906828355119959","0.035305036449748285","0.429803697368793","0.6186556860672504","0.5738373543769111","0.1410701515631094"
"0.011094039861508696","0.0013903790875959058","0.006186820140541911","-0.12053463128040912","-0.023541830199633962","0.39961326534184166","0.7160397557146976","0.48799268561334613","0.17517892510868624"
"0.00458538116957183","-0.0008432788275604791","-0.028617428950224174","-0.10329178595462048","-0.02033720544290013","0.3342087522287919","0.7828014812870243","0.4161718193541102","0.20288106749476803"
"0.007447843046957672","-0.015603868688766898","-0.026124669584882073","-0.03824457201874203","-0.03428007542630563","0.30513468665942883","0.8330120945930903","0.35407394692901406","0.21626635045299872"
"0.0014369619502473414","0.009220542527803948","-0.0067707784792533365","-0.08207278478318657","-0.057487876969283966","0.30047507014079966","0.8772877130966076","0.2921607718087727","0.21974750462894882"
"-0.0010528888452184595","-0.00045168236457035764","-0.05874739281184462","-0.04010556699443993","-0.0742744625135193","0.2755509755333407","0.9148202858620188","0.23264866165164325","0.21625000700616326"
"-5.733365476538901e-05","-0.014603583824418126","-0.043668986741950126","-0.008369874298674094","0.013234051007926476","0.24060870541082904","0.9429906133050999","0.18421838978579919","0.20405779566692017"
"-0.011249145583030789","0.01799240717052351","-0.017056147320410525","-0.06975151540968332","0.05317817885698374","0.18340948576105287","0.9569503898125018","0.14114433976074311","0.21951869637325255"
"-0.0353966544578498","-0.01037288781975297","-0.05433601418353416","-0.12123743848799291","-0.05113367328808282","0.04392920441981701","0.9659782692304631","0.10552414525303981","0.2376926092542691"
"-0.022754836613895515","-0.043941118309014905","-0.061925815896568315","-0.10984811072673777","-0.11195931794259392","-0.08112810766609954","0.9720804469851957","0.10106502460726066","0.22133281897198712"
"-0.015061910142212729","-0.11135491683559809","-0.042570272589206135","0.016618676654367455","0.0070775336634738145","-0.3706553215580042","0.9573683471929632","0.14470635921151345","0.22072811143907559"
"-0.0012743372918376102","-0.018237017319217712","-0.003776575887809283","0.1719679520183682","0.015042426262734606","-0.6365204203162451","0.905179402286048","0.25985193612382257","0.21185361980742815"
"-0.05363245262727056","0.12452741945200574","-0.03283054337052068","0.17218938442623705","0.11931933627079717","-0.6744526110382106","0.794169922035568","0.4116071573912712","0.18194511209856104"
"-0.031863107505274615","0.03930896582697781","-0.07908806140277615","-0.12562757666139301","0.10748687563054919","-0.4911015547973607","0.6978446777519556","0.49953626716676847","0.2189957060745183"
