"AccX","AccY","AccZ","GyroX","GyroY","GyroZ","MagX","MagY","MagZ"
"0.010745499262916802","0.00993102523519186","0.0037518878358705487","-0.12859284542763696","-0.013467964235448715","0.38150871366008465","0.704141902284237","0.48133038997394234","0.27794651880997373"
"0.005658924726008157","-0.006437706917795211","-0.02706435932078154","-0.09004435146646572","-0.03458881074640919","0.3557352097914172","0.7752225207879959","0.4020424755327212","0.30653120732516975"
"0.00385556411506174","-0.005645061663397966","-0.031444759166589814","-0.07869160818998891","-0.005688791487661072","0.3363444097998303","0.8252102234911489","0.32505008473755204","0.332566318134036"
"0.0035657554957905955","-0.012353721917689737","-0.009740404569912334","-0.11891721195336698","-0.07785244161084348","0.2652124513826323","0.8670895530133553","0.2547727602403167","0.3412937187441644"
"0.00015448659852249942","-0.011621426144724126","-0.06400759008071483","-0.029585602121469948","-0.03185327221246836","0.20464714417486723","0.9020586538452714","0.20530026786850653","0.33413528903023887"
"-0.0014476447718004327","0.01671893962774927","-0.027198600711624322","-0.011716006806452484","0.02812514528454926","0.21503663288124816","0.9174673492716061","0.16384891559324588","0.3378942818023915"
"-0.011191376423043199","0.008700560593127939","-0.027902851700507218","-0.0948426954700241","0.03407488176344419","0.16171071946258245","0.9312599428268236","0.12091998487914715","0.3578169434948008"
"-0.025710691966594656","-0.0037679954345665387","-0.04346039627310211","-0.09818921307764228","-0.06759237713577407","0.05058614614408771","0.928139194386047","0.08665863482858951","0.3661847882745495"
"-0.021734248120781157","-0.03401928962338722","-0.059366968461888235","-0.07500042622577487","-0.10768249610519037","-0.06530968033879497","0.9386717203736682","0.07952140326241636","0.3469975816897352"
"-0.0175074712483547","-0.10123780927717957","-0.054637540999888726","-0.00864647225859029","0.0024280754745964303","-0.32486002796085217","0.9390896777541293","0.1027009150216885","0.3405255767428984"
"-0.0025356306182336614","-0.04228644147733516","-0.0016373876934254001","0.1098802303511371","-0.005353969229657291","-0.5668931297331878","0.9014735135126263","0.1991392934851371","0.3397901216353033"
"-0.026143960666501695","0.09329838056659992","-0.04511466325871853","0.2869009991983038","0.04639318170587066","-0.6864656848753012","0.811417629935931","0.35412671758754394","0.2976567156935223"
"-0.04007595641684585","0.047439006983008784","-0.09013922574738721","-0.02269905423674823","0.08011234391470036","-0.47384641237681213","0.7007982432405478","0.4792591416266425","0.3064004597504862"
"-0.03140095422537377","0.031826045616418566","0.027333143601746792","-0.07455274766203998","0.1154374084474796","-0.5418234221095217","0.5730983315969856","0.5567396610132135","0.36093854184037116"
"-0.024073899100279173","0.017715069622464195","0.0011432678239702947","0.038624244248535555","0.07934648885707914","-0.6165957059318986","0.4361754937579143","0.636423355393409","0.38211964893910977"
"-0.009496814396740091","0.01736190570358716","0.02774082437947548","0.24924786236460236","-0.032815377628605036","-0.48316564541407037","0.2881628534239406","0.7366744139356453","0.3178572159821342"
"0.025396721055106635","0.019414411302707796","-0.003996731768791444","0.2398995637541385","-0.00823238759778558","-0.31192473835444934","0.17171992722746507","0.8158567870598065","0.19217610981755057"
"0.04705052785712735","0.041169308705533","-0.03981109569434528","0.053672983237223575","0.04157786803107717","-0.30258123648115653","0.059261528058052855","0.8684163629556175","0.13750728015298205"
"0.048167398283554395","0.05593156051459296","-0.010380839266840735","0.003634072806857059","0.18291641891507512","-0.2460105796846746","-0.045172089406505675","0.904260832762073","0.15028785557830118"
"0.04068051514916074","0.014593723810036303","0.0017762676130981755","-0.01666165149872363","0.1992315249394624","-0.08892325780038954","-0.10039819127810495","0.9212134068148135","0.1718285185074197"
"0.02641827236755412","-0.02352408892828858","0.011545178844900682","0.06399750994150928","0.03978528853683248","0.04579062414366522","-0.11736726092482759","0.9270577572470031","0.17691133047324356"
"0.0062953483052049465","-0.10870618744402036","-0.0215728538092284","0.14613738026566528","-0.006425448321210492","0.06897949697465557","-0.08604832121560564","0.9243400683327118","0.11784611360993989"
"-0.002352694944939577","-0.0987126872572088","-0.03463763901648119","0.08359716628670219","0.07077130550877642","-0.04504520224996511","-0.0872186018808971","0.9219653886988649","0.09005081357689605"
"0.020374655413517476","-0.051676446849830374","-0.022299822571946223","0.0839716758808804","0.10107044622591632","-0.04426374572965335","-0.1092867515692454","0.932084162471979","0.06051983948992779"
"0.02791256797256685","0.02013735861899725","-0.02580662075119302","0.048118880798112745","0.16060849706480174","0.14147293709339057","-0.0990607276606295","0.9358176865629718","0.01749408135093133"
"-0.04696011464870215","-0.07345835090527558","-0.06126493520318847","0.002516320521919001","-0.03219551369134284","0.24147752974086512","-0.009812895019492786","0.9074006869446039","0.004056499362827219"
"0.002067608613445367","0.08303585257099674","0.01863884502990158","-0.244411622239048","0.004453044112888062","-0.06255274056527273","0.002224277537788192","0.8978755830799514","0.0644079454920805"
"-0.0012454527118438065","0.05061228866585977","-0.020839689290010132","-0.16616896229338404","0.0047321025495088","0.23248592599007292","0.024320291051500756","0.8701841800163702","0.2084214959719844"
"-0.039276816370350624","-0.009476474696250382","-0.0234646247940282","-0.05170958791636791","-0.12287753910780659","0.32622430517343265","0.1366950987448211","0.8205137976750728","0.23648319418844602"
"-0.012385272396120363","0.02510554398367033","0.0005267900521769078","-0.038141557811603034","-0.08094218810893412","0.34673147162260776","0.22220917878717156","0.7828751254785996","0.2527122368960444"
"-0.0004212793626873094","0.028838694349682257","-0.039437285052152306","-0.04358109304838169","-0.07588515143157894","0.4326916888569017","0.34645397608558826","0.724946135077368","0.25142110459604416"
"-0.0008699531719243748","0.02359109400213294","-0.053982856063009316","-0.06799546014032327","-0.09229120274405872","0.48059837118905757","0.47741395529674746","0.6501964972697211","0.25359478302515853"
"0.011219206374815173","-0.001027755039303305","-0.031000729950725236","-0.09060178348453561","-0.0374607672124888","0.4283232983706869","0.6155628014518382","0.5617132955796594","0.2521892465973101"
"0.01225519997725956","0.012285797600174895","-0.016081348297675255","-0.12269119038313198","0.003081206240924036","0.39102209738561916","0.7029994854443098","0.4816602065897544","0.2777013671074421"
"0.004245505944978073","0.00992583164814955","-0.018852916705536973","-0.1076915516240149","-0.05858161372344928","0.3651272493367791","0.7596745062348409","0.4079791746173384","0.32333227067200876"
"0.007900368133527236","0.0008688390768072055","-0.04113698758543859","-0.035501698409966385","-0.03285127708443102","0.36393807637108727","0.8183278586262218","0.3345883812668371","0.3258491614846675"
"-0.0003182576940427472","-0.005581907644963485","-0.01123420146216746","-0.1400784481488351","-0.03407903847368006","0.3172691046766923","0.8700431185019476","0.2572002105326935","0.33640702814036594"
"-0.0015246703184505646","-0.026189437798401716","-0.06923680856708284","-0.055572139309280476","-0.06013965010629747","0.21693930962635508","0.9006097349263399","0.19369072299192178","0.3403131119340377"
"0.0021532995340936365","0.012049489389749823","-0.029253526617602273","-0.006741768451078273","0.017214104010501805","0.2258702412870609","0.9176066683984264","0.15193593943011396","0.33923444444289813"
"-0.013348091729247115","0.013832343949633761","-0.027954483004677518","-0.07948298836072026","0.025145490450991667","0.17913574373537267","0.9340184615378673","0.10650040243584351","0.35351861697707837"
"-0.026423178273108437","-0.0004386983969645841","-0.03745051246767916","-0.11022358307051541","-0.08006384808972478","0.054532258883301765","0.9419596517666291","0.07285910762301259","0.3544175065530279"
"-0.02535444881333775","-0.041746308424935","-0.0669443786619215","-0.08601235614405352","-0.12785081038823443","-0.07279418937184304","0.9539968243239101","0.06454772890454848","0.33230482298466885"
"-0.017517099441685963","-0.10776095460232006","-0.053129906918115956","-0.035515176904358396","-0.002614362090722847","-0.3712620424588674","0.9378079417873818","0.10124972191211538","0.3269441724226424"
"-0.005635908870901805","-0.03931259353690886","-0.007133023709312166","0.12559230381383227","0.018451438587971103","-0.6073978170748131","0.8949812422027961","0.20548496517336134","0.32678073795428797"
"-0.03660017862425824","0.09780641411932436","-0.06351812531718037","0.24223904528075305","0.12398626552817657","-0.7151757179041465","0.8191916372125082","0.3532296163925352","0.28379747277706363"
"-0.0392864445636819","0.04332360861068289","-0.09059564647625266","-0.09105427579626763","0.11782831220549086","-0.48634486293459345","0.7085165228663969","0.44805848977082086","0.3240350388859329"
"-0.023053310607164798","0.02711650088645249","-0.00941368167712267","-0.055244804445474326","0.14738792413261526","-0.49617374152857674","0.5955287110150671","0.5206709159080057","0.3787365554441724"
"-0.01830661129484991","0.015985605137375198","-0.00282222286152545","0.0951337947366701","0.07179324335128975","-0.5898514486218501","0.4251135550883759","0.6454207526727623","0.3770368369732859"
"0.00014870968252373527","0.01527927729962113","-0.006785028719204344","0.22183838126883448","0.0648000293563859","-0.47763235079819827","0.27671082119930507","0.7461071691478703","0.3242311602479583"
"0.02209232510381561","0.030074768065751867","-0.012390742675582187","0.2212222215251994","0.058304621148935844","-0.3449060865253713","0.16887781704032923","0.8037327282625549","0.25210752936313285"
"0.04407734175643194","0.03313171339885512","-0.048908531489152196","0.12097110573656898","0.05610039456121973","-0.3379651994194966","0.057812609139120674","0.8580865065483836","0.18254981963147257"
"0.043626742308528615","0.05430492905294169","0.001324390438999707","0.05202571867259909","0.2268788925195888","-0.2376184161839352","-0.04776342516536474","0.8981526290372336","0.17205732676311591"
"0.0360830528334805","0.023133019625001257","0.012454034365949645","0.04455767002982173","0.2088597589919943","-0.06614210141477925","-0.11394001040504602","0.9284034090395165","0.15484767724539078"
"0.020852213802748355","-0.03937283914659964","0.039335563094391485","0.16960921549976507","0.025463798959315487","0.09451273936658121","-0.11366137215140529","0.9334430069291249","0.11098186593905238"
"0.003500283781137975","-0.10689881915329669","0.013353245159379596","0.1492663164638123","-0.038985297436566056","0.06987259014072615","-0.08872324845055687","0.9260419220703019","0.06401079973397916"
"-0.0052122683643260285","-0.09409454965918737","-0.005405853322207278","0.11653283008319737","0.03786107770455915","-0.04346287414051396","-0.09424028587264426","0.9298282168198245","-0.0007664517983130348"
"0.01799071474469563","-0.009389222433939587","-0.016760816260556408","0.086461346345006","0.09072182975980947","0.004807840732159827","-0.10167992724485252","0.9306329693624059","-0.05233819828756447"
"-0.03992190532354555","-0.05571498013393009","-0.023427450255025583","-0.025604632527827517","0.0800740511618193","0.188760764106666","-0.03636712059145739","0.9184297545773594","-0.09122906437719296"
"-0.0210410182009299","0.005864758196286215","0.06891203937530632","-0.1626260437674822","0.016818013347888325","0.038781784296893884","-0.0022060706950999005","0.9054745579082615","-0.03506644367186461"
"0.015604848437207532","0.08438203033236331","-0.03578178871689504","-0.2788010379306823","0.05261096745493302","0.08972207113336562","-0.005661185040245117","0.8923346639343086","0.12897600090487898"
"-0.03609951257103233","-0.012756744272172939","-0.019819454719605","-0.03812904206681045","-0.11198325091314458","0.37228655596696447","0.09618109666545403","0.8453819705073028","0.17547310715172423"
"-0.012905194836008813","0.015337445474494997","-0.0026297413595785706","-0.0438362216922306","-0.057009217558270694","0.2806474311005913","0.19242274947297397","0.804088930207632","0.1864559034251443"
"0.00015448659852249942","0.02384350233238917","-0.02386321846222292","-0.011387709193046906","-0.11311767371724604","0.3802224653502547","0.2999492515529445","0.7579146039939424","0.19670324459096925"
"-0.001582439478438172","0.02662103268261618","-0.05430090489669836","-0.04957998580242909","-0.08801438090665517","0.44999536894951925","0.4257822868971138","0.6915159228986568","0.1915877457314745"
"0.00366011179043702","0.01082432220646906","-0.042780928310220956","-0.05316237706190756","-0.037520599638865455","0.4476898295262392","0.54763079521422","0.6216871489989259","0.1858511958922328"
"0.005183291975443537","0.0009388486301375351","0.015226222349461409","-0.09248203345222211","0.013702658571308465","0.45596550261401286","0.6496959875228316","0.5439163909904402","0.2126381052555296"
"0.0015746451148844543","0.002374875447336057","0.003070354620822584","-0.14335179678689658","-0.03730280960685442","0.3729903522119658","0.7339004677730706","0.46088175979359414","0.25240171140617096"
"0.010464356017643795","-0.0194710136004704","-0.04146123217562808","-0.08997310799610791","-0.0223167014371455","0.2844333695219775","0.7963990280646939","0.3874909664430928","0.2834542603935193"
"0.004750986094869622","0.010156323041087236","-0.01898715809637976","-0.07789637702085986","0.007649292329929165","0.31753606187307204","0.8374981704767066","0.323598891627979","0.3022328808074473"
"-0.001033632458555918","3.2048332550331235e-05","-0.0249598673628001","-0.09962370998079274","-0.06345915312167448","0.2874184363542243","0.8816344698534035","0.25762237580093295","0.303687447575802"
"0.009453395717860698","-0.017116241235487367","-0.0539807908108425","-0.03479022645598772","-0.017146940468496692","0.23804348944197956","0.9140679625771885","0.2026485422773775","0.30700516728339766"
"-0.003604360078004349","0.02279024288020884","-0.0318722663651199","-0.03274342080759986","0.042178585591898826","0.21879344869939288","0.9320679937623818","0.15726577594163701","0.3132483639745382"
"-0.014715295182287102","0.019289765213692373","-0.03908206167946064","-0.1346870503920279","-0.006547985130429889","0.16346778319148217","0.9368605717250031","0.10614420049076649","0.33212504506947893"
"-0.02733785663957886","-0.026549872739137982","-0.05490189327724066","-0.13316590602492875","-0.1290570321039879","0.016619725918524363","0.9496779313924785","0.07287230028764509","0.3314059334087193"
"-0.03518483420456191","-0.064092236033175","-0.037956499248548096","-0.052244876693650924","-0.05554691305762515","-0.1215478540816039","0.9629132484404145","0.0667509038981731","0.31372232393276617"
"-0.022283055140663394","-0.12205370614275526","-0.02669261393075538","0.036667937062494105","0.03970152313990516","-0.47671013502888626","0.9414302390847116","0.132476759097202","0.3131176163998547"
"-0.0013224782584939385","0.014634233788966316","-0.07718802940930909","0.2686280118011253","0.0010411598311854842","-0.6971925104025621","0.8787644958409041","0.2627675150076012","0.29628386615934477"
"-0.09905826876419087","0.1386332018589178","-0.06864821169954141","0.11342314887703896","0.15211707911342637","-0.6439466841428104","0.7647735862764672","0.4377550186928519","0.24710643463148627"
"-0.02469973166681156","0.007981041044286409","-0.06542022256281424","-0.1238368624064535","0.17722037192401724","-0.5196659748099987","0.6546836122630012","0.5192856861215951","0.2919038224074451"
"-0.02779038172614844","0.0313430420214838","0.027152640562367422","-0.0028072033881283596","0.13028542337711116","-0.5817213885502837","0.5207422037378862","0.5998137110382695","0.3437125488758105"
"-0.01867248264143806","0.04708584306413175","0.049473885981271656","0.09436552055632506","0.032473766033604815","-0.5163654131093031","0.3596614293081604","0.6966742547699576","0.34663802585935544"
"0.007622113346253602","0.0019180475310945307","-0.0192349883563972","0.23813773198718188","0.026246407096322182","-0.4591880354119579","0.2205094854399629","0.7856851630453185","0.2659994591732624"
"0.02583384103234618","0.01556804073917353","0.019755320351280154","0.24423193695157283","0.0063865888036761615","-0.31117240443737904","0.1003328066447014","0.8397882807031299","0.17545676370488877"
"0.05228922784867003","0.07218541052220415","-0.04377431460245753","0.08419599653754756","0.08785465988783997","-0.2959558442437307","-0.003933627867672509","0.8863583868557939","0.10619323601626655"
"0.04938632755929286","0.05509850915300654","-0.025304764474657702","0.014370656339698756","0.19747005830693357","-0.16719510777894533","-0.09098021830504731","0.9334034289352273","0.07973809862372931"
"0.0381598541350349","0.009591987873069908","0.029734618821315797","0.010780563083424842","0.1891102716935868","0.003069464007006673","-0.12046014554023991","0.9388256140991778","0.11604833445804077"
"0.019209644020434107","-0.07473908946990905","0.03661769124286687","0.13102221155461663","-0.0731855123534641","0.12245102340952846","-0.09000498441730474","0.934841429380168","0.07016247312284121"
"-0.008476225903625732","-0.13587903484938263","-0.059123268706204414","0.12201087530395324","0.09177488046403866","-0.002675212170726164","-0.06108233368939328","0.9130471474073065","0.04037817560992352"
"0.005638705520012491","-0.0708677896885717","-0.008590472163431402","0.13489246494432464","0.03336167924103443","-0.047923486203659986","-0.08033623701597","0.9197754063698728","-0.014094532692619663"
"0.023874503689433235","0.017348402377277156","-0.016095805062842937","0.08794783172652569","0.14874731685989295","0.09751236750044873","-0.07551579522798475","0.9318730798378593","-0.09352858734694026"
"-0.033018490705026715","-0.03926273510130268","0.04293736287331164","-0.11520099849956773","0.021926505911927435","0.1802788059125989","-0.006469235975803367","0.9116223396269983","-0.06842832169706155"
"0.006057531929922628","0.1013463630473624","0.00684873346000516","-0.30541143685892336","0.017295476110374058","-0.056005008603157415","0.0038961070596329013","0.9045906493778851","0.026255803199414205"
"-0.010055249609953607","0.043438906243022164","-0.019344446721238234","-0.14911866688748138","0.005745424522623889","0.29329149467457977","0.02738531184154944","0.8686406382543698","0.185785822104891"
"-0.033249567344977145","-0.025154875259573703","-0.037522796293517575","-0.02613799580591165","-0.1388312572768788","0.35444896148158733","0.1594877078926355","0.8137987313771391","0.18689717648970133"
"-0.005183383784332241","0.020298359817308837","-0.02237830215428508","-0.057125054413160826","-0.06763784977982033","0.31479368340117053","0.24959931912005867","0.7814503176982915","0.2031098757504643"
"-0.003450308984704068","0.02892594661199305","-0.0358437462818994","-0.04279260112644865","-0.11426166970956776","0.4214794866089503","0.36537351350779607","0.7248142084310432","0.20714670711881958"
"-0.0020253363716764734","0.024222634186477746","-0.05679779476637409","-0.06971300542570613","-0.10744795299379387","0.47370602175525195","0.49053781704322713","0.6525975622328328","0.20704864643780688"
"0.011512866271418834","-0.001209011227079899","-0.01695081945990311","-0.07898813506661331","-0.022227431456991527","0.4344875827234566","0.6212748856514738","0.5659481409266863","0.20503840247704697"
"0.01221091028793573","0.017167665548204793","0.03161151999051456","-0.1251269468696895","0.008835410350420042","0.38141163831594654","0.7079592463591153","0.48552565732707187","0.23605826457072446"
"0.002230325080743786","0.011483284530397262","-0.016294069270856894","-0.10494771526563981","0.008380205250546426","0.3868721264237151","0.7686745218274381","0.41373117639710094","0.2823592494555443"
"0.006450362217838353","-0.002996851630524453","-0.04475943988602687","-0.06679491138983426","-0.010442597428139348","0.3722137494588609","0.8322876351336242","0.3363957763214872","0.29206725687579954"
"0.004486210778259766","-0.02165751374528262","-0.01669885869555205","-0.13437897052021036","-0.07073477616907618","0.3169536098082434","0.8886004261944228","0.25631630200231714","0.30086003127326977"
"-0.0026511689382088767","-0.008818966576694027","-0.06100884393450378","-0.03134454563962829","-0.05441009695646864","0.2348254417838013","0.9090524740116547","0.1939941542784689","0.2996669596542822"
"-0.0004549780393467357","0.008364120024527143","-0.043867250949964076","-0.02118753736564336","0.025439865988764822","0.23482786866740474","0.9343528274422362","0.14851903929030094","0.3003043540808646"
"-0.0164676263685778","0.0017449972108447846","-0.02828492335136744","-0.08744877854640284","0.021112784913204875","0.17305882719232718","0.9510989864860457","0.10341331891184255","0.3173669125770707"
"-0.02816588126606789","-0.007033411351548089","-0.03230390406798362","-0.08817757999317125","-0.07095256620108721","0.027705487530735855","0.9571733004154149","0.07314934624492721","0.31857632764289384"
"-0.03140095422537377","-0.04423403661820115","-0.04650457796698301","-0.05971292533642827","-0.0888089555289372","-0.12859309718242704","0.966674864864565","0.074838007317885","0.30172623395554843"
"-0.015495178842119768","-0.11619533995903038","-0.026568698800746658","-0.003674929602094484","0.0027650516999497715","-0.44736911226314335","0.9402320945940559","0.13408626418236488","0.30074562714542163"
"0.004727878430874583","0.002754215044906328","-0.045253035153894935","0.20328619648782126","0.0827760835369892","-0.6842086831240903","0.8830833887723357","0.25565666877069304","0.2941919049644076"
"-0.08147718774129631","0.12158784918605867","-0.043421156481932684","0.1403608826690862","0.1424936316550046","-0.6160375227031045","0.7951451559233106","0.3966202903687708","0.2634662249137682"
"-0.025402589779994093","0.01689967645682163","-0.061386785081030376","-0.07470004835075275","0.12030537465748452","-0.4929217174999502","0.6929963721386064","0.48100057335813023","0.2936852581125088"
"-0.0320460431785687","0.035483369611612775","0.023164225577820063","-0.01162069459610893","0.10054392087380173","-0.5651457735387019","0.5644884095594862","0.5614098642931123","0.342192608320114"
"-0.022244542367338343","0.0256373672968028","0.035035708083088875","0.08139054420480896","0.057100792730237465","-0.5994861765275572","0.3786366943810964","0.6851042878872702","0.3357696337137835"
"0.004594046543569968","0.0008386124002209657","-0.014414689799057962","0.2160618836722554","-0.02265319900308783","-0.4712011092490487","0.2452804261886267","0.7803421338691631","0.24171309717578893"
"0.02922489072361861","0.023511112761681375","-0.006304444539987185","0.179024906582189","0.042879821629033275","-0.321996305308778","0.13769819645792794","0.8360943346060348","0.16836370777830503"
"0.04533863508282799","0.05187536903454939","-0.033954040549266415","0.026185519423901883","0.12747090604035316","-0.3277237506129263","0.03109120061497144","0.8820575781856047","0.13902722070867857"
"0.04201113146754192","0.04053153621673741","-0.015622862316642989","0.02151522111706768","0.19496666958733416","-0.22269065513909778","-0.07637957381427121","0.9147753864741618","0.15881913482640425"
"0.039110156816831006","0.020938209740921344","0.016562853551822142","0.03788196430737514","0.15398624411343317","-0.049602889657249245","-0.13642611747385572","0.9332715022889025","0.14752581306311077"
"0.026606984956846966","-0.044650562298994355","0.023780083773963404","0.11076595998261259","-0.03972003963247143","0.10249475953833706","-0.12213197506208463","0.9328625296852955","0.1159339303301927"
"-0.004750115084425186","-0.1511066320574335","-0.059996870372765895","0.14217085191601433","0.06479763605933084","0.023549206671462795","-0.100370327452741","0.9305933913685085","0.06177991924094069"
"-0.0023334385582770355","-0.09629455313030959","0.001937357282109513","0.14023572522116032","0.037557128978565724","-0.0895202711668389","-0.12012577963587098","0.9413717983732469","0.009969558427891767"
"0.03270933389020434","0.00105092623851057","-0.039311304669976774","0.1261506985815016","0.09366558513754106","-0.033354903932133556","-0.14589981809764174","0.9464773595860178","-0.06264601020668058"
"-0.0383621380038802","-0.06124407289917257","-0.06026948365878508","-0.04778156955069413","0.0899368283257477","0.2192399952824282","-0.0775219906541984","0.9292213542467305","-0.10731591909732294"
"0.007826231044876477","0.04744108441782571","0.12432895076737306","-0.15059167377460905","0.06384271053435936","0.016276564576996153","-0.03611634616318061","0.9163057355715297","-0.05123338128148828"
"-0.00251637423157112","0.06330333796244678","0.002014804238364963","-0.3038999199878185","0.06699468275588175","0.16089043280461543","-0.02318753119424922","0.9016354925002089","0.09784990640677112"
