"AccX","AccY","AccZ","GyroX","GyroY","GyroZ","MagX","MagY","MagZ"
"-8.4657","-3.3259","-2.4743","0.12888","0.30378","-0.45124","0.42152","-0.35811","0.52292"
"-7.5148","-3.825","-1.9964","0.16281","0.31701","-0.89303","0.42297","-0.34336","0.53087"
"-6.4887","-4.529","-0.71097","-0.19128","0.1037","-1.339","0.43437","-0.32717","0.53411"
"-9.5379","-1.9775","2.1728","-0.82378","0.089384","-1.6944","0.45152","-0.31853","0.52407"
"-6.0009","-1.1127","2.1901","-1.3396","-0.3201","-1.0653","0.47191","-0.32093","0.50575"
"-7.7835","-1.8575","-4.5953","0.016372","0.40693","-1.2141","0.48213","-0.32008","0.49365"
"-19.265","3.0773","-3.4014","0.34959","0.8439","-0.61091","0.48083","-0.29248","0.5133"
"-23.013","3.3097","-7.1695","0.50308","0.030637","0.85651","0.4691","-0.29827","0.51844"
"-22.982","-7.8624","-1.656","0.23935","-0.19887","1.1347","0.46194","-0.29385","0.52988"
"-22.203","1.3561","-2.8581","-0.045939","-1.0501","2.1655","0.45494","-0.3357","0.51353"
"-10.333","-9.1445","-2.2526","1.7303","-0.87552","2.1312","0.45514","-0.33258","0.51678"
"0.3712","-2.7576","2.6668","-0.43094","-1.0197","1.2902","0.46357","-0.36426","0.49255"
"5.8711","-6.3715","-5.1612","-1.6626","-0.54343","-0.39195","0.48395","-0.37827","0.46838"
"-1.647","2.6115","-2.6867","-0.75839","0.24978","-0.29355","0.4915","-0.38908","0.4539"
"-0.30576","0.77628","1.2605","-0.53363","-0.010004","0.18396","0.48931","-0.40083","0.44718"
"0.65724","-1.0952","1.1223","0.043356","-0.091649","-0.045385","0.48586","-0.40659","0.44243"
"-0.71237","-3.8913","-0.68637","0.29769","0.17931","-0.40891","0.47914","-0.40325","0.44162"
"-7.4655","-1.6618","-1.168","0.17747","0.64365","-0.51833","0.46848","-0.39404","0.45669"
"-21.327","0.69059","-1.6872","1.5298","1.0383","-0.85115","0.4481","-0.35677","0.50314"
"-22.624","-4.5416","-9.7315","0.69498","1.1015","-1.426","0.43336","-0.33108","0.53045"
"-19.223","-4.4735","6.8582","-2.2409","-0.46078","-0.93754","0.4476","-0.3401","0.51365"
"-14.946","7.2662","2.0317","0.71972","-0.3805","-0.04317","0.4471","-0.33827","0.51439"
"-10.58","1.0216","-3.9027","0.25916","-0.88399","0.000739","0.46791","-0.32271","0.51041"
"-6.9793","-3.6926","-6.4095","0.66252","-0.28326","0.95019","0.47334","-0.32494","0.50111"
"-5.1883","-1.1165","-2.0842","-0.73322","-0.1659","0.93456","0.46621","-0.33966","0.49865"
"-6.3402","-1.2228","-0.049622","-0.76232","-0.28794","0.74623","0.45893","-0.36974","0.48419"
"-7.5716","-2.8145","-0.3586","0.68756","0.15568","0.68475","0.44605","-0.37268","0.49215"
"-11.8","-3.6592","-3.0993","0.6208","0.29964","0.74566","0.42635","-0.36585","0.51344"
"-11.391","-2.3475","-0.63104","0.065338","-0.21047","0.27941","0.41918","-0.37612","0.51129"
"-8.9174","-0.93068","-1.1009","0.24685","-0.16934","0.098976","0.42345","-0.37255","0.51242"
"-8.7223","-0.66969","-1.2314","0.1123","-0.086364","0.32769","0.42227","-0.37022","0.51471"
"-9.324","-2.0182","-1.4543","-0.17817","-0.082022","0.32062","0.4171","-0.37055","0.5164"
"-9.3917","-1.9643","-1.8139","0.37412","-0.073443","0.19904","0.41591","-0.37123","0.51809"
"-9.3905","-1.2171","-1.8866","0.54712","0.054984","0.0493","0.41389","-0.3663","0.52203"
"-9.5775","-1.044","-1.9939","0.15568","0.066232","-0.033704","0.41204","-0.35826","0.52895"
"-9.6599","-1.1715","-1.7416","-0.063301","-0.022047","-0.016525","0.41217","-0.35799","0.52895"
"-9.6528","-1.3504","-1.8465","-0.1651","0.039037","0.052877","0.41305","-0.35305","0.5347"
"-9.6241","-2.0075","-1.9674","-0.15404","0.036096","0.03837","0.41208","-0.35814","0.53133"
"-9.4453","-2.3353","-2.4732","-0.048177","0.15016","-0.011854","0.40982","-0.36534","0.52809"
"-9.0416","-2.6951","-2.6467","0.027187","0.20151","-0.095078","0.40518","-0.36594","0.53152"
"-8.2953","-4.2218","-2.8324","-0.070418","0.28001","-0.39307","0.40558","-0.36386","0.53374"
"-7.2523","-7.182","-3.6445","0.011168","0.32265","-0.85464","0.40915","-0.35548","0.53884"
"-4.2549","-7.4262","-1.8913","1.1963","0.34297","-1.6095","0.42084","-0.32805","0.5461"
"-4.5562","-1.2885","1.4072","0.42895","0.96428","-2.195","0.42863","-0.28724","0.56223"
"-12.375","5.2469","-0.70936","-0.50328","0.69149","-1.8042","0.42652","-0.25779","0.57839"
"-13.104","0.40116","-2.5426","-1.4519","-0.49587","-1.1635","0.44394","-0.26194","0.56252"
"-14.823","3.1786","-4.118","-1.5106","-0.50692","-0.14071","0.46128","-0.28097","0.53939"
"-21.629","-3.1949","-5.2512","1.5152","0.15752","0.50178","0.45287","-0.28243","0.54721"
"-24.884","-6.5599","-4.1648","1.1383","0.1025","1.1697","0.45058","-0.27763","0.551"
"-21.68","-0.40741","-1.2404","0.009365","-0.65265","2.2801","0.43721","-0.30446","0.54804"
"-8.1137","-4.6207","-0.096218","0.70851","-0.9789","1.8126","0.45031","-0.33075","0.52702"
"2.314","-3.6808","-0.82143","-0.034608","-0.7908","1.2076","0.45658","-0.3166","0.53396"
"1.745","-3.2505","-1.3453","-1.9794","-0.74491","-0.32741","0.47445","-0.34627","0.49983"
"-1.5997","-0.30123","-2.9029","-0.68183","0.36061","-0.71801","0.4937","-0.37023","0.47461"
"0.56613","-0.60886","-1.134","-0.93692","0.12177","-0.48295","0.49776","-0.37119","0.46856"
"0.86028","-0.38499","0.67939","-0.40873","-0.009218","-0.22565","0.49587","-0.37939","0.45927"
"0.008568","-4.1124","1.7755","1.2454","-0.049326","-0.30632","0.48891","-0.36057","0.47243"
"-5.9901","-7.7452","-6.6278","1.6059","0.53013","-0.543","0.48095","-0.32708","0.49981"
"-19.567","5.8726","-3.414","1.1577","2.2087","-1.3319","0.44755","-0.28774","0.54951"
"-28.695","-26.829","-21.81","5.2041","0.85804","-0.99833","0.41736","-0.23388","0.58954"
"-16.782","11.854","8.4973","-3.3131","0.71683","-1.3105","0.43079","-0.29243","0.5583"
"-16.008","7.9702","-5.6192","-0.32343","-1.3696","0.25342","0.41929","-0.28127","0.57305"
"-13.549","-8.8785","-5.6828","1.9578","-0.61677","0.35281","0.44774","-0.25446","0.56527"
"-9.759","-1.6907","-2.6785","-0.20747","0.46119","0.76316","0.44466","-0.25959","0.56382"
"-7.8467","2.2476","0.73362","0.27952","-0.13499","1.5349","0.43184","-0.27637","0.56649"
"-5.2852","-2.7871","1.5552","0.36709","-1.0542","1.1269","0.43319","-0.28992","0.55899"
"-6.8629","-8.0029","-2.2506","-0.026194","-0.13188","0.25119","0.43206","-0.28328","0.5628"
"-8.4459","-4.218","-3.7164","-0.37753","0.42337","0.008479","0.42263","-0.28564","0.56729"
"-8.886","-3.6517","-2.7213","-0.30889","-0.015287","-0.11654","0.42661","-0.30071","0.55753"
"-9.3363","-0.833","-0.7043","0.15973","-0.003461","-0.10483","0.43148","-0.29986","0.55556"
"-10.073","-2.45","-0.84811","0.036573","0.036139","0.002862","0.42926","-0.29415","0.55868"
"-9.7434","-1.6933","-1.9461","-0.26531","-0.086802","0.094847","0.42566","-0.29786","0.55956"
"-8.8837","-2.5328","-2.27","0.014282","-0.14667","0.10697","0.42823","-0.29939","0.55822"
"-8.9203","-2.4455","-1.5532","-0.021469","0.007209","0.10268","0.43186","-0.30311","0.55286"
"-9.4136","-1.8309","-1.4852","-0.093969","-0.053793","0.10627","0.42994","-0.30731","0.55129"
"-9.548","-1.4108","-1.8151","-0.055397","0.024724","0.079602","0.4298","-0.30965","0.54895"
"-10.101","-0.75181","-1.5387","-0.032876","-0.007066","0.26769","0.42319","-0.31288","0.55197"
"-9.959","-1.3375","-0.86559","0.19831","-0.15162","0.34753","0.42148","-0.31776","0.55306"
"-9.5691","-0.96495","-1.112","0.38133","-0.065992","0.38726","0.42082","-0.31789","0.55304"
"-9.0611","-1.2255","-2.0454","0.18168","-0.062081","0.35589","0.41727","-0.31875","0.55691"
"-9.4281","-1.3514","-1.8726","-0.20984","-0.1404","0.18555","0.41539","-0.32242","0.55586"
"-9.2137","-2.635","-2.5149","-0.22395","-0.044858","-0.003772","0.41776","-0.32433","0.55175"
"-8.8317","-2.456","-2.9413","-0.18637","0.12238","-0.19921","0.41666","-0.32708","0.55071"
"-8.1157","-4.0039","-3.4339","-0.44015","0.33553","-0.45882","0.41833","-0.33138","0.54925"
"-7.4163","-6.4626","-4.0786","-0.041732","0.29018","-0.81489","0.41884","-0.32705","0.54972"
"-5.6505","-9.095","-1.3217","0.12876","-0.029341","-1.321","0.43221","-0.31069","0.5509"
"-6.5446","1.705","0.36569","-0.8234","0.75088","-2.2659","0.44739","-0.28878","0.54886"
"-8.4629","2.0625","-1.0553","-2.079","0.27363","-1.4773","0.45667","-0.30531","0.53177"
"-12.329","1.8003","-2.0924","-0.92582","0.038007","-0.90656","0.46679","-0.31323","0.51851"
"-16.944","1.3732","-1.9475","0.90808","0.52821","0.3217","0.45647","-0.30726","0.52863"
"-23.391","-9.8717","-3.282","2.1476","-0.33206","0.44016","0.45099","-0.27345","0.552"
"-30.179","9.4549","-7.528","-0.042674","0.072567","1.9465","0.44212","-0.28718","0.55487"
"-19.574","-3.1405","-2.1833","-0.88088","-2.399","2.8766","0.45028","-0.34208","0.51918"
"-1.6115","-10.293","2.6728","-1.2756","-1.1535","2.3246","0.45835","-0.38883","0.48003"
"5.7299","-6.9618","-2.7971","-1.9355","-1.2875","-0.17543","0.4788","-0.41722","0.43632"
"-0.070171","-1.6835","-6.9896","-1.1655","1.1838","-0.85673","0.49463","-0.43617","0.40153"
"-0.9046","0.34143","2.5191","-0.54886","-0.11295","-0.20802","0.49633","-0.44944","0.39338"
"0.13964","2.3397","2.1836","0.37336","-0.34434","-0.23953","0.50237","-0.44759","0.38219"
"-0.43227","-2.8063","0.56886","1.0904","0.20419","-0.24804","0.50072","-0.42345","0.40743"
"-4.4223","-4.3541","-2.2145","0.73653","0.22928","-0.33562","0.49095","-0.40539","0.42897"
"-21.294","-2.0016","-9.4258","2.4319","2.0543","-0.43957","0.46666","-0.38576","0.46585"
"-11.71","-1.3433","-7.5663","1.0369","1.342","-0.34392","0.43653","-0.34864","0.52005"
"-23.933","-11.377","13.476","-2.3394","-0.28869","-1.4917","0.42733","-0.30693","0.55001"
"-22.188","16.608","1.8523","-1.1292","-0.093734","0.28365","0.43373","-0.3539","0.51874"
"-6.6605","-2.5073","-3.9954","2.2852","-1.1134","0.51901","0.45117","-0.34474","0.50922"
"-8.5494","-5.3667","-8.338","0.67822","0.62892","0.82675","0.43531","-0.31061","0.54453"
"-7.6857","-1.0017","2.6251","-0.22179","-0.57613","0.83135","0.43706","-0.35228","0.5175"
"-5.5023","-2.4557","1.0743","-0.034885","-0.20917","-0.2548","0.4386","-0.35473","0.51468"
"-8.0798","-0.77904","-2.8643","-0.98496","0.26685","-0.78008","0.43662","-0.33328","0.53126"
"-10.752","-3.5027","-4.3959","-0.84471","0.076952","-0.22866","0.43213","-0.34415","0.52577"
"-10.75","-2.8296","-2.4816","0.0805","-0.012041","-0.36087","0.43858","-0.34587","0.51954"
"-9.9491","-0.44482","0.19032","0.65218","0.12283","-0.071458","0.44892","-0.34203","0.51148"
"-9.5624","-1.6539","-0.63563","0.5638","0.1777","0.089083","0.44502","-0.32881","0.52378"
"-9.1776","-3.4717","-2.5465","0.63711","0.014205","0.14286","0.43427","-0.30841","0.54696"
"-9.1006","-2.0367","-2.87","0.53332","0.071038","0.092745","0.43234","-0.29488","0.55549"
"-9.6612","-2.099","-1.4005","0.3716","-0.045478","0.25002","0.42966","-0.28736","0.56187"
"-9.0408","-2.9239","-1.2876","-0.021132","-0.11128","0.17975","0.43313","-0.29355","0.55391"
"-8.6524","-2.8687","-2.6555","0.19796","0.032145","0.055155","0.43241","-0.29095","0.55542"
"-9.1758","-2.2908","-2.7225","-0.042121","0.031362","0.053239","0.42812","-0.28633","0.56273"
"-9.1538","-2.8757","-2.1112","-0.1968","-0.006334","-0.007212","0.42701","-0.28961","0.56143"
"-9.4427","-1.3077","-1.5291","-0.302","-0.013409","0.014782","0.42587","-0.2972","0.5589"
"-9.7442","-2.2618","-1.731","-0.14929","-0.030476","0.067829","0.42977","-0.30614","0.55272"
"-9.2644","-2.0397","-1.797","-0.091394","-0.006219","0.066718","0.42916","-0.30915","0.55104"
"-9.3694","-2.0312","-1.9482","-0.12589","-0.023973","0.079392","0.42587","-0.30945","0.55133"
"-9.3246","-1.9481","-2.2684","-0.19328","-0.081696","0.11713","0.42805","-0.31582","0.54914"
