"AccX","AccY","AccZ","GyroX","GyroY","GyroZ","MagX","MagY","MagZ"
"-21.98","-3.3044","4.9935","-1.6523","-1.4162","-0.21697","0.42445","-0.33421","0.54077"
"-11.555","7.7242","-1.2252","-1.8433","-1.4779","0.16769","0.44972","-0.37341","0.49384"
"-8.4157","-2.8904","-5.5037","1.093","-0.67208","1.0331","0.4557","-0.37628","0.48458"
"-7.0305","-0.01418","-3.1567","0.65323","-0.028636","1.4927","0.45032","-0.39553","0.47644"
"-5.0191","-0.69314","2.4782","0.044446","-0.81534","1.3905","0.4376","-0.41669","0.46877"
"-7.0694","-6.3553","-1.2247","0.41387","-0.17659","0.1739","0.43396","-0.42052","0.46899"
"-14.56","-4.3364","-4.6253","0.23199","0.36669","-0.2475","0.41219","-0.39509","0.50519"
"-8.4283","-1.8996","-4.702","-0.88038","0.043249","-0.52747","0.41433","-0.39635","0.50172"
"-8.9932","-1.6585","-0.27339","-1.2658","-0.19139","-0.79551","0.43996","-0.42028","0.46244"
"-9.1567","-1.4294","0.65827","-0.008197","0.27193","-0.80357","0.45144","-0.41851","0.45142"
"-9.7584","-2.2668","-0.45978","0.46651","0.5112","-0.59482","0.45333","-0.40053","0.46593"
"-9.2167","-0.022867","-2.0208","0.31356","0.64314","-0.773","0.45017","-0.37793","0.48654"
"-10.374","2.4252","-2.0114","0.16346","-0.011191","-0.24113","0.45527","-0.36822","0.49102"
"-10.623","0.51863","-1.184","0.32684","-0.034529","0.34101","0.45475","-0.36353","0.49382"
"-9.8038","-2.385","-0.76716","0.26249","0.14144","0.46872","0.44752","-0.36599","0.4976"
"-10.045","-3.4906","-0.43804","0.31754","0.000617","0.22992","0.44041","-0.36403","0.50578"
"-9.6676","-1.1879","-1.5012","-0.27948","-0.15688","0.044642","0.43944","-0.36664","0.5029"
"-9.6665","-0.16222","-2.1558","-0.65799","-0.17055","0.14492","0.44122","-0.37807","0.4926"
"-9.5629","-1.218","-1.5742","-0.46615","-0.22747","0.35392","0.44419","-0.38922","0.48234"
"-9.6769","-2.2335","-1.549","0.22877","-0.14736","0.37454","0.44249","-0.39627","0.47779"
"-9.3532","-1.2788","-1.5484","0.2571","0.009211","0.31745","0.43734","-0.39559","0.48342"
"-8.936","-2.3547","-2.0448","-0.000167","-0.053665","0.18545","0.43235","-0.40205","0.48286"
"-8.4588","-3.6116","-2.1447","-0.013657","0.10364","-0.17814","0.43237","-0.40218","0.48312"
"-8.2505","-4.4343","-2.1359","-0.30724","0.14558","-0.48201","0.43589","-0.39614","0.48524"
"-7.6373","-5.3804","-1.5679","-0.16682","-0.1833","-0.93702","0.44769","-0.39139","0.47919"
"-3.3206","-8.2822","-2.0854","0.96329","-0.42577","-1.6379","0.47449","-0.36307","0.47793"
"-3.9106","-3.8567","-0.081391","0.35631","1.4439","-2.9624","0.49143","-0.31014","0.4981"
"-13.247","7.881","-1.0591","-1.5794","2.0005","-2.2936","0.48173","-0.28136","0.52261"
"-15.999","3.6337","-4.7178","-0.44025","-0.98941","0.15244","0.48529","-0.28402","0.51656"
"-25.979","-12.36","-10.637","2.0336","-0.27415","1.1294","0.48516","-0.28532","0.5146"
"-23.332","-3.5697","1.4888","-1.4611","-0.20214","0.93632","0.47992","-0.30199","0.51237"
"-23.282","4.8348","-0.93059","0.09838","-1.7057","2.1051","0.48601","-0.36873","0.46243"
"-8.2554","-5.9791","-4.7026","0.020324","-1.2812","2.1253","0.49606","-0.38487","0.44509"
"0.2198","-1.971","-0.12605","-1.0378","-1.3289","1.5592","0.4996","-0.41606","0.4191"
"9.9373","-17.745","-9.6413","-1.1527","-0.12516","0.024244","0.51737","-0.43898","0.37572"
"-1.9883","2.7712","1.0746","-1.6258","1.1915","-1.0175","0.52685","-0.44442","0.36318"
"-0.80434","3.7562","-0.21756","-0.15826","0.40424","-0.37034","0.52374","-0.45317","0.35532"
"1.0015","-0.40605","-0.086213","1.1045","0.017567","0.017683","0.5212","-0.44126","0.36981"
"-0.2809","-1.7326","0.72523","2.1227","0.24071","0.036307","0.51318","-0.41763","0.40359"
"-1.8334","-9.1932","-4.1694","2.4633","0.35424","-0.20976","0.498","-0.38314","0.44472"
"-29.146","-0.51353","-5.9746","-0.18662","3.1835","-1.8131","0.46286","-0.36252","0.49261"
"-13.87","5.8547","-6.1102","-1.8074","0.77344","-1.1034","0.44771","-0.34649","0.51639"
"-27.98","-3.8305","-3.1848","0.49214","-0.77396","0.45308","0.43451","-0.36349","0.51206"
"-10.365","0.27954","2.7641","1.5195","-0.52707","0.59522","0.45185","-0.35916","0.50012"
"-8.5136","5.5578","-5.2585","1.6257","1.0441","0.45778","0.4338","-0.31711","0.54313"
"-7.5434","-2.088","-3.2756","-1.2059","-1.1312","1.104","0.42483","-0.33146","0.541"
"-6.0669","-7.2271","-1.0532","-1.2761","-1.0273","0.61606","0.44226","-0.37115","0.49713"
"-7.3687","-5.806","-1.9679","-0.42195","-0.046076","-0.047383","0.44574","-0.38683","0.48049"
"-8.6238","-3.8807","-1.8644","0.28964","0.49622","-0.23134","0.44395","-0.38529","0.4816"
"-9.985","-2.2733","-2.5778","0.73585","0.32772","-0.15886","0.44075","-0.37078","0.49826"
"-10.467","0.21292","-1.5558","0.30401","-0.017511","0.03811","0.43685","-0.35741","0.50898"
"-9.4885","-1.6826","-1.2679","-0.16186","-0.19297","0.14626","0.43634","-0.34924","0.51793"
"-8.7415","-2.7757","-1.5496","0.063886","-0.070302","0.10914","0.43751","-0.353","0.51513"
"-8.8022","-2.9229","-2.0889","0.47243","0.15158","0.058093","0.43681","-0.35547","0.51238"
"-9.2649","-1.7844","-2.3626","0.44043","0.15088","0.023051","0.43321","-0.34616","0.52265"
"-9.7128","-1.3373","-1.4277","-0.071209","-0.004112","0.027088","0.43062","-0.34241","0.52594"
"-10.035","-1.4039","-1.1942","-0.24431","-0.073461","0.12579","0.42632","-0.34184","0.53054"
"-9.4586","-1.7727","-1.1631","0.091075","0.030864","0.17878","0.42577","-0.34721","0.5293"
"-9.7436","-1.6044","-1.9145","0.46888","0.18127","0.1844","0.42228","-0.34841","0.52842"
"-9.4592","-1.6874","-2.0668","0.17001","0.038123","0.16596","0.41675","-0.34302","0.53528"
"-9.2995","-1.0136","-0.56818","-0.39117","-0.06178","0.034537","0.41835","-0.35058","0.5323"
"-9.4869","-0.95953","-0.82519","-0.36543","-0.06045","0.003809","0.41636","-0.35321","0.53176"
"-10.557","0.22314","-2.2221","0.042941","-0.036256","0.13001","0.41757","-0.35986","0.52901"
"-9.7943","-0.31755","-2.4273","0.26412","-0.082752","0.3242","0.41735","-0.36298","0.52536"
"-9.3392","-1.0646","-3.0193","-0.052294","-0.1406","0.23034","0.41589","-0.36392","0.52692"
"-8.3855","-3.5755","-4.011","-0.51597","-0.12171","-0.023799","0.41706","-0.37394","0.51948"
"-7.4302","-5.7472","-3.7617","-0.61879","0.048532","-0.38816","0.41772","-0.37807","0.51324"
"-5.7597","-10.358","-3.3275","-0.41985","0.080109","-1.0059","0.42736","-0.37777","0.50404"
"-2.9944","-7.4428","0.98523","-0.097265","0.35876","-2.2452","0.44806","-0.36991","0.49716"
"-7.8716","4.7294","2.2206","-1.5239","1.1303","-2.3561","0.46555","-0.34627","0.49437"
"-12.316","2.9605","-5.0907","-1.2522","0.38444","-1.0084","0.47265","-0.36099","0.47665"
"-13.994","0.42854","-0.82289","0.65334","0.5894","-0.19317","0.47087","-0.34642","0.48741"
"-20.146","-4.2417","-2.8668","2.1627","0.45821","0.036722","0.45746","-0.31642","0.51931"
"-28.825","0.53618","-1.1031","-0.63943","-0.34171","0.89042","0.44752","-0.31867","0.52604"
"-25.245","3.573","-7.0406","-1.0405","-1.6468","2.2105","0.45854","-0.37205","0.48261"
"-10.976","-13.181","-0.86835","1.4933","-1.6555","2.6317","0.46166","-0.39596","0.46308"
"2.0904","-2.2274","-1.9179","-0.25945","-0.94673","1.4595","0.46403","-0.40742","0.45729"
"3.771","-8.0824","-4.6022","-2.3311","-1.4649","-0.3122","0.49083","-0.43818","0.40563"
"-1.872","-1.4572","-3.2677","-1.6797","0.53619","-0.6346","0.50546","-0.4566","0.36893"
"0.5231","-0.054345","0.37729","-1.0181","-0.23205","-0.063581","0.51155","-0.47023","0.34482"
"1.1109","-2.3875","0.30623","0.93251","0.1705","-0.051387","0.50877","-0.47314","0.34439"
"-0.74903","0.15726","1.3798","2.4079","0.4556","-0.20431","0.4996","-0.44301","0.3817"
"-3.8812","-6.8932","-3.3313","2.0536","0.69011","-0.56475","0.48622","-0.40323","0.43574"
"-27.594","-0.82721","-12.351","2.2215","3.4523","-1.5087","0.44717","-0.36302","0.50241"
"-20.012","-0.44889","-11.042","0.063575","0.63063","-0.4638","0.42549","-0.35242","0.52635"
"-15.138","1.5866","7.0796","-3.34","-1.5527","-0.52633","0.44531","-0.37361","0.49687"
"-12.73","5.9516","-5.4333","0.20663","-0.43196","0.25611","0.45594","-0.37768","0.47867"
"-10.12","-3.4626","-8.3504","0.96027","0.086749","1.3224","0.4484","-0.37079","0.49256"
"-8.254","0.010058","2.2387","0.13929","-0.77336","1.7167","0.44046","-0.38969","0.48738"
"-4.136","-2.115","4.1777","0.65596","-0.74592","1.0093","0.43566","-0.40696","0.47843"
"-7.1869","-4.3638","-2.3494","0.38336","0.22228","0.13499","0.4293","-0.39717","0.49086"
"-11.909","-3.9689","-6.4472","-0.31674","0.33432","-0.20961","0.41079","-0.39433","0.50606"
"-8.1606","-3.773","-3.3802","-0.97218","-0.12637","-0.47142","0.41831","-0.40161","0.49191"
"-10.352","0.22624","0.89653","-0.7327","-0.04516","-0.50405","0.43237","-0.40827","0.47478"
"-10.038","-0.012721","0.45296","0.22842","0.13483","-0.11189","0.43651","-0.406","0.47395"
"-9.6909","-1.7863","-1.2343","0.71657","0.1759","0.14214","0.43089","-0.3958","0.48573"
"-9.3701","-1.948","-2.432","0.61874","0.11798","0.045058","0.42682","-0.38571","0.49704"
"-9.2785","-1.2784","-1.7788","0.017384","0.094166","-0.086641","0.42414","-0.37899","0.50501"
"-9.5028","-1.2039","-1.4088","-0.3783","0.014798","-0.085191","0.42631","-0.37857","0.50402"
"-9.4875","-1.0697","-1.3708","0.079239","0.09896","0.003778","0.42494","-0.38172","0.50284"
"-9.6522","-0.99419","-1.3734","0.38854","0.14196","0.03232","0.42377","-0.37628","0.50944"
"-10.341","-0.9464","-1.3028","0.39866","0.039215","0.12418","0.42013","-0.37345","0.51086"
"-9.831","-0.71158","-0.77804","0.44046","-0.078394","0.20265","0.41941","-0.36695","0.51666"
"-9.5914","-0.36651","-1.5126","0.20762","-0.05381","0.22134","0.41624","-0.35829","0.52736"
"-9.3159","-0.85739","-2.4954","-0.15454","-0.052161","0.19319","0.41411","-0.36027","0.5268"
"-9.1912","-1.9905","-3.3181","-0.58233","-0.047145","0.076665","0.4135","-0.37201","0.51999"
"-8.9234","-3.1123","-3.3091","-0.60911","-0.008144","-0.067802","0.41743","-0.38823","0.50576"
"-8.3123","-4.5621","-3.9676","-0.48878","0.23823","-0.35069","0.41807","-0.39734","0.49829"
"-8.1669","-7.4026","-3.6142","-0.52375","0.26946","-0.83152","0.42102","-0.39768","0.49522"
"-4.2926","-10.797","-3.6625","1.4406","0.17906","-1.2637","0.43635","-0.37882","0.49827"
"-5.7947","-0.40951","5.723","0.88151","1.0693","-2.4933","0.44661","-0.31612","0.53388"
"-11.223","9.2756","-0.99127","-1.1944","1.0557","-1.4715","0.44889","-0.29337","0.54199"
"-15.773","-1.2759","-2.3666","-1.202","-0.1058","-0.62113","0.44954","-0.30249","0.53663"
"-15.524","0.44222","-2.6939","0.16264","-0.068397","0.13173","0.45035","-0.30909","0.52833"
"-27.12","-7.659","-5.3545","1.7805","0.018369","0.58066","0.44653","-0.29195","0.54255"
"-23.237","1.0582","-1.9186","-0.35433","-0.19784","1.5086","0.43997","-0.30198","0.54331"
"-15.624","-1.0179","-3.7155","-1.2733","-1.7761","1.638","0.45678","-0.35257","0.50174"
"-4.1034","-5.7367","-2.667","-1.5637","-1.112","1.28","0.47765","-0.39808","0.45333"
"3.3328","-2.9511","-1.6972","-0.30046","-0.84776","0.8447","0.48518","-0.42541","0.42291"
"2.3774","-5.5624","-1.3394","0.038052","-0.55461","0.028715","0.50106","-0.42904","0.40605"
"-0.55986","-0.52116","-3.5418","0.74818","0.38995","0.074169","0.49968","-0.42129","0.41748"
"0.28092","-1.2541","-0.13803","0.55207","0.40913","-0.025923","0.49017","-0.41609","0.42765"
"0.79046","-1.0993","-0.21865","-0.011226","-0.1268","-0.26985","0.48106","-0.41584","0.43343"
"-7.2737","-5.865","-4.4541","0.65736","1.1834","-0.51585","0.47124","-0.40141","0.452"
"-24.368","-2.668","-2.9339","0.76591","1.6258","-1.2201","0.44076","-0.3703","0.50393"
