"AccX","AccY","AccZ","GyroX","GyroY","GyroZ","MagX","MagY","MagZ"
"-9.6561","0.018431","-1.5812","0.00447","0.017665","-0.011531","0.38507","-0.25482","0.36361"
"-9.6857","-0.011841","-1.5443","-0.004247","0.008884","-0.02042","0.38538","-0.25575","0.36416"
"-9.6412","0.033396","-1.5584","-0.003614","-0.001695","-0.009898","0.3859","-0.25535","0.36352"
"-9.6636","0.033402","-1.5814","-0.009735","0.008884","-0.013355","0.38481","-0.25522","0.364"
"-9.6634","0.003246","-1.5438","0.023803","0.024694","-0.000893","0.38533","-0.25417","0.36336"
"-9.6634","-0.01163","-1.5738","0.000917","0.015913","-0.011549","0.38545","-0.25378","0.3631"
"-9.6859","0.033159","-1.5443","0.013491","0.014145","-0.018608","0.38701","-0.25345","0.3641"
"-9.6409","-0.026543","-1.5734","-0.008199","0.01592","-0.000965","0.38588","-0.25291","0.36378"
"-9.6708","-0.011783","-1.544","0.012466","-0.005224","-0.013459","0.38535","-0.25369","0.36415"
"-9.6559","0.003337","-1.5587","-0.004611","0.019443","-0.002698","0.38612","-0.25161","0.36352"
"-9.6559","-0.011538","-1.5887","0.001276","5.3e-05","-0.029309","0.38493","-0.25278","0.36426"
"-9.6634","0.018184","-1.5289","0.006184","0.012389","-0.0098","0.38591","-0.25344","0.36431"
"-9.6707","-0.034221","-1.559","-0.004339","0.015921","-0.015083","0.38589","-0.2524","0.36417"
"-9.6708","-0.004221","-1.559","0.006184","0.003588","-0.009868","0.38645","-0.25102","0.36485"
"-9.6709","-0.004096","-1.589","-0.015097","-0.013993","-0.013523","0.38713","-0.25153","0.36436"
"-9.693","-0.056809","-1.5594","0.020546","0.008858","-0.015134","0.3863","-0.24948","0.36524"
"-9.6559","-0.004101","-1.5737","0.008849","5.6e-05","-0.009893","0.38768","-0.25013","0.36478"
"-9.6707","-0.041566","-1.5965","0.013429","0.001813","-0.015183","0.38727","-0.25013","0.36489"
"-9.6709","-0.011628","-1.5815","0.020403","0.017654","-0.008006","0.38611","-0.24841","0.3643"
"-9.6482","-0.05651","-1.5885","0.011258","-0.005226","0.002412","0.38659","-0.24937","0.36565"
"-9.6858","-0.004217","-1.5743","0.006364","0.015914","-0.016841","0.38586","-0.24843","0.36495"
"-9.6557","-0.041664","-1.5586","0.003716","0.001818","-0.018712","0.38696","-0.24845","0.36487"
"-9.6409","-0.026481","-1.5884","-0.015239","0.010644","-0.004533","0.38726","-0.25088","0.36436"
"-9.7007","-0.026713","-1.5896","-0.008054","0.030028","-0.00616","0.38683","-0.24934","0.36474"
"-9.6556","-0.071664","-1.5586","-0.006136","0.021198","-0.013289","0.38695","-0.24831","0.36474"
"-9.6555","-0.086571","-1.5811","-0.002817","0.010636","-0.002778","0.38696","-0.24985","0.36435"
"-9.6857","-0.041593","-1.6043","-0.005508","9.1e-05","-0.002843","0.3867","-0.24858","0.36512"
"-9.6933","-0.004308","-1.5594","0.01675","0.010631","-0.004523","0.38655","-0.2487","0.36143"
"-9.641","-0.011512","-1.5809","0.00257","0.008861","-0.006305","0.3871","-0.24921","0.36462"
"-9.6706","-0.056722","-1.5589","0.005949","0.014158","0.002549","0.38653","-0.24919","0.36419"
"-9.641","-0.026418","-1.6034","-0.001285","0.007112","0.007796","0.38696","-0.24984","0.36422"
"-9.6558","-0.04157","-1.5812","0.007877","0.010622","-0.004533","0.38738","-0.25023","0.36424"
"-9.6707","-0.041659","-1.574","0.011386","0.007105","-0.002792","0.38602","-0.25049","0.3647"
"-9.6634","-0.019068","-1.5888","0.004206","0.001831","-0.000178","0.3856","-0.25151","0.36442"
"-9.6709","0.018248","-1.5515","0.007695","0.008876","0.002528","0.38735","-0.25122","0.36318"
"-9.6409","-0.026481","-1.5884","0.013052","0.008852","0.002516","0.3858","-0.25207","0.36562"
"-9.6633","-0.004254","-1.5438","-0.004326","0.008876","-0.01689","0.38604","-0.25051","0.36523"
"-9.686","0.018408","-1.6043","0.001291","0.005373","0.011325","0.38701","-0.25193","0.36475"
"-9.6707","-0.026784","-1.544","-0.015379","0.003622","0.000716","0.38613","-0.2511","0.36379"
"-9.656","0.0109","-1.5737","-0.004547","0.010638","-0.006288","0.38611","-0.25261","0.36616"
"-9.6559","-0.011538","-1.5887","-0.008449","0.00361","0.009541","0.38451","-0.25252","0.36424"
"-9.6559","0.003337","-1.5587","-0.015479","0.014181","0.006089","0.38482","-0.25409","0.36465"
"-9.6712","0.063343","-1.5741","-0.010319","-0.001658","0.012167","0.38366","-0.25478","0.36302"
"-9.7007","0.003039","-1.5296","-0.006562","-0.008696","0.002403","0.38448","-0.25339","0.36332"
"-9.6563","0.0559","-1.5738","-0.015259","0.014175","-0.00449","0.38492","-0.25367","0.36387"
"-9.6562","0.041025","-1.6038","0.018722","0.011484","-0.013335","0.3852","-0.25443","0.36349"
"-9.6708","-0.004221","-1.559","-0.002761","0.004481","-0.007215","0.38479","-0.25393","0.36399"
"-9.6708","0.003092","-1.514","0.015928","0.003578","-0.008981","0.38558","-0.25314","0.36324"
"-9.6564","0.05615","-1.6338","0.004282","-0.005218","-0.004627","0.38561","-0.25355","0.3639"
"-9.6413","0.033645","-1.6185","-0.018699","0.003604","-0.009865","0.38548","-0.25355","0.36389"
"-9.6639","0.078434","-1.589","-0.018836","0.014183","-0.003604","0.38473","-0.25349","0.36254"
"-9.6709","0.003279","-1.559","-0.013296","0.005371","-0.013385","0.38477","-0.25378","0.36346"
"-9.641","-0.011512","-1.5809","0.000763","0.014145","-0.004504","0.38576","-0.25318","0.36074"
"-9.6559","0.003275","-1.5437","0.002461","0.021196","-0.000919","0.38547","-0.25392","0.3635"
"-9.656","0.018369","-1.5662","0.000811","0.015913","-0.007131","0.38611","-0.25376","0.36247"
"-9.671","0.018342","-1.574","0.006311","0.011507","-0.015103","0.38609","-0.25298","0.36221"
"-9.6561","0.0184","-1.5737","0.005349","-0.019307","-0.014436","0.38594","-0.25347","0.36167"
"-9.656","0.0034","-1.5737","0.009548","0.001821","-0.001055","0.38562","-0.25368","0.3639"
"-9.6637","0.033496","-1.6039","0.0259","0.026441","-0.014996","0.38556","-0.25197","0.3631"
"-9.6709","0.00331","-1.5665","0.000793","0.003596","-0.00722","0.38631","-0.25216","0.36446"
"-9.6409","-0.011605","-1.5584","0.027667","0.021148","-0.01504","0.38573","-0.25265","0.36377"
"-9.6936","0.048255","-1.5745","0.005173","0.015928","-0.003594","0.38672","-0.25217","0.36447"
"-9.6409","-0.011636","-1.5509","0.006158","0.010617","-0.008056","0.38608","-0.25246","0.36207"
"-9.6558","-0.011725","-1.5437","0.006172","-0.0017","-0.009906","0.38646","-0.25167","0.36499"
"-9.6563","0.063463","-1.5888","0.001759","-0.001696","-0.011658","0.38751","-0.25163","0.36359"
"-9.6632","-0.026755","-1.5438","0.01346","0.008853","-0.016894","0.3864","-0.25123","0.36367"
"-9.6559","0.003337","-1.5587","0.001794","0.014148","-0.011558","0.3859","-0.25076","0.36509"
"-9.6559","0.003337","-1.5587","0.002469","0.012393","-0.001864","0.38738","-0.25202","0.36372"
"-9.6561","0.0184","-1.5737","-0.023966","-0.006946","-0.014352","0.38686","-0.25166","0.36448"
"-9.6634","-0.01163","-1.5738","-0.004394","0.007116","-0.013376","0.38769","-0.25141","0.36452"
"-9.6707","-0.041659","-1.574","-0.004242","-0.00873","-0.021434","0.38715","-0.25129","0.36502"
"-9.6708","-0.026597","-1.589","0.001158","0.017669","-0.022129","0.38672","-0.25","0.36513"
"-9.6707","-0.011908","-1.514","-0.002686","0.010643","-0.010701","0.38769","-0.25027","0.36518"
"-9.6709","-0.004159","-1.574","0.011662","0.017661","-0.015064","0.38787","-0.25107","0.36571"
"-9.6554","-0.086851","-1.5136","0.00458","0.010621","-0.016893","0.38781","-0.24898","0.36505"
"-9.6708","-0.011659","-1.574","0.018802","0.010609","-0.016879","0.38814","-0.24967","0.36612"
"-9.6554","-0.10167","-1.5586","0.004481","-0.001702","-0.012572","0.38833","-0.24832","0.36454"
"-9.656","0.018369","-1.5662","0.012079","-0.006981","0.004181","0.38867","-0.24902","0.36575"
"-9.6631","-0.041755","-1.5438","-0.00112","0.010641","-0.00012","0.38782","-0.24912","0.36531"
"-9.6708","0.003217","-1.544","0.016743","0.01062","-0.004521","0.38936","-0.24979","0.36539"
"-9.6631","-0.05663","-1.5738","0.001827","0.021192","-0.011522","0.38842","-0.24879","0.36652"
"-9.6558","-0.019225","-1.5437","-0.002458","0.014149","-0.020386","0.38909","-0.24878","0.36603"
"-9.6706","-0.041784","-1.5439","-0.001392","0.019456","0.013178","0.38757","-0.24952","0.36583"
"-9.6706","-0.041846","-1.5289","-0.005336","0.001842","-0.011652","0.38829","-0.24866","0.36678"
"-9.6706","-0.041753","-1.5514","-0.00645","0.000968","-0.00107","0.38853","-0.24826","0.36613"
"-9.6706","-0.034346","-1.5289","0.005883","0.007119","0.00427","0.38951","-0.2484","0.36618"
"-9.6707","-0.041722","-1.5589","-0.013532","-0.005186","-0.002879","0.38839","-0.24851","0.366"
"-9.6556","-0.056664","-1.5586","0.016017","0.004446","-0.011637","0.38921","-0.24825","0.36577"
"-9.7004","-0.071869","-1.552","0.01249","-0.00169","-0.013446","0.38834","-0.24859","0.36468"
"-9.6705","-0.056846","-1.5289","0.033894","2.8e-05","-0.016959","0.38992","-0.24981","0.36567"
"-9.6555","-0.056913","-1.4986","0.011702","0.012373","-0.017756","0.38895","-0.24814","0.36628"
"-9.6709","0.018155","-1.529","0.018514","-0.010508","-0.006429","0.38893","-0.24735","0.36602"
"-9.6562","0.033462","-1.5887","0.007793","-0.00522","-0.002864","0.38978","-0.24866","0.36606"
"-9.6558","-0.026663","-1.5587","0.015236","0.005325","-0.016919","0.39012","-0.24681","0.36475"
"-9.6852","-0.102","-1.5066","0.000994","0.014162","-0.015106","0.38976","-0.248","0.36566"
"-9.6705","-0.056846","-1.5289","-0.000916","0.007118","-0.009853","0.38937","-0.24738","0.36656"
"-9.6708","-0.011721","-1.559","-0.00271","7.8e-05","-0.009894","0.38967","-0.2474","0.36711"
"-9.6714","-0.042534","-1.5136","0.009219","0.004374","0.011416","0.38927","-0.2474","0.36557"
"-9.664","-0.042381","-1.5435","-0.012787","-0.007052","0.000745","0.38917","-0.24819","0.3661"
"-9.6562","-0.087508","-1.5058","-0.011694","-2e-05","-0.008038","0.39032","-0.24749","0.3676"
"-9.6589","0.0017985","-1.5666","0.015599","-0.00019826","-0.0079978","0.37328","-0.24477","0.38458"
"-9.6711","-0.041024","-1.5249","0.019011","0.0085108","-0.038831","0.36962","-0.26909","0.36598"
"-9.6796","-0.058433","-1.5768","-0.0057414","0.027384","-0.0035335","0.38499","-0.24757","0.35102"
"-9.6795","-0.016552","-1.6032","0.0064074","-0.020232","-0.0072841","0.38467","-0.25376","0.38251"
"-9.6358","0.0072446","-1.5324","-0.0096004","0.022664","0.004693","0.38582","-0.26272","0.35391"
"-9.6629","-0.071502","-1.5223","0.0064106","0.003406","-0.0039842","0.3696","-0.25952","0.36657"
"-9.6803","0.0090069","-1.6288","-0.0043197","0.0081408","-0.022002","0.39379","-0.25468","0.36031"
"-9.6676","-0.085537","-1.6168","-0.0032502","0.0076617","-0.0014435","0.40265","-0.24905","0.37724"
"-9.6455","0.020734","-1.5893","-0.02619","0.0069069","-0.022301","0.37591","-0.23841","0.35922"
"-9.6722","-0.025982","-1.5496","-0.018321","-0.018739","-0.0091055","0.38877","-0.26416","0.36417"
"-9.6628","0.017647","-1.567","-0.0089053","0.011647","-0.019859","0.39464","-0.23909","0.38972"
"-9.6649","-0.052024","-1.5369","0.015388","-0.0065466","0.0053675","0.37097","-0.23043","0.35294"
"-9.6941","-0.022197","-1.5783","0.0083753","-0.011733","-0.00022005","0.39693","-0.24751","0.3458"
"-9.6537","-0.044964","-1.5617","0.017102","0.025559","0.0014275","0.38464","-0.25421","0.38667"
"-9.6585","-0.046687","-1.5737","0.0064703","-0.0001209","-0.026503","0.38233","-0.25708","0.36575"
"-9.6632","-0.046571","-1.5675","-0.035567","0.0021265","-0.030353","0.36926","-0.25308","0.35729"
"-9.6643","-0.037639","-1.5858","-0.015787","0.0059824","-0.007541","0.3993","-0.22114","0.3932"
"-9.6596","-0.053423","-1.5509","-0.01773","-0.0032912","-0.0015865","0.37159","-0.25516","0.37363"
"-9.6312","-0.065254","-1.5603","-0.0052893","0.028699","-0.026573","0.36589","-0.2563","0.36523"
"-9.6895","-0.08205","-1.5782","0.00021671","0.022107","-0.013819","0.38775","-0.24193","0.36175"
"-9.6753","-0.070355","-1.5496","0.0023876","0.0054682","-0.027402","0.38896","-0.25548","0.35283"
"-9.6324","-0.063503","-1.5568","0.016196","-0.010631","-0.0085283","0.37755","-0.26505","0.3619"
"-9.6506","0.014295","-1.6012","-0.01382","0.0095969","-0.015804","0.37414","-0.2643","0.37909"
"-9.651","0.018274","-1.5403","0.00041317","0.014729","-0.0022912","0.3876","-0.24479","0.36826"
"-9.6714","-0.045796","-1.5453","0.016273","0.023835","0.0018907","0.38474","-0.23804","0.3727"
