"AccX","AccY","AccZ","GyroX","GyroY","GyroZ","MagX","MagY","MagZ"
"-9.71","1.1414","-0.66842","-0.007517","0.002161","-0.00467","0.48566","-0.13673","-0.57157"
"-9.695","1.1787","-0.67554","0.003202","0.00057","0.003425","0.48565","-0.1362","-0.57158"
"-9.71","1.1563","-0.66838","-0.000227","0.009284","-0.008259","0.48649","-0.13646","-0.57115"
"-9.71","1.1563","-0.65344","-0.007758","0.004321","0.013434","0.48612","-0.13766","-0.57087"
"-9.6951","1.0816","-0.68327","-0.001242","0.002255","-0.001071","0.48483","-0.1374","-0.57198"
"-9.725","1.1565","-0.71346","0.015836","-0.006561","0.002456","0.4867","-0.13819","-0.57031"
"-9.68","1.1712","-0.69025","-0.016498","-0.001538","-0.008306","0.4844","-0.13874","-0.57091"
"-9.7099","1.2162","-0.70557","-0.005782","0.000488","0.000738","0.48495","-0.13873","-0.57062"
"-9.68","1.1936","-0.69766","-0.003866","0.012923","-0.004623","0.48644","-0.13951","-0.57056"
"-9.725","1.1714","-0.70595","-0.007393","0.000191","-0.013723","0.48629","-0.13806","-0.57046"
"-9.695","1.1413","-0.68311","-0.00934","-0.001415","-0.003792","0.48626","-0.13806","-0.57086"
"-9.71","1.1714","-0.71316","-0.003881","-0.005048","-0.007442","0.48627","-0.13687","-0.57048"
"-9.71","1.1863","-0.71312","-0.000405","0.011374","0.006225","0.48554","-0.13819","-0.57155"
"-9.71","1.1714","-0.71316","-0.003867","0.012036","-0.004615","0.4853","-0.13886","-0.57127"
"-9.71","1.1638","-0.6833","-0.00757","0.00765","0.000793","0.48659","-0.13885","-0.57017"
"-9.68","1.1712","-0.69772","0.003142","-0.001133","0.007929","0.48615","-0.13964","-0.57083"
"-9.71","1.1415","-0.71325","0.010583","-0.001428","-0.008357","0.48548","-0.13714","-0.57037"
"-9.6949","1.231","-0.68286","-0.011129","0.000352","-0.004684","0.48552","-0.1382","-0.57008"
"-9.7026","1.1116","-0.69826","-0.002255","-0.002976","0.006134","0.48611","-0.13898","-0.57125"
"-9.71","1.1415","-0.6983","-0.000537","0.000765","0.013393","0.48645","-0.13951","-0.57042"
"-9.695","1.1564","-0.70548","-0.0038","0.002025","-0.011924","0.48614","-0.13898","-0.57085"
"-9.7324","1.1863","-0.68362","-0.018455","0.014897","0.006304","0.48609","-0.13924","-0.57151"
"-9.68","1.1863","-0.72756","-0.003821","0.009266","-0.008266","0.48833","-0.13976","-0.57023"
"-9.7249","1.1714","-0.691","-0.002154","-0.008532","-0.00294","0.48667","-0.13912","-0.56909"
"-9.71","1.1715","-0.72811","-0.014982","-0.002871","0.013402","0.4889","-0.13845","-0.5677"
"-9.71","1.1265","-0.69834","-0.007515","0.000371","-0.004682","0.48592","-0.13912","-0.57018"
"-9.7099","1.2162","-0.6981","-0.007748","0.004323","0.013431","0.48788","-0.13925","-0.56905"
"-9.7025","1.1563","-0.68319","-0.002094","0.007576","-0.003747","0.48827","-0.1395","-0.5693"
"-9.71","1.1789","-0.72809","-0.021947","0.001216","-0.004643","0.48659","-0.13991","-0.57028"
"-9.7024","1.2162","-0.72786","-0.002201","-0.003048","0.002511","0.48626","-0.14058","-0.56948"
"-9.695","1.1563","-0.69801","-0.009389","-0.006737","-0.001115","0.48816","-0.14017","-0.56902"
"-9.7099","1.2162","-0.71304","-0.007475","-0.003288","-0.008328","0.48743","-0.14032","-0.56811"
"-9.695","1.1414","-0.69805","-0.009149","0.008205","-0.015487","0.48699","-0.13977","-0.57027"
"-9.71","1.1863","-0.71312","0.006765","-0.013732","0.004231","0.4868","-0.13965","-0.56921"
"-9.71","1.1713","-0.69822","0.012303","0.012205","0.000774","0.48677","-0.14059","-0.56799"
"-9.695","1.2012","-0.71283","-0.001083","0.004724","-0.011914","0.48672","-0.14032","-0.56867"
"-9.6799","1.2311","-0.72744","-0.003959","0.004072","0.000743","0.48842","-0.14056","-0.56914"
"-9.695","1.1937","-0.71285","-0.002104","0.005801","-0.002859","0.48629","-0.14111","-0.5692"
"-9.71","1.1715","-0.72811","-0.016501","-0.005112","-0.008316","0.48578","-0.13992","-0.57044"
"-9.7099","1.2163","-0.72798","-0.001107","0.011973","-0.008242","0.48665","-0.14005","-0.56961"
"-9.6801","1.1564","-0.74258","-0.005759","-0.004036","-0.001113","0.4867","-0.14124","-0.56905"
"-9.7249","1.2013","-0.69839","-0.008323","-0.012379","-0.014711","0.48717","-0.14085","-0.56811"
"-9.71","1.1565","-0.72815","-0.004795","0.002175","-0.004678","0.4873","-0.13992","-0.56799"
"-9.68","1.2161","-0.72748","-0.007303","0.007257","-0.018221","0.48663","-0.14165","-0.56825"
"-9.6951","1.1265","-0.71303","0.005207","0.019199","-0.006403","0.48909","-0.1407","-0.56738"
"-9.71","1.2015","-0.77285","-0.007535","0.004034","-0.001043","0.48559","-0.14006","-0.56937"
"-9.7099","1.2163","-0.74293","-0.000242","0.01474","-0.004608","0.48814","-0.14043","-0.56929"
"-9.695","1.1564","-0.72789","-0.005545","0.003739","-0.015526","0.48844","-0.1399","-0.56875"
"-9.695","1.2163","-0.74267","-0.009393","-0.003113","0.000716","0.48818","-0.14096","-0.56887"
"-9.7101","1.1416","-0.74313","-0.000148","0.004697","-0.013717","0.4863","-0.14126","-0.56733"
"-9.7024","1.2535","-0.71281","-0.002027","0.007485","-0.008274","0.48785","-0.14203","-0.56807"
"-9.6725","1.1862","-0.72743","0.003255","-0.006695","-0.001157","0.48804","-0.14217","-0.56739"
"-9.7025","1.1715","-0.74292","-0.018413","-0.001351","0.000755","0.48686","-0.14164","-0.56877"
"-9.7026","1.1566","-0.77285","-0.018397","0.00134","0.000773","0.48822","-0.14203","-0.56859"
"-9.71","1.1865","-0.76542","-0.007558","-0.003137","-0.00109","0.48681","-0.13899","-0.56895"
"-9.6951","1.134","-0.72796","-0.007443","0.009276","-0.007343","0.48916","-0.14124","-0.56657"
"-9.7099","1.2164","-0.75787","-0.007526","0.000411","-0.002877","0.48749","-0.1411","-0.56916"
"-9.695","1.1714","-0.74279","-0.004873","0.0113","0.003516","0.48715","-0.14176","-0.57036"
"-9.7101","1.1566","-0.75803","0.008816","0.007531","-0.008294","0.48883","-0.14029","-0.569"
"-9.6651","1.1564","-0.75727","-0.008235","-0.001692","-0.017379","0.48774","-0.14044","-0.5693"
"-9.7251","1.1343","-0.76582","-0.002097","0.004021","-0.002856","0.4883","-0.1399","-0.56889"
"-9.665","1.2012","-0.74221","0.00248","0.002115","-0.008336","0.48765","-0.14031","-0.56877"
"-9.7027","1.0669","-0.75815","-0.009115","0.014486","-0.015439","0.48849","-0.14016","-0.56995"
"-9.7399","1.2165","-0.75837","0.010621","0.008442","-0.008281","0.48822","-0.13976","-0.56996"
"-9.6801","1.1341","-0.77253","-0.011876","0.007355","-0.01278","0.48753","-0.13886","-0.56827"
"-9.71","1.1715","-0.74305","-0.011861","0.011824","-0.013642","0.48888","-0.14069","-0.56846"
"-9.6951","1.1715","-0.77268","-0.009359","0.001353","-0.000158","0.48742","-0.14137","-0.56836"
"-9.71","1.1566","-0.74309","-0.018569","-0.004713","0.01159","0.48905","-0.13976","-0.56954"
"-9.71","1.1565","-0.73562","-0.009279","-0.005085","-0.008334","0.4882","-0.14031","-0.56849"
"-9.7101","1.1417","-0.77301","-0.000167","0.000236","-0.012843","0.48904","-0.13936","-0.56968"
"-9.71","1.1864","-0.74301","-0.000378","-0.00666","0.000678","0.48769","-0.14136","-0.57022"
"-9.6951","1.1491","-0.7578","-0.000327","0.00047","-0.001089","0.48712","-0.14045","-0.56865"
"-9.7176","1.1267","-0.72835","-0.000317","-0.009458","-0.004762","0.48569","-0.14072","-0.57003"
"-9.695","1.1565","-0.73537","-0.00206","0.002144","-0.006501","0.48761","-0.13964","-0.56918"
"-9.7101","1.1416","-0.73566","0.015864","0.000606","0.002497","0.48709","-0.14124","-0.56917"
"-9.695","1.2013","-0.74271","0.006986","0.000348","-0.008346","0.48835","-0.13911","-0.5681"
"-9.6801","1.1414","-0.70527","-0.011261","-0.013844","0.002454","0.48605","-0.13912","-0.57031"
"-9.7101","1.1117","-0.74321","0.010525","-0.003127","-0.003845","0.48714","-0.13964","-0.57013"
"-9.71","1.1715","-0.74305","-0.011116","0.003964","-0.003747","0.48576","-0.14044","-0.57083"
"-9.6951","1.1266","-0.72798","-0.016543","-0.00325","-0.004691","0.48619","-0.13899","-0.57018"
"-9.7249","1.2014","-0.72828","-0.005872","-0.019169","0.003327","0.48594","-0.14018","-0.57016"
"-9.6951","1.1416","-0.74288","-0.014586","-0.002567","-0.015546","0.48654","-0.13939","-0.56909"
"-9.71","1.164","-0.72813","-0.009519","0.000679","0.0107","0.48696","-0.13939","-0.56881"
"-9.7101","1.1341","-0.72821","-0.003916","0.002215","-0.00287","0.48547","-0.139","-0.569"
"-9.71","1.1789","-0.72809","0.006609","0.006318","0.020646","0.48526","-0.13887","-0.57008"
"-9.7025","1.1714","-0.72798","-0.011317","-0.001141","0.009784","0.48568","-0.13901","-0.56806"
"-9.695","1.1864","-0.74276","-0.020274","0.004128","0.006219","0.48632","-0.139","-0.56844"
"-9.6949","1.2162","-0.72773","-0.016866","-0.009064","0.01788","0.48574","-0.13953","-0.56911"
"-9.6951","1.1116","-0.71307","-0.005778","0.016691","0.004462","0.48585","-0.139","-0.56939"
"-9.6875","1.2012","-0.7127","0.002466","0.000328","-0.008338","0.48606","-0.13808","-0.5682"
"-9.695","1.1564","-0.72042","0.006068","0.012965","-0.004639","0.48592","-0.13887","-0.56832"
"-9.7099","1.2161","-0.69063","0.002246","-0.005647","0.006104","0.48607","-0.14072","-0.56855"
"-9.7025","1.1864","-0.72794","-0.00567","-0.005074","-0.008347","0.48604","-0.139","-0.56858"
"-9.7025","1.1713","-0.6981","-0.011339","-0.002021","0.010683","0.48462","-0.13901","-0.56969"
"-9.71","1.1564","-0.68332","-0.003911","0.00759","-0.002834","0.48544","-0.14046","-0.56977"
"-9.71","1.1864","-0.72806","-0.011091","-0.006885","-0.008342","0.48478","-0.13861","-0.5693"
"-9.6949","1.2311","-0.70528","-0.003863","0.00572","-0.006475","0.48707","-0.13938","-0.56921"
"-9.7025","1.134","-0.70567","-0.023689","0.007406","-0.008217","0.48458","-0.139","-0.57023"
"-9.7099","1.2161","-0.69063","-0.014876","-0.00485","0.004343","0.48594","-0.13888","-0.56805"
"-9.695","1.1414","-0.70552","-0.000221","0.00749","-0.008278","0.4853","-0.13861","-0.56941"
"-9.7243","1.119","-0.69662","-0.018902","-0.0035609","0.016709","0.48898","-0.14045","-0.5808"
"-9.6852","1.2059","-0.70233","-0.011434","-0.0037203","0.01616","0.49207","-0.13634","-0.57295"
"-9.682","1.153","-0.68092","-0.016814","0.016043","-8.0436e-07","0.49356","-0.14878","-0.57044"
"-9.6966","1.1243","-0.73458","-0.00020527","0.002866","0.0065614","0.49306","-0.14142","-0.58305"
"-9.695","1.1472","-0.67528","0.016939","-0.01067","-0.0022258","0.47438","-0.12094","-0.56239"
"-9.7201","1.1344","-0.74168","-0.00015171","-0.015699","-0.0020055","0.48969","-0.13736","-0.58448"
"-9.7005","1.1974","-0.6899","-0.020353","-0.0020386","-0.020649","0.48085","-0.14222","-0.58215"
"-9.7028","1.148","-0.69408","-0.018085","0.010529","-0.017119","0.49036","-0.14625","-0.58164"
"-9.7223","1.1217","-0.68262","-0.0035018","-0.017933","-0.0061853","0.47488","-0.12457","-0.56858"
"-9.7039","1.1897","-0.73353","0.0088495","0.0032686","-0.01704","0.48985","-0.143","-0.56752"
"-9.7138","1.1295","-0.71771","0.0047044","0.014547","-0.017704","0.49851","-0.12796","-0.57773"
"-9.7086","1.2109","-0.70619","0.0012203","-0.017543","-0.025191","0.49492","-0.14846","-0.57541"
"-9.7086","1.1371","-0.69858","-0.0019125","0.0013897","-0.0034136","0.48247","-0.12754","-0.56206"
"-9.6881","1.1576","-0.71064","-0.0074535","0.025106","0.008419","0.46513","-0.14247","-0.57483"
"-9.6965","1.1216","-0.71448","-0.0053762","0.044389","-0.014103","0.48373","-0.14491","-0.58563"
"-9.7125","1.1752","-0.70245","-0.019701","0.0032524","-0.0013508","0.48349","-0.1532","-0.60392"
"-9.7033","1.1745","-0.70393","-0.006531","0.011648","0.00010822","0.48236","-0.1408","-0.58136"
"-9.6897","1.1717","-0.72171","-0.023372","0.0043124","0.007763","0.49659","-0.12339","-0.57553"
"-9.6947","1.2021","-0.71259","-0.040154","-0.0033527","-0.0097129","0.49617","-0.16113","-0.578"
"-9.7189","1.1226","-0.72156","0.0081421","0.014044","-0.013976","0.48646","-0.12867","-0.58348"
"-9.7048","1.2113","-0.71589","-0.018271","-0.021671","-0.0047186","0.4945","-0.13908","-0.57014"
"-9.7019","1.1498","-0.75785","-0.00048902","-0.0028317","-0.013286","0.49191","-0.15039","-0.57078"
"-9.7134","1.2065","-0.69841","0.00062391","-0.0088275","0.015909","0.47761","-0.12992","-0.574"
"-9.7131","1.1811","-0.73457","-0.0012276","-0.015307","-0.017903","0.47593","-0.13121","-0.5642"
"-9.7078","1.1748","-0.72792","-0.0048924","-0.0018825","-0.0084853","0.49906","-0.14624","-0.58116"
