"AccX","AccY","AccZ","GyroX","GyroY","GyroZ","MagX","MagY","MagZ"
"0.002772392365294151","0.004385572670766102","-0.026936313686439197","-0.0010084020365536258","-0.0020411674460344585","-0.0013867796656531364","0.5386029157962589","-0.131768355692037","-0.729561604807961"
"0.002704995011975264","0.0036820078213185468","-0.025854121551029702","0.0015524156229698347","-0.0041544487456580395","-0.0007616144494037259","0.5346183887691961","-0.13213906956820975","-0.7273552394851758"
"0.0029187409039294187","0.003995118796925289","-0.026155648367384255","0.0001579691031556386","-0.005204388163715644","0.0020157111463875196","0.5344790696423758","-0.13028286165441944","-0.7286300283383405"
"0.00270403219264214","0.003916321694319372","-0.0261639093760515","-0.0008469489287292397","-0.002882650690595785","-0.00032380464734086295","0.5340332484365504","-0.13091083249092564","-0.7296760089358092"
"0.0027733551846272756","0.004306713245115678","-0.02647163194890649","0.00041877796964118517","-0.004150380140664426","0.001596345659710897","0.5334481081039046","-0.1316232363810797","-0.7278128559965682"
"0.0029177780845962772","0.004306661309245255","-0.026155648367384255","0.0001558510540368929","-0.007100358090739201","0.002003819416730602","0.5359001247359437","-0.12961399355755257","-0.7292183924244166"
"0.0027733551846272756","0.004384596276402149","-0.02647163194890649","0.0011831048766285438","-0.007102033398677748","0.0020043047934512922","0.5367917671475941","-0.13097943434701453","-0.7279272601244163"
"0.0029187409039294187","0.004073645833005006","-0.026465436192406055","0.00017799429482377946","-0.003309854214925127","-0.00011193770875944393","0.537488362781696","-0.13503354018857647","-0.7306239288522649"
"0.002488360662021753","0.0039154180101740104","-0.026174235636885562","-1.3659555500018536e-06","-0.004356921676516652","0.0007369861757283033","0.5359279885613076","-0.13059948560559903","-0.729414513786442"
"0.0026337463813238967","0.0036817065932700926","-0.025856186803196513","-0.0015899027946092558","-0.002032790906341726","0.006533840350935373","0.536708175671502","-0.13045172776171524","-0.7289895841687203"
"0.002700180915309642","0.004617964916561275","-0.026475762453240112","-0.0003721208262904373","-0.0062524129441291956","0.003724479891578551","0.5376276819085163","-0.1315058216658506","-0.727077400888973"
"0.003057386887899656","0.005087485959534205","-0.026771093513094237","-0.0022551627678152834","-0.00540805774310179","0.003731760542388909","0.5365409927193173","-0.13233036320538075","-0.7268812795269478"
"0.0026982552766433754","0.004929808656929695","-0.026632721617917826","-0.0005150891418057704","-0.0020402101272124326","0.0007576146863576509","0.5359837162120359","-0.13160344738413096","-0.7290059276155558"
"0.0026308579233245057","0.00399455788952472","-0.02647782770540693","0.00036775224087140306","-0.003308418236692087","-0.002253662488806433","0.5370982692265988","-0.13241215772610213","-0.7298067565104926"
"0.0029187409039294187","0.00415088485949823","-0.026155648367384255","0.00019118396433596833","-0.004574711708527689","-0.0018335689370487743","0.5364852650685894","-0.1316562180426609","-0.7273062091446693"
"0.0024816209266898645","0.005084993037753897","-0.026795876539095976","0.0018965986047660066","-0.006259832164999902","-0.0014125046318497348","0.5355657588315748","-0.13157574278840273","-0.7298557868509989"
"0.0030593125265659226","0.004774593114583239","-0.02615151786305063","0.0007558366044015761","-0.0041544487456580395","0.0020268748109634025","0.5386307796216231","-0.13194645666457552","-0.7291366751902393"
"0.0029168152652631527","0.00446243775899228","-0.026155648367384255","-2.0428397618712842e-05","-0.0033072215881645543","0.0028879331134684127","0.5333923804531768","-0.13159817031827797","-0.728646371785176"
"0.0026289322846582567","0.004384648212272572","-0.02678761553042873","0.0005316122226943636","-0.0024657383436032273","-0.0013894492376169342","0.5377948648607009","-0.13126043810368643","-0.7297904130636573"
"0.0029177780845962772","0.004306339306848633","-0.02600075445487335","0.0015647388178425367","-0.008160828015839098","-0.002714527685102098","0.5364295374178613","-0.1319622878621345","-0.728139724933277"
"0.002627006645992008","0.004773440138259846","-0.02647989295757374","0.0006870962830022846","-0.009627919110594766","-0.0003672458638426658","0.536708175671502","-0.1302934157861254","-0.7287771193598597"
"0.002625081007325759","0.005240073546837252","-0.026170105132551937","0.0007778835702285196","-0.002675869825038052","-0.0005298470652739952","0.5375440904324241","-0.13392139856005816","-0.7291530186370747"
"0.0029168152652631527","0.004463092150959611","-0.026465436192406055","-0.0006607531561995067","-0.003729638518383763","-0.0022548759306081595","0.5350920738003855","-0.13348604062718625","-0.7321602128547969"
"0.0027733551846272756","0.004384596276402149","-0.02647163194890649","0.0004443871089860192","-0.004152294778308479","-0.0014013409672738524","0.5315812318045117","-0.13194777593103876","-0.7276494215282138"
"0.00284171535727927","0.005086239498644051","-0.02662652586141739","0.002093673447769297","-0.008373352794328989","-0.004639774447721107","0.5348691631974729","-0.13224988795112264","-0.7292347358712519"
"0.0027030693733090154","0.003839726672619395","-0.026783485026095104","-9.645602105098501e-06","-0.007097964793684134","0.0015730475771177513","0.5348134355467448","-0.13174197036277202","-0.7296596654889735"
"0.0027772064619597738","0.0038374414943207792","-0.025542268473841084","0.003293837098418549","-0.01048304414836997","-0.004873968715454291","0.5341725675633708","-0.13145041247439415","-0.7282050987206189"
"0.002768541087961636","0.005164454919501228","-0.026938378938606008","0.0028693608000299278","-0.008796727043370225","-0.00528484010951883","0.5340611122619147","-0.13157178498901298","-0.7296760089358092"
"0.002915852445930028","0.004618214208739305","-0.026157713619551066","0.002604508385226776","-0.005004787189323111","-0.003975536405456109","0.5340611122619147","-0.13124724543905392","-0.7294635441269484"
"0.0027714295459610096","0.004928520647343202","-0.025854121551029702","0.0026311765491309823","-0.00205528789865935","-0.006950895703289093","0.5365967203700456","-0.13040687270196477","-0.730444150937075"
"0.002913926807263779","0.004931055117819849","-0.026777289269594672","0.0015609840944047603","-0.002472439575357413","-0.0018151246216625342","0.5377391372099727","-0.1312353720408847","-0.7306239288522649"
"0.0027791321006260397","0.0030605016471394767","-0.026469566696739676","-0.00014645232018408027","-0.007522057031841891","-0.002288124235975461","0.5356772141330308","-0.1319570107962815","-0.728172411826948"
"0.002702106553975891","0.004306090014670601","-0.026320868540729216","0.001148445891049069","-0.0054190669095550955","-0.003765853662117798","0.5347577078960165","-0.1322063521578354","-0.7307056460864422"
"0.0027733551846272756","0.004306713245115678","-0.02647163194890649","-0.0009968490413604677","-0.003306024939637021","-0.002894845136838631","0.5351478014511136","-0.13074592418301959","-0.7298557868509989"
"0.0027762436426266492","0.0038390618934779795","-0.02631673803639559","-0.0003342847670328442","-0.002042603424267498","-0.00010417168122839538","0.5337546101829097","-0.1301258689452929","-0.7282214421674543"
"0.0027752808232935247","0.003994516340828382","-0.026161844123884684","-0.00100724673703431","-0.005411887018389895","-0.001840364211138442","0.5369868139251427","-0.12780395996997593","-0.7291857055307458"
"0.00270403219264214","0.003916321694319372","-0.0261639093760515","0.0017394778701390547","-0.010055361964629615","-0.003157919319452901","0.537042541575871","-0.12799393434068368","-0.728352189742138"
"0.0029187409039294187","0.003995762801718535","-0.026465436192406055","-0.0002375284322901443","-0.0016240157693363944","-0.0013853235354910646","0.5364016735924969","-0.12721952492675695","-0.7264890368028971"
"0.002704995011975264","0.0036047687948253227","-0.0261639093760515","0.0019038192267617302","-0.005209892746942296","-0.001840121522778097","0.5365131288939531","-0.12694907530179106","-0.7300355647661889"
"0.002704995011975264","0.0036826622132858774","-0.0261639093760515","0.0010454316839100752","-0.003310811533747153","-0.0013981860185893636","0.5364295374178613","-0.12577360888303685","-0.7306729591927714"
"0.002705957831308406","0.0033727193257749428","-0.026938378938606008","0.0017534377393307876","-0.0016297596822685545","-0.0037437690213263787","0.537488362781696","-0.12769841865291606","-0.7272898656978339"
"0.002705957831308406","0.003371109313791827","-0.0261639093760515","0.0026058562346659773","-0.005002633221973551","-0.0037670671039195243","0.537460498956332","-0.12671292660486963","-0.7270937443358085"
"0.003064126623231545","0.003684168353528147","-0.02614945261088382","0.002606241334505749","-0.00584962104976153","-0.003985972004950955","0.5369868139251427","-0.12617598515432757","-0.728352189742138"
"0.0027762436426266492","0.003684251450920824","-0.02678141977392829","0.0022648503265479242","-0.0058453131150624105","-0.003986214693311302","0.5401354261912832","-0.12935673659721916","-0.7276330780813782"
"0.0026318207426576303","0.003839103442174318","-0.026632721617917826","0.0018105287905769776","-0.00836832687051335","-0.0012193246970149012","0.5389372817006282","-0.12687519637984915","-0.7274696436130238"
"0.0027800949199591643","0.0032143356953326786","-0.025540203221674274","-0.0003098309272073259","-0.004572318411472622","-0.0031224868188424928","0.5392995114303607","-0.1245836305331869","-0.7268322491864413"
"0.0029206665425956678","0.0035290774572707064","-0.026773158765261047","0.0027681758171298507","5.081350979903169e-05","-0.0022320632247357043","0.5389094178752639","-0.12538838307576836","-0.7274696436130238"
"0.0027772064619597738","0.0035278309963805523","-0.026469566696739676","0.0012330715808389532","-0.002049543985727191","-0.0031035571267355616","0.536067307688128","-0.12609155210067968","-0.7254593996522639"
"0.0027752808232935247","0.003839383895874603","-0.02647163194890649","0.001220748385966251","-0.007947585248232686","-0.0022871534825340796","0.537042541575871","-0.12783562236509388","-0.728139724933277"
"0.00263663483932327","0.0027496446883090967","-0.02709533810328372","0.0005208294271807493","-0.0033081789069865806","0.0003098546615206317","0.5329744230727157","-0.12490157375082975","-0.7259660465041627"
"0.0029254806392612904","0.002748917586123173","-0.02615151786305063","0.0005346930214125392","-0.0026801777597371718","-0.0013986713953100542","0.5362066268149484","-0.12273138041878635","-0.7273388960383402"
"0.002709809108640904","0.002592902231372201","-0.02647163194890649","-0.0006569984327617302","-0.004991863385225752","-0.0022723494925530187","0.5394666943825454","-0.12596226398728133","-0.7249364093535297"
"0.0027743180039604","0.0040743417736686756","-0.027091207598950093","0.00122652488356283","-0.005420024228377121","-0.0026968114347968924","0.5382128222411621","-0.12590421626289844","-0.7266524712712515"
"0.0028542320086099226","0.002437717850547999","-0.026465436192406055","-0.000990206069124402","-0.0030970901067297286","-0.0031166622981942064","0.5374047713056038","-0.12537782894406235","-0.7275186739535302"
"0.002705957831308406","0.0034496467370456283","-0.0264736972010733","0.0008734846054519038","-0.005838611883308225","-0.0014176010874169852","0.5409156133014772","-0.12480262876608612","-0.7253286520775803"
"0.002781057739292289","0.002748294355678095","-0.026157713619551066","-0.0002995295064934266","-0.0033093755555141133","-0.003972866833492312","0.5405255197463804","-0.12462848559293735","-0.7255411168864411"
"0.0027762436426266492","0.0035297733979343764","-0.027400995423971893","0.0010488975824680224","-0.006683206414041137","-0.0018520132524350147","0.540832021825385","-0.12411661020519703","-0.7261621678661881"
"0.0029274062779275564","0.002282221854501259","-0.02646130568807243","0.0004018335766912198","-0.0028934205273435827","-0.005685275904088522","0.5411106600790258","-0.12342003751260194","-0.7274206132725175"
"0.0027772064619597738","0.0035284750011737986","-0.026779354521761483","0.0018319981066442633","-0.0028941385164601026","-0.003109381647383848","0.5378227286860648","-0.12442663782406037","-0.7262438851003654"
"0.002851343550610532","0.003061124877584554","-0.026620330104916958","-0.00014173484714687405","-0.0012030348173502248","-0.0022434695776719325","0.5420858939667683","-0.12352689809612505","-0.72403751977758"
"0.002992877992580177","0.0035287346805259142","-0.02646130568807243","0.0012028412434168555","-0.0031033126790729016","0.00031519380544822766","0.5386307796216231","-0.12331317692907882","-0.7249690962472005"
"0.0029254806392612904","0.0026716370109336105","-0.02646130568807243","0.0003609167187154511","-0.0045756690273497155","-0.0011984534980252085","0.540051834715191","-0.12312584109129757","-0.7259823899509982"
"0.0027088462893077796","0.0028271330069803507","-0.02678141977392829","0.0008188004282042882","-0.006683445743746644","-0.004852854828104253","0.5365409927193173","-0.12304008877118643","-0.728172411826948"
"0.0027820205586254134","0.0025159332714051776","-0.026777289269594672","0.0012225776102051675","-0.005420024228377121","-0.0018474021735884548","0.5413892983326665","-0.1259939263823993","-0.7242663280332763"
"0.0027800949199591643","0.0029047251973924517","-0.026469566696739676","0.0019083441498790505","-0.007107298652198893","-0.0022854546640116635","0.5427546257755066","-0.12398336429240894","-0.7254920865459348"
"0.0027800949199591643","0.0027508911491992503","-0.027398930171805086","0.0018695453410220277","-0.007104905355143827","0.0024243983452089508","0.5395502858586378","-0.12533957021662817","-0.7236943073940357"
"0.0029274062779275564","0.0025898899508876617","-0.02460257873794162","0.0025794768956415993","-0.0054243321630762405","-0.0007749623092227159","0.5376276819085163","-0.1251548729117734","-0.7239558025434027"
"0.0027762436426266492","0.002911840411640415","-0.0298772327719795","0.0017159867799129663","0.0004777777044228683","0.0014065633619208973","0.5391880561289046","-0.1251904931062811","-0.7230732564142887"
"0.0028561576472761717","0.002203383203199004","-0.026153583115217444","0.0003466680246438893","-0.007523253680369424","0.0002778197979550563","0.5425317151725937","-0.12534748581540764","-0.7240211763307446"
"0.003352009603836458","0.003222572724381781","-0.028303510620868746","0.000515919404223657","-0.005844834455651398","0.0007212114323058607","0.5444543191227149","-0.12619973195066606","-0.7235472163725166"
"0.002638560477989519","0.0024361597744353065","-0.0261639093760515","0.000529205348695789","-0.00372987784808927","-0.000764769398088215","0.5384914604948028","-0.1268382569188782","-0.7230895998611242"
"0.0027772064619597738","0.0032195188952009028","-0.028018505821848692","0.0014719297564574991","-0.0054205028877881345","-0.0009882853779662063","0.5414171621580308","-0.12795831414617598","-0.7248873790130234"
"0.0030689407198971844","0.0027501640470133275","-0.026455109931571994","0.001116482604347998","-0.0016292810228575407","0.0007500913471869477","0.5421137577921326","-0.1280981563912803","-0.7259170161636563"
"0.0026318207426576303","0.0035294929442340915","-0.027562085092983236","0.00041492697124346573","-0.004149183492136894","0.002448909869603823","0.5398567879376425","-0.12743984242611942","-0.7253449955244158"
"0.0030689407198971844","0.002595083537929971","-0.026764897756593794","0.0006983604533156139","-0.004578301654110288","-0.0005565427849119751","0.5414450259833951","-0.12927494207649776","-0.7250835003750488"
"0.0027791321006260397","0.0029066675989462753","-0.027398930171805086","0.001084711867566813","-0.0062588748461778745","0.00414408806661552","0.5394945582079096","-0.12776833977546823","-0.7253613389712511"
"0.0027820205586254134","0.0024374062353254605","-0.026467501444572866","0.0030705754663107663","-0.007530194241829116","0.001992413063794374","0.5396617411600939","-0.12849261706379153","-0.7232530343294787"
"0.002634709200657021","0.0030608755854065234","-0.02694044419077282","0.0008503786150655874","-0.004361468940921278","0.0015888223205401935","0.5402190176673753","-0.12791873615227853","-0.7259660465041627"
"0.002924517819928166","0.0027508911491992503","-0.027082946590282847","0.0001563324288366078","-0.008575825725187601","0.002413720057353759","0.5411942515551182","-0.12785409209557938","-0.7227954178180861"
"0.0027781692812928983","0.0031393610727899015","-0.026934248434272386","8.74958324773735e-05","-0.006678898479342017","0.0005018211545537387","0.5381292307650696","-0.12846227393513682","-0.723923115649732"
"0.0029216293619287923","0.00321946695933048","-0.02770252224032645","0.0005042701340705559","-0.005417391601616548","0.0020096439373788882","0.5392995114303607","-0.12979869086240733","-0.7236779639472002"
"0.0029938408119133016","0.0030636697352352856","-0.027545563075648736","-0.0015524518351914347","-0.00414726885449284","0.0024459976092796798","0.5401075623659193","-0.13146360513902663","-0.723449155691504"
"0.002705957831308406","0.003371753318585073","-0.0264736972010733","-0.00035248073446206843","-0.003726048572801164","0.002023234485558223","0.5403583367941958","-0.13205727504748838","-0.7257372382484665"
"0.0029206665425956678","0.003374921406680882","-0.02754762832781555","0.0014573922375061082","-0.003735621761021429","0.000737714240809339","0.5414171621580308","-0.13007573681968945","-0.7259333596104919"
"0.0026356720199901453","0.0032150316359963477","-0.026165974628218312","-0.0008835334135075743","-0.007514398481265678","0.003708947836516454","0.5362066268149484","-0.13137389501952576","-0.7256391775674539"
"0.0029235550005950414","0.002906626050249937","-0.027082946590282847","0.0007929024639796253","-0.007105623344260347","-0.0018578377730833011","0.5389930093513561","-0.1325942164980304","-0.7241028935649219"
"0.002770466726627885","0.00336490817086331","-0.026153583115217444","0.00044669770802465087","-0.006074112313526754","-0.0022502648517616","0.5382685498918899","-0.13274857067423046","-0.7244951362889726"
"0.0026212297299932435","0.003990652312068904","-0.0277107832489937","0.00013823273636732653","-0.007121658434529291","0.003740497323361339","0.5381570945904338","-0.13155991159084376","-0.7255411168864411"
"0.0029148896265969036","0.0029007676840662115","-0.02738653865880421","0.0004423653348272165","-0.005865416810324968","-0.0013952737582652204","0.5378505925114289","-0.1328923707187245","-0.7251325307155551"
"0.0029148896265969036","0.003209734177213192","-0.02614738735871701","0.0010211703940044429","-0.005022497587530601","0.0007544597376731625","0.5387143710977152","-0.13050977548609813","-0.7276330780813782"
"0.0027695039072947606","0.003366206567623887","-0.026773158765261047","-0.0003568131076595027","-0.012600394052987164","0.0011294132544066014","0.5388815540498996","-0.13269711928216377","-0.7263582892282135"
"0.00291200116859753","0.0036777075312475144","-0.02645924043590562","0.0013698782989179348","-0.005445393177160825","-0.0001029582394266691","0.5388536902245357","-0.13187653554202336","-0.7261621678661881"
"0.002768541087961636","0.0033668505724171334","-0.027082946590282847","0.0004938724383967135","-0.005018428982536989","0.0024678395617107537","0.5377112733846084","-0.133484721360723","-0.727436956719353"
"0.002913926807263779","0.003364544619770348","-0.025682705621184302","0.00033174540585272663","-0.01028679378985453","0.0007180564836213723","0.5338103378336378","-0.13291215971567324","-0.7292183924244166"
"0.0026231553686594925","0.003678445020607522","-0.027400995423971893","-0.0012942423926243485","-0.007118547148357706","0.0011692141455032254","0.5347855717213804","-0.1336733764649675","-0.72604776373834"
"0.0027675782686285115","0.0036777594671179373","-0.026775224017427858","8.133423504102238e-05","-0.00754622933209806","0.000310097349880977","0.5358722609105797","-0.1326760110187518","-0.7264400064623908"
"0.003057386887899656","0.0034433521095503495","-0.025831403777194766","-0.0014069803707175844","-0.006699720163721095","0.004169570344451773","0.5354543035301187","-0.13248999444743378","-0.727077400888973"
"0.0024816209266898645","0.0035194797084165193","-0.026168039880385126","0.00102656179176125","-0.006703070779598187","-0.00011218039711978923","0.5322778274386135","-0.13338445710951613","-0.7296760089358092"
"0.002913926807263779","0.003211676578767016","-0.02707675083378241","-0.0012641083301621946","-0.0045960120523177795","-0.0020274769369646437","0.5407762941746569","-0.1328752202547023","-0.726309258887707"
"0.002768541087961636","0.003753700096850584","-0.02584586054236245","0.0005405657939690613","-0.00797080022966683","-0.0035464633843656757","0.5391601923035404","-0.13217205122979098","-0.7274042698256821"
"0.0028628973826080603","0.0030680635098730797","-0.025914013863867248","0.00027399005738292984","-0.011023450623403952","0.002160887323546059","0.5228319906401919","-0.1224437803297982","-0.6942924465370673"
"0.0027146232053065437","0.0023629301971387455","-0.026593481826748398","-0.0011475193536712395","-0.006213904794513178","-0.0011324422640112957","0.548745348228783","-0.11566406997516536","-0.7225175792218835"
"0.002607750259329466","0.0031396103649679328","-0.026486088714074176","0.0012011949416018306","-0.003692542414030235","-0.0011807372477200039","0.5698939916801169","-0.11250310752922249","-0.7262438851003654"
"0.0027974256679554397","0.002787973360681339","-0.025445201622000924","0.0007795876370195104","-0.004833474986121462","-0.0015481674252827398","0.5132746985403136","-0.170681439292008","-0.7227300440307443"
"0.002843640995945519","0.003475770479868444","-0.026983814486275872","0.0028568450552373397","0.003902825119928311","-0.0026201219129277876","0.5268722453179829","-0.12665619814694995","-0.719167172620617"
"0.00270403219264214","0.0024914195405654773","-0.0270065322601108","0.002573796673004963","-0.009203539676790402","-0.007650323557804155","0.530243768187036","-0.1237881128558482","-0.7340560526877087"
"0.0027502475206322187","0.0029124948036077466","-0.026403478627401698","0.0013624362445143422","-0.005993530001682669","-0.0019903456178318175","0.5620085291020832","-0.12423798271981586","-0.7308363936611258"
"0.0025807913180019115","0.0024584921987172363","-0.027101533859784158","0.0040197502963886566","8.958492209110702e-05","-0.008666459722569792","0.5191261018667697","-0.12390288903815082","-0.7242009542459344"
"0.0027492847012990946","0.0030173117772956323","-0.026434457409903873","0.0020731668813014407","-0.009044696551245648","-0.00237282247373596","0.536819630972958","-0.12271554922122735","-0.7118126215446662"
"0.0027743180039604","0.0025640258874169617","-0.02679794179126279","0.002050927365554612","-0.008296145031332549","-0.005351822096974124","0.5794512837799949","-0.13590689458724683","-0.7412961996358115"
"0.0027454334239665965","0.003077058802630359","-0.027089142346783283","0.0031090854502879607","-0.0068818022036705425","-0.001477059735701576","0.5175657276463813","-0.13724067298159082","-0.7363114483510004"
"0.003064126623231545","0.0031141929499828706","-0.026537720018244476","0.0006740895359139872","-0.004574951038233195","-0.004353402182513692","0.5772500415762329","-0.1582051363490691","-0.6984109951396"
"0.0027531359786316096","0.0031384885501667932","-0.026238258454056734","0.0036409083290130104","0.001405898302377596","-0.005772158337092127","0.5176214552971096","-0.1528898117686418","-0.7300355647661889"
"0.002521096519348055","0.0035063087716772226","-0.026250649967057605","0.000988764242487634","-0.004905417495596756","-0.003522194548331149","0.569671081077204","-0.12680923305668673","-0.7146400378471984"
"0.002772392365294151","0.0035265222124458906","-0.02758686811898498","0.00027087074868077714","-0.008354493613535066","-0.0011652051926579067","0.5357608056091233","-0.1291179493673712","-0.7524097434839152"
"0.0029986549085789242","0.0031467151920418113","-0.026752506243592926","0.00037263338134051237","-0.011940801384610879","0.002388092166501299","0.5131632432388575","-0.1253263775519957","-0.7007807949307396"
"0.0029813241605826488","0.002838766641955124","-0.026967292468941372","0.001182180637013091","-0.0015443189774026853","-0.0021182423837337737","0.5233892671474735","-0.11859679932296625","-0.7489939630953069"
"0.0027492847012990946","0.003232160086061884","-0.026647178383085515","-0.0014649378966032616","-0.003920623623378058","0.00038608307550508044","0.5088164864820612","-0.1580600170381118","-0.7465261026231543"
"0.0026038989819969684","0.0039210842136371705","-0.026610003844082897","0.0016903776405681325","-0.00032110485255827713","-0.004064360345342477","0.5509465904325448","-0.13198207685908322","-0.7382072881839122"
"0.0028648230212743094","0.002874737425810158","-0.02653358951391085","-0.0011108385939329623","-0.007580381681073858","0.0010783273545539225","0.5464047868982004","-0.1616510603510736","-0.7384034095459376"
"0.0026481886713207985","0.003098892642556227","-0.026925987425605136","0.0013575743590372212","-0.009660946609954682","-0.0010885884772969055","0.596197442823805","-0.13051505255195114","-0.7399887238889757"
"0.002669370696649589","0.003313283915662755","-0.02658109031374753","-0.0014808232649938535","-0.012856237508173756","0.000512620786589103","0.5097638565444399","-0.12599260711593605","-0.7222070537320101"
"0.0028369012606136302","0.00366148276532734","-0.02645717518373881","-0.00020409213870194558","-0.007843165697720143","0.003339430539054749","0.5070053378333965","-0.12066936693672929","-0.7117472477573242"
"0.0027396565079678323","0.0031910061023386247","-0.026907400156103826","0.0014889126593914418","-0.003022419238611659","0.0037278289909513157","0.5792841008278106","-0.11887384528024839","-0.6909256964889655"
"0.0027695039072947606","0.0033521215595651442","-0.02465421004211192","0.0018509642737530314","-0.0050390592031516615","0.0006428230919143393","0.5146678898085173","-0.13385147743750603","-0.7469020019003697"
