"AccX","AccY","AccZ","GyroX","GyroY","GyroZ","MagX","MagY","MagZ"
"0.0029861382572482884","0.007072267183623126","-0.029214286826432845","0.0023659390344880587","-0.003915119040151405","-0.0007790880113485853","0.5483831184990497","-0.14381589703442021","-0.7174347672560597"
"0.003058349707232798","0.006917498289762311","-0.029522009399287837","0.001325302992464333","-0.003490548142582636","0.0009357479428510776","0.545150914756817","-0.14370244011858085","-0.7149995936775783"
"0.0031324867958835564","0.00676065196108457","-0.02889830324491061","0.00029756779507296693","-0.008965454485752401","0.00046808747246574633","0.5496091268150691","-0.14207842310232222","-0.71488518954973"
"0.003127672699217917","0.007540209376135195","-0.02921015632209922","0.001690859015367847","-0.0043365786515485874","-0.00206509363281816","0.5451230509314531","-0.1428752600461242","-0.7149995936775783"
"0.0032778725151856826","0.006294267844685194","-0.02904493614875426","-0.0005677515448945831","-0.0034864795375890226","0.002217627862194783","0.5492190332599722","-0.14190427992917345","-0.7150976543585909"
"0.0028426781766123944","0.007226516718779713","-0.028755800845400577","0.0025346127643081687","-0.00602026312978776","-0.0007929212478882656","0.5484945738005061","-0.14305731881805245","-0.7151303412522617"
"0.003133449615216681","0.006371860035097295","-0.029206025817765595","-0.0007204436313641575","-0.006013801227739081","-0.00015562161362159228","0.5499992203701662","-0.14175652208528966","-0.7146727247408693"
"0.0029861382572482884","0.007072267183623126","-0.029214286826432845","0.0009844896342661655","-0.00538460343196214","0.0004950258804640711","0.5470735187069382","-0.14356919420579278","-0.7143295123573249"
"0.0031324867958835564","0.00676065196108457","-0.02889830324491061","-0.0010503779190887677","-0.00727746207281411","-0.0018757967117488511","0.5463490592474721","-0.14390824568684757","-0.7139209261864385"
"0.003058349707232798","0.007150482604480305","-0.02921222157426603","0.0018555854718302948","-0.004335860662432068","-0.001210102539321781","0.5488289397048751","-0.13928421673316238","-0.7140843606547932"
"0.002990952353913911","0.006136590542080684","-0.02874753983673333","0.00029727897019313795","-0.003486240207883516","0.0011466441279911154","0.5477701143410404","-0.1446958477654068","-0.7155552708699833"
"0.0031324867958835564","0.00676065196108457","-0.02889830324491061","0.0011663530335984643","-0.008969283761040508","-0.001030755841026628","0.5503057224491709","-0.14173409455541444","-0.7154898970826415"
"0.0031257470605516504","0.007853694290008985","-0.030139519797164623","0.0008021448601341517","-0.007281291348102217","0.0015553313268125467","0.5474078846113072","-0.14339373176618075","-0.714738098528211"
"0.002913926807263779","0.007228074794892407","-0.02937331124327737","0.0015829347852717608","-0.0034895908237606087","0.0007233956275489681","0.5512252286861856","-0.14360481440030048","-0.7140026434206158"
"0.003276909695852558","0.006373106495987449","-0.029509617886286962","-0.0005543693254625082","-0.003487676186116556","0.0007185418603420628","0.5479094334678607","-0.14426180909899813","-0.7134633096750461"
"0.002843640995945519","0.006915213111463693","-0.028910694757911477","0.0007999305360554632","-0.006013322568328068","0.001989258115109886","0.5474078846113072","-0.1435533630082338","-0.7149342198902363"
"0.003133449615216681","0.006604532734592752","-0.028743409332399703","4.215032634422751e-05","-0.004751337031191585","0.00071150389789205","0.5489961226570594","-0.1442578512996084","-0.7138555523990969"
"0.002985175437915164","0.0073834669191983","-0.02906145816608876","0.0007631535013572429","-0.0060183484921437075","-0.0037908505632333607","0.545178778582181","-0.144537535789817","-0.7147871288687173"
"0.0029842126185820224","0.007385752097496917","-0.030145715553665065","-0.0005567761994610829","-0.004537376274468654","0.0007158722883782649","0.5466555613264771","-0.14387922182465612","-0.7149669067839073"
"0.003133449615216681","0.006526005698513035","-0.028433621507377903","-0.0010830151305094395","-0.0039041098736981006","0.002216171732032711","0.5486338929273266","-0.1434465024247107","-0.7132345014193499"
"0.0031295983378841655","0.007151105834925382","-0.029362984982443305","0.0001352482126090941","-0.006437654136191331","-0.0003689446823650827","0.5494419438628848","-0.14477632301966495","-0.7132018145256791"
"0.0031295983378841655","0.007150794219702844","-0.02920809106993241","0.00030613626650789256","-0.0013818141073636808","9.53181509754148e-05","0.5537329729689525","-0.14470508263064955","-0.7164378169990975"
"0.002983249799248898","0.0076181131817698354","-0.02952613990362146","-0.00038569559564239844","-0.005169685356417182","0.0004989088942295955","0.5479094334678607","-0.14475917255564272","-0.7134633096750461"
"0.0031286355185510414","0.007384401764865917","-0.02921015632209922","3.531480418827549e-05","-0.004750858371780573","0.001357297624770808","0.5490518503077876","-0.14395178148013477","-0.7130056931636537"
"0.002989026715247662","0.006527044415921497","-0.029214286826432845","-0.00054926675258553","-0.002852255817996442","8.172760279607988e-05","0.5496927182911615","-0.143581067603962","-0.7144602599320083"
"0.0030516099719009094","0.0084742240698241","-0.029059392913921945","0.0002942944464349054","-0.0026437996445001642","0.0009493384910304127","0.5470456548815743","-0.14503357997999836","-0.7151630281459327"
"0.003556127302459316","0.00824300557470049","-0.029193634304764727","-0.0028016194404516664","-0.003903152554876073","0.0026515546504921215","0.5504729054013555","-0.14506392310865307","-0.7148525026560592"
"0.0029938408119133016","0.005977978393808558","-0.02735349462413522","-0.0016834820556738375","-0.005585401054882206","0.0022020958071326856","0.5490239864824237","-0.14475389548978973","-0.7138392089522614"
"0.0031257470605516504","0.008006905107757109","-0.02890036849707742","-0.0023481643791202064","-0.00706134734874162","-0.0005834811929102996","0.5460982848191956","-0.14493727352818123","-0.7126624807801093"
"0.0032653558638550467","0.008633874935504689","-0.030445177117852804","-0.002966153346994228","-0.0060068606662793895","0.001781274190293991","0.5466276975011128","-0.14141483207130834","-0.7143458558041602"
"0.0034088159444909238","0.008942789492781244","-0.028890042236243356","-0.00398570517279044","-0.006847865251429702","0.0004925989968606184","0.5467112889772053","-0.1419438579230709","-0.7132835317598564"
"0.0031267098798847923","0.007850785881265292","-0.028745474584566517","0.0008799350277680837","-0.007701793640677373","0.0021957859097637084","0.5530363773348507","-0.14309557754548666","-0.7147871288687173"
"0.0029148896265969036","0.007070397492287896","-0.028443947768211963","-0.0012548659340076676","-0.008114158723265303","0.0017606456796646433","0.548856803530239","-0.1437037593850441","-0.7157350487851732"
"0.00284171535727927","0.007382532073530685","-0.02891276001007829","-2.1102322338313744e-05","-0.009805262422375182","-0.0025325114148431467","0.547380020785943","-0.14386866769295012","-0.7210303255598579"
"0.0031286355185510414","0.007539586145690119","-0.02890036849707742","-4.680773664309075e-05","-0.003907939148986206","0.0009359906312114229","0.5484388461497779","-0.14221166901511031","-0.7157513922320088"
"0.003124784241218543","0.008163647564694005","-0.029367115486776934","0.0032030498111923138","-0.006024810394192386","0.00092434158991485","0.548076616420045","-0.14302961422232421","-0.7159802004877049"
"0.003412667221823439","0.008165205640806698","-0.029509617886286962","0.0004537257801004887","-0.005597606869863044","0.0022113179648258056","0.5461818762952878","-0.14334096110765082","-0.7162416956370721"
"0.0031267098798847923","0.007773920793039114","-0.02921015632209922","4.0224827145367715e-05","-0.006857677769355474","0.00048774522965371313","0.5496648544657976","-0.14291879583941136","-0.7144602599320083"
"0.0029880638959145374","0.006836686075383977","-0.02828492335136744","0.0008379591452329423","-0.006017630503027188","-0.0025079998904482736","0.5477422505156762","-0.14353621254421156","-0.7155552708699833"
"0.0032682443218544203","0.008318728073777358","-0.028741344080232895","0.0014756844798952753","-0.008126364538246143","0.002409108978507199","0.5474078846113072","-0.14420244210815195","-0.715359149507958"
"0.0028388268992798962","0.00785026652256106","-0.02906765392258919","0.0008143717800469109","-0.006014279887150095","6.619554773398257e-05","0.5471013825323021","-0.1434253941612987","-0.7191508291737816"
"0.00284171535727927","0.007381285612640531","-0.028291119107867874","0.0018540450724712071","-0.0039115290945688054","-0.001205248772114876","0.547324293135215","-0.144170779713034","-0.7164051301054266"
"0.0031257470605516504","0.007853071059563907","-0.029829731972142823","0.0017967614713051308","-0.001810453609926063","-0.004187403344037529","0.5481602078961372","-0.1451879341561984","-0.7157513922320088"
"0.002985175437915164","0.007382532073530685","-0.02859677642855605","0.00048222316824361234","-0.00791168579240669","-0.0012341286869959626","0.5457917827401907","-0.14430666415874857","-0.7170752114256799"
"0.002987101076581413","0.0070702936205470504","-0.02828492335136744","0.0015152534884318423","-0.005176625917876874","-0.0016442720159794656","0.5474914760873993","-0.1417987386121136","-0.7183009699383383"
"0.0032701699605206694","0.008007528338202187","-0.028894172740576984","0.0016761289464965706","-0.007286556601623362","-0.0007987457685365519","0.5467948804532975","-0.1418185276090623","-0.717483797596566"
"0.0031295983378841655","0.0073834669191983","-0.028745474584566517","0.0009922879060215474","-0.007914797078578277","-0.0008060264193469101","0.5461261486445596","-0.14315758306925933","-0.7168627466168189"
"0.0029880638959145374","0.006915213111463693","-0.02859471117638924","0.001665442425942899","-0.004754448317363171","0.0009274965385993385","0.5455967359626421","-0.14161404130725885","-0.7185624650877055"
"0.0029842126185820224","0.007540209376135195","-0.02952613990362146","0.0008149494298065688","-0.00728033402928019","5.551725987879084e-05","0.5476586590395837","-0.1426892434748062","-0.7161926652965658"
"0.002845566634611785","0.006757535808859183","-0.027981331282846075","0.0004566140288987783","-0.00348384691082845","0.0022210254992396164","0.5472685654844868","-0.14398608240817923","-0.717042524532009"
"0.003127672699217917","0.0076946666547734735","-0.028590580672055617","0.0006604281190980778","-0.004754208987657665","-0.0018529840058763964","0.5464883783742925","-0.14396233561184077","-0.7176962624054267"
"0.00327305841852006","0.007384090149643378","-0.02873927882806608","0.0009903624068226878","-0.005388193377544739","-0.00035996521303230763","0.5471849740083946","-0.1431272399406046","-0.7180885051294775"
"0.0026992180959765173","0.007069774261842818","-0.028607102689390113","0.0007329231639351455","-0.0072767440836975904","-0.00037428382629267864","0.5495255353389772","-0.14333964184118758","-0.7169771507446672"
"0.003120932963886028","0.007376611384302453","-0.02858438491555518","-5.3546983839099766e-05","-0.005196729613139431","0.0009520080629942106","0.5460425571684674","-0.14440956694288193","-0.7195430718978323"
"0.0031892931365380224","0.008000672803306338","-0.028892107488410174","-0.00022250953853903866","-0.0030903888749755437","0.0007554304911145435","0.5442314085198027","-0.14411009345572456","-0.7181211920231484"
"0.0028320871639480076","0.007687291761173394","-0.028751670341066952","0.0001348631127693221","-0.006037734198289745","-0.0011935997308183033","0.5442871361705306","-0.14331985284423884","-0.7168627466168189"
"0.0036966989250958367","0.007223919925258559","-0.028869389714575238","0.0002973752451530809","-0.009840443889084657","-0.0003670031754823207","0.5450394594553606","-0.14266945447785745","-0.7166339383611229"
"0.002829198705948617","0.008155649440648848","-0.029218417330766466","0.0001119496723028917","-0.006457518501748381","0.0013750138750760125","0.5449837318046327","-0.1426430691485925","-0.717483797596566"
"0.0031950700525367865","0.006909604037457999","-0.028580254411221556","-0.0010561544166853465","-0.0035108911675507","-0.0016083541386483658","0.547296429309851","-0.14349927308324062","-0.7169934941915027"
"0.0029842126185820224","0.007538962915245041","-0.028906564253577856","0.0013512009566889957","-0.005176625917876874","-0.0024990204211155","0.5479930249439529","-0.14250190763702494","-0.7170261810851735"
"0.002987101076581413","0.00707164395317805","-0.028904499001411045","-0.0010019516142374461","-0.004113044706605392","0.002645244753123145","0.5430611278545112","-0.1440916237252391","-0.7182029092573257"
"0.0028397897186130208","0.007772051101703883","-0.02891276001007829","0.0016755512967369126","-0.008966890463985442","-0.0008113655632745062","0.5442035446944384","-0.14458898718188368","-0.7183826871725156"
"0.003057386887899656","0.00738377853442084","-0.02905732766175513","-0.00019458980015557277","-0.008121817273841517","-0.002092760105897521","0.5457081912640985","-0.14297024723147805","-0.7175001410434014"
"0.002985175437915164","0.007382532073530685","-0.02859677642855605","0.0002844744005207209","-0.006434542850019744","0.0019882873616685046","0.5464326507235646","-0.14296233163269856","-0.7179087272142877"
"0.002913926807263779","0.007382532073530685","-0.028753735593233763","0.0011884962743853509","-0.00643980810354089","-0.0035792263130122867","0.5471849740083946","-0.1444385908050734","-0.7185134347471992"
"0.003122858602552277","0.00706510003350474","-0.028582319663388367","0.0016690045994607896","-0.003939052010702068","-0.00011096695531806295","0.5454574168358217","-0.1426839664089532","-0.7162090087434012"
"0.002834975621947381","0.007063853572614586","-0.02859471117638924","0.0011331381724181346","-0.004353571060639559","0.002455947832053836","0.5434512214096083","-0.14343594829300468","-0.7183500002788448"
"0.0031892931365380224","0.008156480414575618","-0.028892107488410174","-3.207766777181408e-05","-0.003934983405708456","-0.0016051991899638776","0.5434233575842441","-0.14261404528640104","-0.7181538789168194"
"0.00297458442525076","0.00784403421811029","-0.02890036849707742","-0.0010751205837941148","-0.006877542134912524","8.561061656160406e-05","0.5475193399127632","-0.14408238885999636","-0.7197065063661868"
"0.0029071870719318904","0.007141134147804149","-0.028127964186689725","-0.00023733588237025816","-0.007299241076015214","0.002221268187599962","0.548410982324414","-0.1448000698160034","-0.7180067878953003"
"0.0028397897186130208","0.006283672927118883","-0.02797307027417882","-0.0019217625815327254","-0.002660313394180122","-0.00031992163357533876","0.5479651611185886","-0.14248607643946595","-0.717810666533275"
"0.0031238214218854013","0.006908669191790385","-0.028272531838366567","0.00048751829104047654","0.0015413589156943503","-0.0015719508845965758","0.5469341995801179","-0.1436628621246834","-0.717009837638338"
"0.0031199701445529036","0.007688226606841011","-0.02858438491555518","-0.0008998038817379386","-0.003509215859612153","-0.00010538512303012188","0.5476029313888557","-0.14444518713738963","-0.7186605257687181"
"0.0031912187752042884","0.007767065258143266","-0.028892107488410174","-0.0002062390703086741","-0.004355725027989118","-0.00118195068952173","0.5476586590395837","-0.14398080534232624","-0.7176145451712496"
"0.00311708168655353","0.008310626077991358","-0.028276662342700192","-0.0010297750776609685","-0.0035053865843240476","0.004823130098861579","0.5411942515551182","-0.14423542376973317","-0.718840303683908"
"0.002902372975266251","0.007999530214157028","-0.028904499001411045","3.9165802585994905e-05","-0.003930914800714844","0.00010745256899267833","0.5446215020748996","-0.1431377940723106","-0.717483797596566"
"0.003542647831795556","0.009249418871759186","-0.029344397712942","-0.002286933504596468","-0.006458236490864901","0.0013791395772018821","0.5429496725530552","-0.14207710383585898","-0.7194286677699842"
"0.002906224252598766","0.007374430077744683","-0.02797307027417882","-0.002453392910337889","-0.0009725603109473363","0.001624497509510948","0.5449837318046327","-0.14378951170515525","-0.7178923837674521"
"0.0028388268992798962","0.006515410780946724","-0.02704577205128023","-0.000296448707775251","-0.0037183900222249513","-0.0005395545996878062","0.5437298596632492","-0.14095176954270822","-0.7240211763307446"
"0.0031218957832191523","0.007220907644774019","-0.02858438491555518","-0.0010989004989000318","-0.005613641960131989","0.0030896071409153305","0.5460982848191956","-0.14166417343286228","-0.7172386458940343"
"0.0031180445058866546","0.007999114727193645","-0.02827459709053338","0.0020180976042140533","-0.003518789047832418","-0.0011739419736303363","0.5452623700582735","-0.14178686521394435","-0.7185297781940345"
"0.00311708168655353","0.008156168799353077","-0.028896237992743795","0.0020000941867047155","-0.0037284418698562303","0.0009663266762545814","0.5469620634054818","-0.14204807997366753","-0.7212101034750479"
"0.0028301615252817416","0.008075460456715592","-0.02813209469102335","0.0002989156445121687","-0.0030879955779204767","-0.000314097112927052","0.5464883783742925","-0.1431377940723106","-0.7178596968737814"
"0.00340592748649155","0.0080003611880838","-0.028262205577532507","0.0003318416808126696","-0.003940009329524095","-0.00417551161438061","0.5458753742162832","-0.14564176181955582","-0.7170261810851735"
"0.003120932963886028","0.007686253043764932","-0.027655021440489775","-4.4112037764687143e-05","-0.004564899190601917","-0.00032647421930466085","0.5464605145489285","-0.14459690278066317","-0.7189056774712498"
"0.003120932963886028","0.007376611384302453","-0.02858438491555518","0.002518342296077804","-0.004362426259743304","0.000530215692714135","0.5466834251518411","-0.14208370016817523","-0.7199516580687184"
"0.0029774728832501506","0.0073760920255982205","-0.028590580672055617","0.0004992638361535207","-0.00688496135578323","-0.003770950117685049","0.5503057224491709","-0.1425335700321429","-0.7167156555953"
"0.003188330317204898","0.008002646366382416","-0.029821470963475576","0.0003049809669885768","-0.006042760122105384","-0.000979063220273086","0.5455410083119142","-0.14452434312518453","-0.7155716143168188"
"0.003402076209159035","0.008470900174117021","-0.02981320995480833","0.0011537410138459333","-0.0039407273186406145","-0.00010538512303012188","0.549191169434608","-0.14367209698992614","-0.7171569286598571"
"0.0029736216059176356","0.008000776675047184","-0.029367115486776934","-0.0007316115267175438","-0.005614838608659522","9.507546261506971e-05","0.5476586590395837","-0.14250850396934117","-0.7169934941915027"
"0.002833049983281132","0.007375468795153144","-0.02859677642855605","0.00047134409777005497","-0.004774312682920222","-0.0003296291679891493","0.5466834251518411","-0.14192143039319569","-0.7142968254636539"
"0.0031199701445529036","0.007533042226016809","-0.028894172740576984","0.0013241476929450168","-0.003937616032469028","0.00010526837374957084","0.54852243762587","-0.14304940321927298","-0.7157023618915023"
"0.003262467405855656","0.0077673768733658045","-0.02888797698407655","0.0001333227134102343","-0.00309350016114713","-0.0007446262641795573","0.5489961226570594","-0.14196232765355637","-0.7133979358877043"
"0.002978435702583275","0.007142380608694303","-0.028588515419888803","0.0006278871826373488","-0.0001406502546062754","0.0018434024105423797","0.5471571101830307","-0.1435995373344475","-0.7136430875902362"
"0.0029774728832501506","0.007220907644774019","-0.02890036849707742","0.0004774094202464631","-0.00772620527063905","-0.0012079183440786736","0.5523397817007485","-0.14343199049361494","-0.7147707854218819"
"0.0031151560478872636","0.008467784021891635","-0.028896237992743795","0.00040241122645087767","-0.003935940724530481","-0.0024601902834602563","0.5494140800375205","-0.14280006185771904","-0.7131691276320082"
"0.0031950700525367865","0.006910227267903077","-0.028890042236243356","0.0007375443620124088","-0.00140957635320245","-0.0009509113704730351","0.5482159355468654","-0.14340956296373975","-0.7146727247408693"
"0.002972658786584511","0.008156272671093924","-0.02921222157426603","0.00012205854309690506","-0.0026677326150508275","0.0005452623710555416","0.5471013825323021","-0.1443818623471537","-0.7151139978054264"
"0.003119007325219779","0.0075356390195379635","-0.03013332404066419","-0.0011189256905681727","-0.007298044427487681","0.0054339767018506185","0.5486896205780547","-0.14590825364513196","-0.7142314516763121"
"0.0031199701445529036","0.007687499504655086","-0.02827459709053338","0.001846150525755882","-0.003096850777024222","-0.0009584347096437384","0.5505843607028117","-0.14380138510332446","-0.7131364407383373"
"0.00322395463253059","0.007300577270003045","-0.029788426928806584","-0.001151562901988845","-0.0083574852348539","-0.002742922223262493","0.5318041424074246","-0.1312683537024659","-0.7316699094497336"
"0.002833049983281132","0.006135655696413068","-0.02868145176739535","0.004096192614583387","-0.008645207406813975","-0.0047555367956058","0.5178722297253864","-0.1572183250345594","-0.7050137476611203"
"0.0029370344712588187","0.006898593632928304","-0.02835720717720586","0.00029986876661560423","-0.005410546772039059","-0.0016704823588967546","0.5598072868983214","-0.15845843551001276","-0.7216350330927694"
"0.003053535610567158","0.007749095446976876","-0.028846671940740306","8.039074043358105e-05","-0.005024412225174655","0.0026030169784230684","0.4898969490598535","-0.139016405641123","-0.7294635441269484"
"0.0031045650352228772","0.007747641242605029","-0.028640146724059103","0.0006343607109439151","-0.00599355393465322","-0.0032336380878806256","0.5493862162121569","-0.15874207779961114","-0.7044744139155507"
"0.0036302643911100747","0.008246329470407567","-0.028510035837549946","-0.00012370254714955288","-0.00266964725269488","-0.0004188899469241388","0.5362066268149484","-0.14893597017828675","-0.719788223600364"
"0.002994803631246426","0.008073383021898669","-0.02968929482479961","0.001525882244009548","-0.004292781315440874","-0.0018505571222729438","0.5668011070647045","-0.16587403229993133","-0.7127605414611219"
"0.0029312575552600546","0.00905922971426982","-0.027954483004677518","0.001847498375195084","-0.008751756991705528","0.0014447625098392425","0.5398567879376425","-0.1578304646735066","-0.7034447767649175"
"0.0031767764852073865","0.007414420697970464","-0.028289053855701064","0.002742470402825073","0.00014128013848054024","-0.0008561658345942428","0.5551261642371561","-0.13414963165820012","-0.6954691747092197"
"0.0028080166806198265","0.006484664745656252","-0.02897058707074903","-0.0005764162912894519","-0.0016824122174800135","-0.0005302353666505478","0.5957237577926157","-0.15983443043118073","-0.7008298252712459"
"0.0029351088325925696","0.007108310677696754","-0.028629820463225045","0.002214498522497743","-0.005360048204177159","0.0037222471586633747","0.5500270841955301","-0.1534386266173531","-0.7276330780813782"
"0.0029216293619287923","0.00787831189258953","-0.028588515419888803","0.0018505791739132594","-0.0042537705734432925","0.0005533681622910735","0.48777929833218375","-0.1356601917586194","-0.7267015016117578"
"0.00297458442525076","0.008208624028480401","-0.028875585471075674","0.0015101894255388415","-0.005109446069541163","-0.003456668691037927","0.5449837318046327","-0.13834357974486636","-0.7314084143003664"
"0.0028369012606136302","0.008048349932354738","-0.028650472984893167","0.0021248665347908236","-0.002930037972286098","-0.000709727677961908","0.4850486434465043","-0.13395174168871288","-0.7337945575383416"
"0.003155594459878596","0.008087613450394595","-0.028652538237059978","0.0014530694918046686","-0.006912802580424817","-0.0020920320408164845","0.5742407484369129","-0.1384900183222869","-0.7184970913003637"
"0.003013097198575826","0.007848604574707522","-0.02905732766175513","-0.0004714765849515981","-0.005781053089133879","-0.003698871674662504","0.49703008835305706","-0.14363647679541844","-0.733042758983911"
"0.0030795317325615712","0.0072753364369774216","-0.0288797159754093","-0.0017478900038756945","-0.0016630265113339758","0.003408305495720736","0.5631788097673744","-0.1262722916061447","-0.7274042698256821"
"0.0029351088325925696","0.007332881381406208","-0.028797105888736817","0.0017656646592435466","-0.007326620394325173","0.002707445779879637","0.5684172089358207","-0.15573415026340506","-0.7265707540370743"
"0.002922592181261917","0.007996206318449953","-0.028904499001411045","-0.0005395429816312885","-0.006531279916985526","0.003700575088084542","0.5683614812850926","-0.12850185192903427","-0.6985253992674479"
"0.0032663186831881712","0.008563346023470128","-0.02868351701956216","-0.00044605999552665","-0.0005326723122261425","0.0040596325172153665","0.5759961694348497","-0.13671692419568127","-0.6928705666623837"
"0.0032152892585324525","0.007984780426956871","-0.02873927882806608","-0.00021310347495260892","-0.0009206257648523969","-0.003220775604782326","0.49925919438218325","-0.11004531410819095","-0.6940309513877003"
"0.0026626309613177004","0.007464590748799172","-0.028745474584566517","-0.0007861031540452731","-0.002239571771899458","0.003618133852075255","0.5025749896005084","-0.12540817207271707","-0.7049483738737786"
"0.0029716959672513865","0.007522239564968805","-0.028105246412854796","0.0002555341475618597","-0.007285264221213626","0.001292138226901707","0.5424202598711376","-0.15086869554694546","-0.72787822978391"
"0.003108416312555375","0.007874884125141608","-0.028320032638203246","-0.00036253184028011597","-0.008151661688118194","0.001239358362293818","0.5364574012432252","-0.11409282361743665","-0.6856957935016227"
"0.0027367680499684587","0.0071145429821475245","-0.02853275361138488","-0.0009362920915563301","-0.006049413487918469","0.0012619477948747557","0.544398591471987","-0.1567209615779148","-0.7138718958459322"
