"AccX","AccY","AccZ","GyroX","GyroY","GyroZ","MagX","MagY","MagZ"
"-0.0012798689118965255","0.07260271844610021","-0.009356637124205567","0.18390578916929148","0.11744291433106938","-0.18753968145047945","0.43199914223985825","-0.16897339041837034","-0.01855785312521331"
"0.007172835895069333","0.06973876857296557","-0.11328861502070277","-0.20215561511778402","0.014674273504872992","0.25042388475258254","0.4178592273364795","-0.18396864613362415","0.0165713636227198"
"-0.014720302716381056","-0.0309477754466178","0.00280597923235119","-0.06540691111370976","-0.10018075341566031","0.3777243798963858","0.4024338656237027","-0.24452415494463736","-0.03621717778160393"
"0.004258710511244596","-0.04258902214377933","0.04002624377879336","-0.06992801280691427","-0.05382963054376455","0.35603952784965853","0.3844376102921295","-0.29623961464751813","-0.08773862580772182"
"0.008678177144399779","-0.00867863008173041","0.010158048201544137","0.01159149256377966","-0.011820050062783128","0.3485968455793835","0.36032358033064305","-0.3441095357463307","-0.11173973177396997"
"0.015036700591887029","-0.019691936418194528","-0.02265101294188767","0.009091311978852507","-0.032926558996240196","0.38541208874346006","0.3262116307405052","-0.39432429745737996","-0.11721222809180258"
"0.012322021051822146","-0.018271249572343398","-0.010220648122212333","-0.014164557707760398","-0.056762133318207","0.3540180585910653","0.2914331531751237","-0.4432962936439438","-0.1385276012497606"
"0.016762065430762085","-0.05561709141464345","-0.013936844876276592","-0.033207483433878034","-0.04105286777446354","0.2956557908297109","0.2500608095689411","-0.4856206666948165","-0.16772126429912146"
"0.026477927248207123","-0.058550382416463216","-0.015450288316741185","-0.012423859353589748","-0.014923868530642592","0.21012620136574758","0.21471102231049374","-0.5155291087038959","-0.18965755530852585"
"0.025558260301981068","-0.039505760793873135","-0.018813284970521364","-0.018875966442694705","-0.009817957705387218","0.12851703713057114","0.19671476697892057","-0.5396575186038117","-0.19820306878944904"
"0.030443100570575955","-0.03138478581577291","-0.003228805276803746","-0.01504276359757769","-0.021512970541162295","0.10584901594443714","0.1761476180285513","-0.5568217518853844","-0.21372601507560887"
"0.03096704163632609","-0.012911019066544124","0.020807031225109265","0.01005244983639608","-0.009326863371552797","0.05203199118270752","0.1681968914667187","-0.5660252512884135","-0.21364813724339357"
"-0.0007385159074054771","0.031589859705428436","0.011229421839072523","-0.01676862149436574","-0.05767144889240741","0.12003605474110958","0.15898452266603236","-0.5682411256669772","-0.2231892240929071"
"0.011098436629390581","-0.03242167757727379","-0.02901051367227153","-0.02377506331511481","-0.0836900198301172","0.18341524166242712","0.13584648009686698","-0.586929505346504","-0.2638772342159925"
"-0.006900759318176645","-0.01692312902395345","-0.02790723809020135","-0.05294616472081515","-0.07230040278736444","0.19116114432149117","0.10894731538168495","-0.6122420597555993","-0.31569125031448686"
"-0.0033756331748970615","-0.05412706344010719","0.002961691104519442","-0.09409089633002833","-0.10615602746124084","0.21435597264774345","0.06955075113068801","-0.6368159893718401","-0.38284509455312116"
"-0.05657227183551544","-0.0947674151871449","-0.015547133505528759","0.007402904412753481","-0.10005290588325955","-0.07294993997813355","0.057767488711205565","-0.6401222146350939","-0.45153544737330087"
"-0.025167465960945625","-0.04369202986518929","0.012055644224199432","-0.06201979495815203","-0.002808397122684516","-0.3007940280792698","0.07809659195613078","-0.6176000205545602","-0.4789842260197835"
"-0.04754972176066422","0.057418623848444976","-0.01346211355869046","-0.06022846445526428","0.0035998006294881086","-0.43331358930889563","0.14505884889755308","-0.5642548966261748","-0.5104300317845601"
"-0.02534158534835502","-0.010724354636380518","0.023502175861309264","-0.016898693738483808","0.06590597592616779","-0.41224130370416623","0.2030943918848222","-0.5122815044559481","-0.5091881960816673"
"-0.029235528012238183","-0.007257620719001675","0.03860888595700819","-0.019038338505821952","0.10823149962159459","-0.49809249055017846","0.26608128554532806","-0.4511280612888145","-0.4735959219529945"
"-0.0314515929429034","0.0009960699542331112","0.06128148400734087","-0.0034064482606904747","0.09436963092104214","-0.43741778447028185","0.3230932319991875","-0.38678563488903894","-0.43183235582282736"
"0.009574100537797278","0.01408606246559744","0.04882263530861036","0.0689088308476997","0.060045764659747924","-0.44192014781896677","0.37098802793453833","-0.3236859740137489","-0.3827966840087711"
"0.01406004911887243","0.012443967783270305","0.026785018879428198","0.10979952874524608","0.08313023472886025","-0.42510519898612315","0.4067662974627849","-0.2637870205741619","-0.3267646361329935"
"0.024220706825972417","-0.006133326883669768","0.02040825691833691","0.13528146703924873","0.07029913675828892","-0.27209835310387603","0.4272382281309765","-0.22347921044981278","-0.26303320689928067"
"0.031206060068133545","-0.00892196906588357","0.015435541312885671","0.10587117237926416","0.024934037980034032","-0.18134357188967024","0.4407116150591122","-0.19408663337542553","-0.21438902905257703"
"0.03412018545195831","-0.029470648147185745","-0.004850487457677984","0.028766266595852567","0.014568799290642365","-0.0835871562434279","0.4439252320826073","-0.17640653515916072","-0.1988176722220672"
"0.03168567983527038","-0.06920956522131677","-0.002898392279763799","0.010394653324277171","0.015409396816177364","-0.18198982948597806","0.4469246079712029","-0.15345054556536328","-0.17673404477333657"
"0.033846343142668954","-0.05623471123525751","0.004560586182149543","-0.03870019860160207","-0.0003904806661551316","-0.1269415461758326","0.4522568317731503","-0.13217111700931508","-0.1716509376165805"
"0.027191816736585696","-0.07577923401813573","0.02606198409349181","-0.06228430428679481","0.0409805013904845","-0.04690055203217086","0.45273292318403846","-0.12258775342710361","-0.16659519294141356"
"0.02598247844585126","-0.08162162725595487","0.008007895117933013","0.01342210663032723","0.04081429959836351","0.0222655500667013","0.45501816195630185","-0.12060284584884524","-0.14493042194162473"
"0.021010578483551673","-0.08162323984034289","0.0167000356504081","0.035277735514487915","0.017488517311844733","0.10327011122362577","0.4488289736147557","-0.1289856510375915","-0.12610713941455667"
"0.019636618226539237","-0.04411130180607612","0.0003411742314439826","0.05267162453497448","0.035785097292548584","0.22245716384316627","0.44099726990564514","-0.15155122466945153","-0.10954862844056086"
"0.004750993506556631","-0.018297050922551815","0.011040668667200276","0.03914673005093944","0.021244038576117074","0.40893464011618125","0.42861889322255253","-0.19690044211010962","-0.08864369250644032"
"-0.061859169598673894","-0.3154818403762985","0.055831568481452036","0.07166304514429368","-0.07220611523221888","0.0545159481050092","0.4135744046384858","-0.2361061771467075","-0.09181142595195495"
"-0.0019003670924828005","0.006512705019827052","-0.05949965781292342","0.19813516889495927","0.09994538142787028","-0.02716611153676501","0.4092419727994033","-0.22424128364878973","-0.03935333913297724"
"0.045015310393221625","0.05370000424965643","-0.04535076562358627","0.020975026469988448","0.11622996086741719","0.29769869991377407","0.38727035418691397","-0.23628204019262528","0.05835176820309567"
"-0.014926080174228511","0.030783567511415307","-0.10052973612925782","-0.07582142032396848","0.06859237220073877","0.23805923112085398","0.36508449443952484","-0.28830232917509685","0.07224348962528612"
"-0.005935188169815404","-0.039618641701034976","0.029334534936645475","-0.04868433454776544","-0.06356362204192746","0.2588527989944742","0.3429224392626803","-0.32396735488721734","0.06127744892686003"
"0.0005847914369060434","0.020959542161120556","0.060434563336767194","-0.06796732649624863","-0.04165694736505713","0.3145994080484974","0.32899676549420126","-0.36302067528401977","0.026569193434144763"
"-0.006109307557224773","0.010174416515562152","0.012187239745434309","-0.03310883804068783","-0.018874037662995096","0.3296072858774471","0.29386121937065346","-0.41066783652466987","0.005205409731836694"
"0.008752573609929249","-0.01965645956165795","-0.02462019844723496","-0.009847730545586944","-0.02045151640340498","0.31652899234079096","0.2582257772656732","-0.45230048159493286","-0.005129189083762567"
"0.002036313966491748","0.002758624690345809","-0.018304372998069026","-0.011015761838405566","-0.03093693177325336","0.3668819538730222","0.21999563697135227","-0.50110833893864","-0.035101630455276533"
"0.02923534518336342","-0.043532384010774694","-0.00726402147628589","-0.029218019302203076","-0.028199396485722072","0.26658338749248833","0.17436227523772058","-0.5456837589772601","-0.05738521450023569"
"0.016991586441438125","-0.05886161120335229","-0.01677763708071202","-0.04034574343490783","-0.002001519383820216","0.12085995660559681","0.14998639500024574","-0.5663066321618819","-0.06487832484311416"
"0.037616819331843625","-0.061007961023815234","-0.016792828482874774","-0.03697172180057003","0.00765640283256424","0.08974770701652109","0.13477527442236845","-0.5816887865781549","-0.0776376604887685"
"0.03316252882120654","-0.036943364201299414","-0.0016318091244439934","-0.012389813598417905","0.032200572102862264","-0.06913977670890632","0.13351363218351495","-0.5832832781944758","-0.08618106916341564"
"0.018321225399837247","0.012695369689363599","0.016377598139503596","-0.02449875385453681","6.641445276208666e-05","-0.015608207909147749","0.144297102640132","-0.571676317163904","-0.0921439853435771"
"-0.0032664128318857064","0.008236251339593395","0.011387792206619257","-0.009572745599968211","-0.03388062120678087","0.062418055206782716","0.13858400570947396","-0.5772335894149051","-0.11218174109194876"
"-0.014498696223314518","-0.017547199182119607","-0.04876883111020643","0.024301034859853132","-0.023139830390961975","0.24991545460572423","0.12070677323062283","-0.5959923143127989","-0.09842683207770411"
"0.005624756250647502","-0.060198443661026044","0.005251794980554955","-0.04499604440414909","-0.0763116191164383","0.20427006618024723","0.08171488667888085","-0.6244469551422914","-0.11997373392603196"
"-0.0658164284034332","-0.09688312590423534","-0.018577818236998642","-0.0642493554378671","-0.08523697497216641","-0.03715461993998352","0.0782156148088528","-0.6327594151126705","-0.18185924805561438"
"0.0013176757675474739","-0.0868076986478473","0.009760793034988058","-0.15762551328917576","-0.08035319923445736","-0.279553286702991","0.0905701869214011","-0.620577968132101","-0.2894422112453751"
"-0.01685722247095108","0.008595051365929238","-0.08787529812768184","-0.09000540570940714","-0.03367446706078465","-0.588629810677475","0.16898244229468407","-0.5585569339384396","-0.36900599328783296"
"-0.04976578669132944","-0.0011533437765670856","0.0031838653611497535","-0.033473738698683475","0.13835877063183383","-0.4104036043781724","0.23896787969524652","-0.4928193273743833","-0.35823990918563536"
"-0.0265287629897828","-0.031071944444495816","0.06368932125013774","-0.0009668516606075755","0.08006668823370704","-0.46286992013529654","0.2892193281144937","-0.44063489954905516","-0.31387269769194553"
"-0.03031190240713271","-0.013401244720504106","0.04055300564878693","0.03202156457112958","0.13906672634250303","-0.48648435647431737","0.338899466840675","-0.3722476230931713","-0.2558621319166438"
"-0.012963279807067886","0.006343512665835337","0.05600057283051271","0.10293799962599769","0.11758194852255523","-0.4592557781275087","0.3834378183292641","-0.2992527348342423","-0.1430382010994203"
"0.010758112372181258","0.019056208807933163","0.03609907642719382","0.15370982323611054","-0.020970577384952067","-0.3580904302315478","0.4124555898228984","-0.23773584137221207","-0.0909863418917279"
"0.024014929368124938","0.01859291331325322","0.008569787105427962","0.14250091307184215","0.047000522072405314","-0.3134649649319973","0.4235961288376821","-0.18858798213973046","-0.0689826970814886"
"0.028997909655077852","0.018554695063257","0.01349256097626914","0.030043418898837354","-0.03115906686079968","-0.15592206454675545","0.4337368758896004","-0.15345054556536328","-0.052712544567317075"
"0.032978912012665715","-0.012664293655176106","0.015743167206681487","0.016636375105781764","-0.008171920725727424","0.022052683228107012","0.4371409294774507","-0.1439539410858046","-0.060144615528188956"
"0.043587531416464466","-0.05369489082411615","0.025755231705320354","-0.010865611328416925","-0.04112638010559398","-0.012542619150169024","0.43990225966060226","-0.14418842514702826","-0.07156529438225041"
"0.030979704864501318","-0.057953726192893504","-0.020746390895732103","-0.014895231991833036","-0.019419786816930844","-0.007971342076759348","0.44163999331034387","-0.13864287709908843","-0.08613897303789383"
"0.033108710101461825","-0.07115595457766447","0.0010950475637707651","-0.030406128860892275","-0.04212838514078493","0.11708654732288948","0.4424017395677652","-0.15067190943986275","-0.1068650004385468"
"0.03202758699600159","-0.20398775578816322","-0.041044003110444864","0.04858526094627196","0.015676278540063954","0.12583399611462015","0.43725995233017273","-0.17122443740611756","-0.1055452869034387"
"0.02553609965267441","-0.05663463216348802","-0.010074430876395802","0.0029869953733491503","0.013726603670952355","0.1472064392759285","0.4305708680071939","-0.18315967612240247","-0.08662097367511834"
"-0.12596676223577463","-0.1088065748693015","0.11872397343526311","0.12671765016140818","-0.0783300120342153","0.2920661514796029","0.4117414527065662","-0.218508148351871","-0.06353545843896909"
"0.0025254311547600107","-0.05138566998046256","-0.03747022575165644","0.1743555183595488","0.18049731731112453","-0.20543274722123947","0.41366962292066356","-0.20283288885906853","0.003689949213052284"
"0.008258707711095286","0.12204939353614928","-0.04673128429512674","-0.06215946985116472","0.0622095841456308","0.19050569822855334","0.4003866725568836","-0.20466186453661317","0.06919152052495638"
"-0.046425860260112584","0.02373173598257649","-0.027445799249507626","0.009145435999894924","0.010778919002037321","0.384830150623562","0.37346370327115697","-0.25480628102929537","0.08878726695534932"
"-0.0006641194418759786","-0.007271488944738699","0.03805326042290538","-0.04588036107053568","-0.023782264241275795","0.3636966083746328","0.3501114195670916","-0.3065686375444209","0.07670567893059581"
"-0.004338038516214531","0.009592273551484674","0.0025781081999098456","-0.044089903535729266","-0.013942478910051258","0.3425018094815039","0.32283138172319886","-0.3487523201585594","0.06794968482206365"
"0.02413997874635532","-0.04145537531899687","-0.009062303707302167","-0.056307964802014325","-0.014441403905245223","0.310250186310312","0.29419448335827525","-0.3984394927318554","0.04761725619503936"
"0.020928267500412674","-0.043096986226007605","-0.018917725860390314","-0.04905621895041172","-0.0006429795426466329","0.17437069814632744","0.2664859632445833","-0.44261628986639523","0.017518526446960073"
"0.014881576046740461","-0.04282445946443117","-0.020032394994082558","-0.05617090881324563","-0.016225196601066836","0.1529553753340792","0.24863253533627644","-0.4644819285755026","0.00034330723407004855"
"0.035975348379629464","-0.051256663229420456","-0.012541134802573354","-0.07206067382960178","-0.01547313349171936","0.06482850415604462","0.23665883635243853","-0.48376824261114953","-0.030113239580944483"
"0.0091071439988357","-0.026322883421758498","-0.011020095661027383","-0.019290626281326124","-0.002366524088824387","0.07140746774310258","0.23006497031163767","-0.4834399649254364","-0.04421965124329607"
"0.032339418989816626","-0.031025179497243056","-0.006025922200021249","0.007589283098117291","0.0011067737476732763","0.09096671423609702","0.21966237298373073","-0.4963834851049831","-0.0339229389406664"
"0.015443506797016294","0.0021639035680417265","-0.0017248564626908738","-0.0015430105942849223","0.011661866022680073","0.007918937711888388","0.21294948409020759","-0.5089518307865719","-0.038258839869410734"
"0.009650079906848677","0.009406826346861654","0.0020103295440768282","-0.02059484059483212","-0.005041573894894802","0.11789513502632676","0.2052844123749079","-0.5148842775355308","-0.04094457267770089"
"-0.004985446056673163","-0.01672800631300227","-0.015247103312814321","-0.012161968929190956","-0.02667960894430803","0.1736509325769799","0.18583607824012577","-0.5379575091599401","-0.055983413520360105"
"-0.006505033437700709","-0.0005703945202955939","-0.01919686787513096","0.023260456906908592","-0.01740075466149183","0.26876106119379106","0.15460448168586122","-0.5584865887200725","-0.05777881327386443"
"-0.015400951230799646","-0.009118543102783974","-0.005930975936504024","0.006336923088642257","-0.01498587458385696","0.3432675175340013","0.10620978976907795","-0.5967192149025923","-0.04797462563983969"
"-0.021637591107100312","-0.0571554969208205","-0.001956525345672907","-0.038675755495324864","-0.07837795485886559","0.32133763891047484","0.056434432760718654","-0.6377422014136735","-0.07931098147825962"
"-0.005840213958501177","-0.11048850038601286","0.005853754291254174","-0.09097440027968268","-0.09965178425035215","0.12305907013236944","0.018251901607486867","-0.6683189229972405","-0.15613851536180112"
"-0.014292918765467035","-0.11856916075441246","-0.017459351252765713","-0.14564839121333759","-0.12568793422376703","-0.2734337479474315","0.044127469789259216","-0.6568057555911582","-0.2622607429959558"
"-0.0052861977258348725","-0.019908022726190047","-0.07950673446127346","-0.08130540581087921","-0.05216281834008963","-0.5651991442710536","0.11113733587177038","-0.600213027414825","-0.3641628340465511"
"-0.03658020035387143","-0.014409109963020516","-0.09699963405168732","0.06486698863114498","0.1463748109133615","-0.5021660573894648","0.1936439773786918","-0.5334905877936291","-0.32981660523332323"
"-0.04204121750443928","-0.0009769270445170123","0.012558289743259628","0.055383936363664656","0.17110052367966863","-0.5376949110253457","0.26593845812206146","-0.4683626397887543","-0.24487504315545683"
"-0.021257694261843405","0.006048296841919371","0.04703764555448649","0.015003051825614616","0.1286887028998713","-0.4923649943174977","0.32076038408583546","-0.3991546691185876","-0.16802856601543054"
"-0.009385917847565489","0.0073766632315559995","0.06742070940636474","0.05993908381204101","0.08163921288223638","-0.48375843580742656","0.3611567402996973","-0.33408534212901875","-0.10588626552016518"
"-0.005412830007587156","-0.011341974456994575","0.03737686324160866","0.12569627750625287","0.09305759561977932","-0.5030542787303618","0.3847946788502956","-0.2585345776027518","0.008973012966036864"
"-0.002316670718743465","0.008949981189733816","0.012827557346594486","0.12450031123483171","-0.004897745420943947","-0.2871552362481855","0.4085040311125271","-0.19715837457745566","0.0512375229899133"
"0.019282047837632814","0.023067351214709673","0.010189950146085923","0.07266870437398505","-0.05379447247235434","-0.1866943397605223","0.42385797911367074","-0.15424779137352373","0.01766586288628631"
"0.05576797401751361","0.006028800696668134","0.011158781819015706","0.0017166522213987333","-0.06973705976272919","-0.014834536492904345","0.4324752336507464","-0.1412456501786712","-0.007402379861939154"
"0.05556377946318802","-0.03460511683866134","-0.013934945951006252","-0.03356278144297907","-0.029492254657124767","0.006512485161061103","0.4316896828227813","-0.1430746258562158","-0.02929236513326959"
"0.030313302481779845","-0.04248904191172171","0.004816941093646057","-0.06301585153894879","-0.041199892436724415","-0.07127457075926916","0.4322609925158469","-0.14925328086945955","-0.03550154364773352"
"0.043788560163746236","-0.05112765647837836","-0.027840775705739295","-0.06619083645074349","-0.027739145369079336","0.01330033390484035","0.43264186564455753","-0.1455953295143703","-0.059946763738236555"
"0.03770387902554834","-0.14624433402171905","-0.028832014696859143","0.009591522689454204","0.004527494286471127","0.11485374264180695","0.43999747794277977","-0.1518443297459811","-0.07666734479549124"
"0.013767211967320251","-0.15199158478064462","-0.0018236005767487916","0.0745167778021592","0.046035273202779566","-0.0013069254710426873","0.4334750256136118","-0.15350916658066918","-0.040681471893189707"
"-0.014150457448495695","0.012902586783224973","0.039262306142533746","0.055940889999552754","0.09479472396627464","0.16028166998037469","0.42676213672008834","-0.15945333753268928","-0.004834516205110069"
"-0.07015358405344942","-0.29619533109550455","0.021971831985938606","0.07725702460945193","-0.03528854215734425","-0.02313266779942953","0.41286026752215366","-0.18398037033668535","0.014845422476326411"
"-0.0018782064431761439","0.11786312446483312","0.04097855480187114","0.08908399617530147","0.11449283252092184","-0.09203444747857958","0.41081307445533427","-0.15855057389697813","0.07735816887618349"
"0.011297882473150436","0.04023653719402523","-0.08068216920361673","-0.10398162469148946","0.011334256720903121","0.27999859257224335","0.4051713912363097","-0.17402652193774046","0.09695391530657642"
"-0.047359773338035795","0.02247762910400847","-0.009031920902976658","0.0276445026113444","-0.015369736799890248","0.3926403727590358","0.38641338964731514","-0.22385438494777068","0.08600892267091124"
"-0.0044472588592258866","0.00275072302684448","0.035455720545601095","-0.04445043935331827","-0.0033469548529227195","0.4518142910560375","0.3613709814345973","-0.28498437970878193","0.08754543125245652"
"0.006408293493989845","-0.013209347178328982","-0.001956525345672907","-0.04265910885043051","-0.05100420007770774","0.3873723013578535","0.32552129819471726","-0.35341855297691044","0.054521020780612814"
"0.029346148429896676","-0.04798795467489123","-0.007417834423183797","-0.01763373286296309","-0.021711134216383474","0.33055676386254396","0.29419448335827525","-0.4029415867073499","0.030905094362889074"
"0.006129702474134793","-0.02831281255658289","-0.025410151359698287","-0.01160501529330285","0.0002511541370811864","0.27058344635873494","0.2671524912198266","-0.44040041548783143","0.019076083091266256"
"0.008731995864144493","-0.03800283214423266","-0.01120619033752115","-0.04945778426782321","-0.03945796980776405","0.2789756066141068","0.23618274494155042","-0.4767923417897453","-0.003613728564978128"
"0.010856252390539313","-0.04500306097265464","-0.009483865117318654","-0.06283078230570696","-0.03171040934427796","0.23568247332590192","0.20609376777341756","-0.5130904744671697","-0.04552884074702374"
"0.030482673158623557","-0.07301526437705874","-0.017400484569385026","-0.020158356554167464","-0.003863458883821793","0.17872910838114284","0.17564772204711862","-0.5377230250987165","-0.05412697438484921"
"0.05749650466343247","-0.09005544360533217","-0.0004563743821007236","0.003048277732658468","0.022228464575602933","0.012981799355001418","0.16560219327737805","-0.5479934269803132","-0.04604662309094174"
"0.03911108025652074","-0.024449060362871984","-0.00033674209006901833","0.02836033643803444","0.03175470383361461","-0.13549297370612393","0.1681968914667187","-0.5415333910936011","-0.03440704438416699"
"0.0031760045022624426","0.036651762099442854","0.0038086117750931047","-0.05678024053401349","-0.036407208065850905","-0.035632392331618634","0.18750239817823422","-0.5312395408058819","-0.03689071578995259"
"-0.0420095594340012","0.04636919562168907","-0.032671641593495795","-0.054864948563576973","-0.061740196611061615","0.21982619097478506","0.17336248327485518","-0.5478058397313343","-0.08221982375181525"
"0.0016516684106691682","-0.026946953579924656","0.008681254018797187","-0.007609440385058586","-0.08335921434003023","0.3113528059059083","0.1394171656785282","-0.5742790902434868","-0.11225330450533581"
"-0.01655647080178934","-0.05518814396742847","-0.023685927214225442","0.04903833138048188","-0.05842734742772691","0.2695267692462885","0.0990446140352107","-0.6070716862056174","-0.12193120376279518"
"0.013585178062301325","-0.1216620976106468","0.005927812376797611","-0.03820522569948836","-0.07948223791997718","0.11909882808485271","0.06459940045745102","-0.641341531753457","-0.16082381413237629"
"-0.02266647839633775","-0.10241590293955344","-0.008927480013107702","-0.08873960199147964","-0.07551257203893355","-0.27986569558841","0.0827860923533794","-0.6267917957545281","-0.22525824866230304"
"0.00046449076924135976","-0.004145171591672199","-0.04331701665904727","-0.12624231076538692","-0.009521830858463956","-0.5094862263713403","0.1521050017786983","-0.5750294392394025","-0.2999262513065768"
"-0.06260313425396863","0.009717732616873117","-0.06809419358650279","-0.01710122233335221","0.09359615335001753","-0.5296090339909728","0.2320883588079122","-0.4990448791998717","-0.2943001041305896"
"-0.043117591899333806","-0.008727813905565212","0.02867940571837661","0.010913196364586784","0.1661624127406892","-0.5152137226040211","0.2919092445860118","-0.4328852013256128","-0.22444158382718032"
"-0.04593516016832245","0.002558664226230553","0.04496724733222985","-0.04898201666349873","0.1552314487204242","-0.4801749221217386","0.3422559112874367","-0.37109865119317537","-0.17556377248383082"
