"AccX","AccY","AccZ","GyroX","GyroY","GyroZ","MagX","MagY","MagZ"
"-0.06119435011947431","0.0039077523252533195","-0.00828944112227194","0.009641281870089974","0.1363355834315918","-0.5303441137213704","0.22973170632401588","-0.48824688818052164","-0.1971169887509869"
"-0.03751411343179464","-0.04346626805086562","0.04890998587104621","0.03433143811432694","0.13609267312003034","-0.654266304937555","0.29488481590406285","-0.40995266013793774","-0.12657019679529635"
"-0.030802602498922846","0.0040946508558255615","0.042389266385210095","0.06205603140926459","0.18278259195278812","-0.5891811204752732","0.3563958261908155","-0.30702588146380705","-0.04002898194760196"
"0.004570542505059633","0.026044181995006143","0.056790525742976036","0.1294762292984088","0.15471206812004612","-0.5549999130117877","0.3858420799542496","-0.21973918967329525","0.06677099330745354"
"0.01946249883912984","0.007003511204166724","0.036751547150084204","0.16155780628726107","0.08870119095322339","-0.3966514877553185","0.38634197593568226","-0.15468158688678754","0.15073171566066226"
"0.03178698566067222","0.014963792148000133","0.013200696162217185","0.09893980581350942","-0.02483540828942706","-0.17662374745407602","0.39526868988983543","-0.10337530187074208","0.1723691241788619"
"0.03527095631238231","0.03694686504245166","0.02681405344681177","-0.0006949221032734944","-0.06253924368856636","-0.020600318128210022","0.399196444029663","-0.08553809933345737","0.1584984508194323"
"0.05160968646547253","-0.04101191461228965","0.012006462059697508","-0.03812229373176207","-0.042291390744595904","0.07907067393249688","0.4010770051026712","-0.09339800506567485","0.13014671028050728"
"0.003752181384235404","-0.07610336348012901","-0.018574020386457956","-0.07040639931548273","-0.028479062962848738","0.02400493247875447","0.4069091248860515","-0.10173039618125804","0.11261367400068203"
"0.01029273873674158","-0.07548413107512693","0.005954397330582431","-0.06471028258480897","-0.08082303891603015","0.07032935080518618","0.40926577736994785","-0.12083029538823219","0.08272542488021162"
"0.02964056848497077","-0.13109249111182433","0.0036168203227883067","0.03086226295912425","-0.05219478022318982","0.10686587623815372","0.4118366709887442","-0.13369995308849342","0.049995687287020495"
"0.027426086457827466","-0.16580175747970144","-0.02745529387585935","0.10206503154466837","0.015083385608555426","0.06947482061859907","0.4107416607437014","-0.14231255265723888","0.05639429836633244"
"0.01649297183203846","-0.0497118073856913","-0.003198422472478237","0.03934052896499454","0.034155041254438884","0.15116668132344524","0.4035764850098341","-0.14954638594598915","0.07868419683011989"
"-0.10360033547127502","-0.01830511384449195","0.07700648417106398","0.02910934305181499","-0.024982432951687932","0.3324250915106377","0.38829395072032336","-0.18226863668975252","0.09779583781701223"
"-0.03403172568360645","-0.18799091865894274","-0.04096614717436073","0.17517610835599834","0.10845842899160593","-0.07512761367943624","0.382961726918376","-0.18612589949688194","0.1288627784520927"
"0.013972989425167733","0.12879160886248706","0.03787779972792555","-0.03799309445572533","0.10301372220548856","0.05232602307486654","0.36886942115608606","-0.1616574877081918","0.2043411315126609"
"0.02107547752794974","0.026089334357870878","-0.06611741238007413","-0.02755065026686409","-0.014419350205906092","0.311138407651209","0.35156349837030054","-0.20394668814988096","0.210297733273994"
"-0.03612115833251938","-0.04033462916931863","0.005692345643274889","-0.060676297080986215","-0.007418898759886945","0.3187342315319836","0.33616194122806803","-0.2430586295619894","0.20309929580976807"
"-0.006140965627662858","0.019233915607493657","0.014998598608179396","-0.11254544156933002","-0.052391345804256","0.3872804163915538","0.3145235866032002","-0.30355551735769676","0.1722849319278183"
"0.0032741445206204696","-0.014605845258359718","-0.001652697302417781","-0.05854450902638003","-0.06119364841004836","0.4018594977111049","0.2907666251998804","-0.3652131012564611","0.13315658325531518"
"0.012494557535709643","-0.028001583769693826","-0.007182367689661075","-0.050865008814926053","-0.05842734742772691","0.4167142339295551","0.2512510380961614","-0.421020307827695","0.09339679269998524"
"0.016502469253169862","-0.03883976344161829","-0.014225481517368964","-0.03667927749332471","-0.055092124926222064","0.3584285369734505","0.21440156289341625","-0.474599915817304","0.053384425391524534"
"0.018050548897591723","-0.03390203004548189","-0.016447224083672073","-0.009020156804486756","-0.02211225584929086","0.33144498520344096","0.16943472913502788","-0.52230569807326","0.016445075246154427"
"0.013934999740642048","-0.017408516924749352","-0.007685582886302377","-0.004892414528729232","-0.019897776778694184","0.32093947072317613","0.12608660617365933","-0.5612769490486342","0.014108740279695121"
"0.008485062914727524","-0.017394003665257115","-0.003682648416416091","-0.035966062570878664","-0.037871062311839614","0.3193774262960814","0.08347642489916729","-0.5994626784189092","0.0021113445059851845"
"0.027202897061239024","-0.026163237567343896","-0.0009216110733351345","-0.027685960319470133","-0.03118783255558985","0.3012240197874722","0.03912850997493337","-0.6389263459228531","-0.024640743263111897"
"0.0045673766980158055","-0.018569577684128258","-0.007028554742763168","-0.009564015919154917","-0.01166918997455023","0.2064875567002798","-0.0022676382017935395","-0.6656927015115354","-0.040445733590267686"
"-0.002235942639126395","-0.0406587586313119","-0.020710311315595555","-0.036737766354773785","-0.03901050344436139","0.1551943056795817","-0.03352303932660267","-0.6894107643043097","-0.06572445696610216"
"0.0046148638036729184","-0.06423474238425576","-0.001215944490238539","-0.038747338877993864","-0.05232102966143557","0.01177871886291745","-0.047234471960182184","-0.7002673763389657","-0.10380250730683664"
"-0.04403567594203799","-0.08865249518774934","-0.015043918308887457","-0.0634959839836799","-0.07162600705395042","-0.15846421528104693","-0.03421337187239056","-0.6946866556818422","-0.14837809462185927"
"0.0015408651641358846","-0.08255692620101009","0.049435988170931644","-0.1414057663380771","-0.06013251389112205","-0.47992989554493937","0.026583501298029867","-0.6577905886482975","-0.22936893531950575"
"-0.03930279441154584","0.06579438715985335","-0.036864468590416526","-0.1340029970084045","-0.05623476224705386","-0.6847414854269528","0.12284918457961966","-0.5812901636740746","-0.3259374472664904"
"-0.060244608006332065","0.01470255347713988","-0.035324440196167116","-0.07150284722563237","0.10377281692911806","-0.497939348939679","0.2146872177399492","-0.5013662714059861","-0.3627105177160494"
"-0.03305032550002615","-0.047607384759317035","0.016226633580511206","-0.013098663680457307","0.12733671524473325","-0.5454132481945199","0.27707899713684514","-0.4355348712174403","-0.32292546948540635"
"-0.03200560917556971","-0.0028654246213345603","0.0356773251246503","0.006301044100499624","0.19401719386250496","-0.5070972172475483","0.33168668196571915","-0.3683903602860419","-0.2507011469276725"
"0.0019191791058708924","0.002953586142858183","0.049715130185672286","0.13928839053255027","0.22332624066537932","-0.4934982422351939","0.3691074668615301","-0.30065963920158434","-0.13046198359978575"
"0.016605357982093616","-0.006515670642070795","0.051399476900467894","0.25755810619104563","0.1611284161524093","-0.5427792124939287","0.39298345111757227","-0.21545985555596325","0.008951964903275919"
"0.021437962434465694","-2.281040393943323e-06","-0.0002455936770924822","0.19096810094724562","0.07036306052448929","-0.33677311805001925","0.4017197285073705","-0.13754080201133714","0.10503637140675993"
"0.024823793067817738","0.046393384387509465","-0.014354608435752394","-0.004081689071598699","-0.0029264962807397186","-0.1274959188058407","0.404385840408344","-0.10119694494197416","0.12324294569493383"
"0.04056576859315026","0.0035000909919602817","0.04709461331259683","-0.0808610650574826","-0.04648638790149586","0.11491806211821673","0.40926577736994785","-0.10243736562584739","0.10760423506358913"
"0.033556671798160576","-0.07207028992567535","0.03593519917636309","-0.012546947853057181","-0.04207724612782463","0.07904004561039699","0.4099799144862801","-0.11981497940313371","0.0883452576373705"
"0.028784217679620857","-0.08041057638054715","0.013120751408335681","0.017429030123628775","-0.07754534780410563","0.1426428192830438","0.4080041351310944","-0.13689597084297206","0.06580278242045234"
"0.033379386603707366","-0.14701353677480755","-0.035216201455757476","0.08067731355210019","-0.0233459845369582","0.18766951560210288","0.4036717032920116","-0.17497618238569632","0.03742999381876639"
"-0.002109310357374083","-0.1689785487241132","-0.0430967413276873","0.0019904150117036057","0.06215524894436048","-0.027423695725625148","0.396458918417056","-0.18195208320710055","0.06691832974677976"
"0.032067159584049175","0.04873324433453557","-0.0025698782079941924","0.03468848205959063","0.1155619575106232","0.08388850899881074","0.3959590224356233","-0.17625412051936534","0.08520909628599721"
"-0.06888726123592644","-0.2196782018836587","0.021619771240816727","0.1037935083457004","-0.12252530589100323","0.2752542654789693","0.3778675488218724","-0.21182535260699634","0.11025629097146188"
"0.00511664422011641","0.07667126885709044","0.04192934668473266","0.1312570841843206","0.16328584326167211","-0.3155783191568903","0.3708928096523609","-0.17050926101938538","0.2001104708977211"
"0.01836238089140673","0.11625699041435897","-0.08801012182187629","-0.12220046854883222","0.014127725303859738","0.33441593244713097","0.3518015440757449","-0.19644319819072348","0.22320019574642247"
"-0.026497104919344715","-0.01598783007889822","-0.015450288316741185","-0.02327310666835045","-0.027521804563998043","0.5067002442590535","0.3239025873976972","-0.26908636035781697","0.22048499565026702"
"-0.005982675275472489","-0.03818021642691555","0.04290007728293278","-0.0993199751371909","-0.1079618738564016","0.37956207922237967","0.3008835676812541","-0.3214232028229404","0.18240905011580857"
"0.017303418435253164","0.016081151870463523","-0.015454086167281875","-0.033272956039977736","0.000412242027906144","0.4180925084240505","0.2710326362185653","-0.38106422379518134","0.14786917912518052"
"0.017724470772079556","-0.01741335467791343","-0.01214805727161204","-0.03802277537049053","-0.03725579606216095","0.40740322401118634","0.22556590647874425","-0.437305225879679","0.13260933362353192"
"0.011437177983077975","-0.023670182103455305","-0.004068130246296032","-0.013723708826689095","-0.0462738413788796","0.3101889296661122","0.18740717989605649","-0.4979662525182429","0.08903984370848002"
"0.003514745855949837","-0.009892261092158973","-0.007305797832233469","-0.020522384244081787","-0.021057513706984585","0.32697325017685597","0.14577298601388552","-0.5380747511905519","0.07740026500170533"
"0.01844152606750193","-0.015258941935510351","-0.008864815479186335","-0.06728903029705577","-0.0514181064638552","0.3069116992014232","0.1097566707801946","-0.5708556229496211","0.05416320371367765"
"0.0057608859535312135","-0.017394003665257115","0.0006582947515915191","-0.07301919278290138","-0.07072468195052507","0.3505876865158768","0.06405189533492947","-0.6140475870270216","-0.0016983548537367285"
"0.026010970709245546","-0.027588762166359106","-0.005913885609070925","-0.019090716590701714","-0.054361795897382714","0.3111077793291091","0.011205748726341646","-0.655516093254428","-0.05139072622593289"
"-0.010034908291546022","-0.030752652735666616","-0.018000544954813902","0.004660998966106241","-0.029242951968943283","0.21015070402342753","-0.034570440430556654","-0.6920604341961372","-0.07209991517637712"
"0.005100815184897353","-0.04936993949542974","-0.0188873430560648","-0.025013805022521103","-0.046821987674047855","0.11531929313772538","-0.06368343020636869","-0.7077825905011844","-0.09462976155563872"
"-0.002740888862613686","-0.06308658229998107","-0.011147323654140466","-0.06252698941340436","-0.06772505922157222","0.0035369436690560765","-0.073824177258287","-0.71229640867974","-0.12397076104432585"
"-0.01935821003555895","-0.08787522951272068","0.00815050440573589","-0.09090456283317634","-0.0826992014540113","-0.15082244891712251","-0.053114200884651123","-0.7061060294634351","-0.1981020380881968"
"-0.01383387674411493","-0.037049794770909146","-0.0006519636849462105","-0.08605958998179866","-0.04848560368941276","-0.4098216662582744","0.0009459788217015765","-0.6717541144941672","-0.28026525588162504"
"-0.0384321974744988","0.02804217405177067","-0.06036746666147086","-0.02880335946357165","0.042103961581456184","-0.5558268777084849","0.09390282679761852","-0.6101434274076475","-0.32419256286361214"
"-0.058107688251762046","0.007879934693215114","-0.01246897564230027","0.032520029345568614","0.15095494876161875","-0.4893940470738076","0.16793504119073033","-0.5493299861292882","-0.2737487756508521"
"-0.05416625848222179","-0.012872317041231492","0.07462333295678159","-0.003460834172157291","0.13183055600862","-0.5087205183188428","0.2322787953722674","-0.4860075653958356","-0.19872506074591928"
"-0.019168261612930497","5.78683572794362e-05","0.08530098975192892","0.01805232933369791","0.12415810597041936","-0.5336826008302592","0.28767203102910727","-0.41923822896239515","-0.143619127631621"
"-0.010620582594650383","0.008991585866944894","0.06451155589219693","0.10435220791775117","0.10442643743851696","-0.6250775139763528","0.34080383248422774","-0.3380715711698212","-0.0659896625568894"
"0.0007193382362678556","0.0013193931240323756","0.034084696500412334","0.1528630441972211","0.13694445730465044","-0.5731012513728271","0.3760345968899528","-0.24394966899463938","0.04290249013659904"
"0.018503259304856173","0.016749245582422804","0.0010247873287680166","0.08296099805285766","-0.027612895930833586","-0.4046761081454916","0.398030020072987","-0.17095478073571035","0.09367041751587685"
"0.0338194337827966","0.037674140601451495","-0.012780399386636766","-0.03282861528658112","-0.02534360223072009","-0.22151874198810556","0.4085516402536154","-0.12212464740618685","0.07338008501437446"
"0.04373632434752342","-0.010700165870560127","0.03775455947788019","-0.020742372200576776","-0.024852987325132168","-0.01665569652496424","0.41462180574243984","-0.1126045945205058","0.06868636701869493"
"0.03853332047102588","-0.06699226168778068","0.02144469033089096","0.001222552287366342","0.008237469867325698","0.008042063566729976","0.41571681598748267","-0.11673034157773629","0.0656343979183652"
"0.02405925066673825","-0.07112209030551592","0.015890903592714292","0.035251546472048034","-0.0582084085284906","0.06326339689673988","0.41274124466943163","-0.13157669991411308","0.03896650240031172"
"0.026306973667841526","-0.12629021480428215","-0.02678497325542773","0.034215333359510144","-0.010886443457426575","0.1217910575974337","0.4116224298538442","-0.13878356753582263","0.026569193434144763"
"0.013146713786733976","-0.18660409608524017","-0.05376300457121257","0.025920390650719008","0.10022984218746199","-0.04111486198750026","0.409741868780836","-0.13628631228379054","0.06475037928240761"
"0.048347322306828956","0.004604227522441859","-0.012875345650153998","-0.012353148939002074","0.09828496160081543","0.0014076627166712135","0.4061711831991748","-0.13379843639420735","0.10074256660353745"
"-0.038527171685813","0.0271471897164161","0.1195974790596216","0.12951987770247528","0.08771516685958253","0.48893581744111303","0.3832235771943646","-0.1612940374132951","0.17068527915799034"
"-0.03939776862286004","-0.30069444153809777","0.0008291980259225297","0.19549007560853146","0.0717725795692077","-0.11718336275480527","0.36272784195562824","-0.18204587683159004","0.18954434339175194"
"-0.010525608383336185","0.1897569742362077","-0.05006959492039244","0.08673222016420029","0.1857550470811058","-0.09547707088260805","0.3408276370547721","-0.13731804215317467","0.2952477145769649"
"0.010110704831722654","0.01836892534175637","-0.12564492175483466","-0.1260327984258679","0.0014848828247485259","0.35548821805186037","0.32883013350039014","-0.16838718026531116","0.314401451689379"
"-0.033525196556597255","0.007007978062921557","0.03908152845679695","-0.08772695901713765","-0.041105604881578856","0.3625327321348367","0.31992722411678126","-0.22367852190185292","0.29181688034693903"
"-0.03740331018526139","0.035227850084815666","0.032852673785012804","-0.149533099175253","-0.09556226130768282","0.4917536230743036","0.3031688064535175","-0.30368448359136974","0.2242525988844672"
"0.026227828491746357","-0.04399519573013823","0.0026901447908601736","-0.08428135400013083","-0.0867999110557657","0.46752662029328484","0.2614155897186237","-0.3889780608614803","0.15456246308314506"
"0.02457369431135694","-0.0338230134104686","-0.01319436509557188","-0.0014330166160374288","-0.041127978199748984","0.39867415221271557","0.2253516653438442","-0.4475990761673982","0.11901228507999398"
"0.01199594292630998","-0.03663213541441035","-0.020408382197610778","-0.006946246533672706","-0.036530261315786634","0.3191323997192822","0.19009709636757488","-0.4885282690539901","0.09899557739438321"
"0.015566973271724778","-0.03136865997189265","-0.014221683666828274","-0.05431847054466482","-0.03287382188912488","0.30402651125961283","0.15555666450763772","-0.5294457377375208","0.07657939055403043"
"0.023346944081881576","-0.05511396508557926","-0.02037799939328526","-0.10349276256594503","-0.0634533535452318","0.27630481692699577","0.11744554706603884","-0.5733294297955309","0.020149534292071905"
"0.03470427685154077","-0.06865483619183574","-0.02118504263318169","-0.03159423841958147","-0.015709331807829765","0.18451173559360345","0.08183390953160288","-0.5995447478403374","-0.014811297953774087"
"0.015234563532124984","-0.022005995015012204","-0.002567979282723848","0.039759553644032615","0.014375429897886217","0.17610732400939164","0.0517925415045589","-0.6189952007188411","-0.000540711401887534"
"0.0068736671294295235","0.017334129939959926","-0.015093290365916417","0.022683425005149915","0.012810895720131905","0.17184386157308593","0.02879732635866013","-0.6404270439146847","0.0019219119411371477"
"-0.012884134630972717","-0.01695215554293792","-0.03730122140259577","-0.04236666454318519","-0.027435507479627527","0.19313667109693455","-0.004909945532223062","-0.6651064913584762","-0.008644215564831982"
"0.011247229560449521","-0.06993845336470464","0.002587602826261567","-0.06029655596560797","-0.057343839590630455","0.0401053225570075","-0.017359735926949095","-0.6774051803696577","-0.0538807120505467"
"0.0017197332621110102","-0.09747978212780506","0.004718196979588139","-0.10538710330242965","-0.08349665043736106","-0.13038723241207104","-0.013170131511132898","-0.6722699794288594","-0.10645245840843326"
"-0.010620582594650383","-0.10914683017517503","0.019180411838532134","-0.11449216039069439","-0.09608643619052595","-0.39518132829452346","0.043199091538027534","-0.6435105093197759","-0.1921264930703788"
"-0.03531387753634845","0.038319174356662","-0.0380057226778936","-0.12304724758772165","-0.053853601956089694","-0.6017081042141311","0.11882621215761462","-0.5895440026291479","-0.3027361676851562"
"-0.0858559869907343","0.01773711477852769","-0.042781519732810115","-0.04707458140579419","0.08831605026186612","-0.546883407655315","0.20421320670040935","-0.5168656678528708","-0.31587226365423055"
"-0.06190665670433098","-0.01835510396052076","0.02708022580195596","0.025875869278571214","0.08279463495630826","-0.5239427944024918","0.2657004124166174","-0.4519018586908526","-0.2801031857983662"
"-0.039350281517202955","-0.011566123686930224","0.05705827420609462","0.05579859620229609","0.14612550822518006","-0.519134147832808","0.3385662028530532","-0.3595151385687259","-0.20765575377536685"
"-0.008974362931870553","0.005626815660420948","0.0592876124734791","0.1451110876350168","0.18741706500231567","-0.5102519344238378","0.3729161981486357","-0.29030716789855926","-0.09103054282352577"
"0.031337441060451554","0.014743351862156943","0.04765289734207812","0.18683896192255797","0.11335339138840006","-0.48807702922351204","0.39096006262129746","-0.22330334740389507","0.007541744698296028"
"0.04363343561859968","0.018576142435617747","-0.005551190882435116","0.1349497391683436","0.038083156687452255","-0.28704803712083593","0.3991726394591184","-0.16488164355001725","0.060561814792989596"
"0.039635021322270876","0.04440829300584914","-0.018598706414972428","0.002552257268847152","-0.03602845975111365","-0.1433430126603276","0.40643303347516313","-0.129050134154428","0.06388740870921095"
"0.041281240985050746","0.0037248852556511416","0.05136529624560169","-0.060212751029800345","-0.017177181289206","0.0840814674280401","0.4078613077078278","-0.12169671399445366","0.0762847176753779"
"0.04459425805639523","-0.05641370810232842","0.018339187943769503","-0.017910463744744483","0.000230378913066062","0.023002467496424827","0.40769467571401663","-0.13395554071522722","0.07024392366300111"
"0.012209634901766991","-0.07351194036857082","0.028123476356230543","-0.0009864061456293523","-0.0480557163617152","0.08237546988707581","0.4066710791806072","-0.14822155100007542","0.049237957027628294"
"0.03163027821200375","-0.19829533289843052","-0.04264669603861565","0.08082920999825148","-0.00035708049831543277","0.058920300822974433","0.4090277316645038","-0.15748367141841044","0.03753523413257091"
"-0.03202143821078871","-0.14950497965430815","0.016065794610113024","0.024310637508747755","0.08816263322298519","-0.1865932662975926","0.40293376160513483","-0.13247477386859974","0.09901662545714411"
"0.03516331887289285","0.053271056802441444","0.005449283208670786","-0.003156866686238424","0.08396124368946521","-0.007084039585525322","0.3984823069133308","-0.12033201675813189","0.12690530861532948"
"-0.029599595822276035","0.002061343200963256","0.07630198289576615","0.03364615817048343","0.020913233086030106","0.4500684766963433","0.3848660925619288","-0.1554436600857645","0.15498342433836296"
"-0.02285642681896615","-0.3073382892167659","-0.05927178678048207","0.17048826975925996","0.027788234140881014","0.07346569098821568","0.373701748976601","-0.1916597233417606","0.13334601582016326"
"0.01302799602259122","0.13787690930462698","0.02172003449509092","0.15169326696823981","0.23815655442386754","-0.10161192379921746","0.3637514384890382","-0.15013259609904833","0.23892309862881073"
"0.03109209101455649","0.08496962811787356","-0.1177757754345269","-0.07917798259667969","0.07753051280970695","0.41261003876816893","0.3316152682540862","-0.18219829147138542","0.29535295489076935"
"-0.061210179154693366","-0.018600216787500755","0.0273775025530284","-0.08532018601691271","-0.09943763963358089","0.4697624878065773","0.3096674542121409","-0.2653346153782382","0.26070784358633664"
"-0.002373655245532007","-0.01123231871860879","0.0480231877697953","-0.1482847548189521","-0.09067688747581876","0.43499934222319386","0.2878148584523736","-0.340615723234098","0.19177543804440672"
"0.013222693155785375","-0.018371229804401028","-0.00656901482733979","-0.054662419968708575","-0.030789907110992484","0.43261033309940183","0.25603575677558776","-0.40067881551654144","0.15209983974012037"
"0.01960654305962308","-0.02705822190269847","-0.01185562277997898","-0.01729240234316333","-0.029880591536792074","0.38792361115565166","0.21363981663599546","-0.45348462610411233","0.13067291184952964"
"0.006109124728350036","-0.015184763053661145","-0.013794425481000754","-0.027925153573754365","-0.02426169248777865","0.32697325017685597","0.1752906534889525","-0.4997717797896651","0.11583402760309892"
"0.015809157510576044","-0.030418847767345186","-0.009533237174347611","-0.033557543634491094","-0.022646019297064033","0.29677372458635715","0.1346800561401907","-0.5430692616946161","0.08931346852437168"
"0.01272724435342951","-0.029198121385609305","-0.010583342848848142","-0.07869872312002989","-0.03130928771137057","0.2508128644432512","0.09349814909836329","-0.5814191299077477","0.049237957027628294"
"0.030371869912090288","-0.04072164942244493","-0.011115041924544608","-0.07514836193326357","-0.03299048276244058","0.1893938901363271","0.0645279867458176","-0.6127696488933525","0.01219336656845372"
"0.015359612910355395","-0.01609264806411993","-0.006802582635592167","-0.017395412576760187","-0.0015994388944198237","0.13788317802871974","0.04286582755040547","-0.6314111317606345","-0.013527366125359543"
"-0.00404995007522805","0.0008452933139526559","-0.00146850155119436","-0.011414708251573062","-0.02396125078663686","0.2080679781206345","0.0119436904132184","-0.6513657253707689","-0.018010603493430085"
"-0.0024907901061528904","-0.05016978135189076","-0.021454690021570615","-0.004517649331414558","-0.050054932149632095","0.21351369378999627","-0.022287282029641517","-0.6763734505002735","-0.05833448213075205"
"-0.0008414046363292041","-0.06601342296424872","-0.001899557587562573","0.00836535172241905","-0.058077364807779815","0.11218601578690589","-0.04980536557897854","-0.6940652729195996","-0.06923527383461936"
"-0.02914055380092393","-0.11136574629309916","-0.015380028081738441","-0.021249566655829107","-0.09052187234278283","-0.0866009831380578","-0.052709523185396165","-0.6982859860216257","-0.08766916720061088"
