"AccX","AccY","AccZ","GyroX","GyroY","GyroZ","MagX","MagY","MagZ"
"0.028836453495843684","-0.2529135661208798","-0.030453696877733378","0.01931726008354408","0.06817367153212626","-0.08075403644918738","0.4299281446024951","0.1470173304866496","-0.2528270012665228"
"0.014159772040752359","-0.014336543665559335","-0.022567460229992512","0.0554598845867403","0.004541078086788708","-0.3336184008737298","0.4142171280431851","0.19033826079772292","-0.25045067498081786"
"-0.044747982526894665","0.019888786127471123","0.044339082852799874","0.08201208174845269","-0.046010155843303036","-0.4172949768506493","0.3910552809034749","0.25027238684649344","-0.28342457010203537"
"0.011196576647748608","0.031878512310885135","0.03413444834249536","0.056351184997777526","-0.06691162929667238","-0.4381222358785795","0.35591973477992733","0.31225824843097105","-0.32854530224256523"
"0.014180349786537115","0.02654408315529428","-0.026748893675291183","-0.025248633436398688","-0.07252253787491077","-0.4307408102525042","0.32302181828755433","0.3598702370624376","-0.34038904715812063"
"-0.0008303243116758758","0.012132416479503633","-0.0028794030270603557","0.030138572419702248","-0.054291479754562305","-0.4510473878047362","0.2781025936702546","0.4209298866050817","-0.3583346254680594"
"0.009469628905351652","0.030412673102169267","-0.0005114432149407133","0.045093388620954716","-0.07815422167716427","-0.41934707443134245","0.2224237031668823","0.47579915693142083","-0.41013811753517326"
"0.008999506559346246","0.024773465497241454","-0.013619724356129051","0.008423054912594917","-0.040945795466077906","-0.45242566229923153","0.15036726812895643","0.5358856976199867","-0.44878236076417577"
"0.009084983349529044","0.05379675931293801","-0.014937578493748166","0.005189755732967406","-0.03740441881857684","-0.41227193202626616","0.08557122710707525","0.5899459979351042","-0.46271407350561194"
"0.02412098390409249","0.06456721044056536","-0.034813629298444435","0.007435204231762666","-3.2028147186499316e-05","-0.2901261834918756","0.03196333424106638","0.6258103350992648","-0.47216465368525373"
"0.011796497082550098","0.007274038361102009","-0.01922725067945647","0.009140198191406948","0.024235670834294874","-0.22568113096148157","-0.004552876974056968","0.6535849721512087","-0.4647136394678969"
"0.009366740176427897","0.0017794634499362664","-0.006745614877481829","0.07328240093515956","0.002434949799901678","-0.23731989335944256","-0.04485401490574129","0.6768223426184744","-0.4818046664297434"
"-0.011047966545564404","0.023462434389776105","-0.004563749741855956","0.07706147975923415","-0.022473425128323007","-0.17974783630826555","-0.0936533845217795","0.6963783133245287","-0.5285313657589295"
"0.000899789237764881","0.09287774195675431","0.004323220523356477","0.06530521860797231","-0.030304086487869596","0.020405492065574536","-0.10750764457862562","0.6974334916000352","-0.5765419969165302"
"-0.03257545444345501","0.11553132743974716","-0.012322758396483736","0.08979110032117822","-0.04529740585016879","0.32326722320276835","-0.08101315756269828","0.6766464795725567","-0.6408648767138242"
"-0.025626507982297674","0.07064665358342435","0.03832499662909169","0.15660807726612386","0.00947823016927508","0.6208826290474708","0.00830159111992376","0.6100881787942175","-0.7009149997706565"
"-0.05400796813003143","-0.06218030987391032","-0.07585320224113055","0.09191241275880845","0.07486169557084106","0.7087246568299763","0.11335116093240064","0.5091896872496716","-0.7501043224428673"
"-0.08718562594913344","-0.020266016460331878","6.772899251436988e-05","0.05638435778486804","0.17878735656526432","0.5971150510979504","0.22761309954556308","0.41049534588062825","-0.7045984107538131"
"-0.05020899967746249","0.03030462994817151","0.06442610425503142","0.07780175669220142","0.12623243218362168","0.5866707932618854","0.3084058119732874","0.3253541832503131","-0.6587346819978238"
"-0.005175394479301589","0.012067106811788568","0.07621653125860064","-0.014606279556913031","0.14785624419505533","0.4757656389381572","0.35649104447299346","0.25986278495054166","-0.6016733838530384"
"0.017442713945180675","0.014677397160686667","0.04770226939910708","-0.11814989665146419","0.09846235005202147","0.47640883370225506","0.39641130927596685","0.1983810640976949","-0.5266580881732098"
"0.03596901676554185","-0.00577162420543548","0.039200780963774585","-0.15303370118138357","0.056485210882386734","0.34332877417820107","0.4216203494824959","0.1494442405203146","-0.4684601946393362"
"0.03425948096188584","-0.010708228792500258","-0.002852818073275531","-0.14869504981717688","-0.0105380589316345","0.19399732694794164","0.4291902029156184","0.11682750760410185","-0.4412492591020516"
"0.03851590853228493","-0.029836704803267704","0.009238968370697381","-0.04467042730981326","-0.04361141651663376","0.08405696477036018","0.4342843810121217","0.10026120867864946","-0.4510513419298003"
"0.04623098029804368","0.015364358109985855","0.023040737020615543","0.022221624890126707","-0.06677419319934157","-0.0836147217333178","0.4312373959824375","0.10321570785006774","-0.4681444736979228"
"0.027212394482370453","0.07819999885693933","0.011107131051662335","0.030083575430578505","-0.06331112316543595","-0.06115803596967308","0.42733344641315424","0.10996884881330947","-0.50148460511118"
"0.023356441503013005","0.14340807375555703","-0.03892290358347001","0.011139295097651073","-0.07338391062446088","-0.06540618424492883","0.41764498620157997","0.11894958835817611","-0.5358350435369599"
"0.022037882869267184","0.21868673815739872","-0.09445697311469599","0.044548656538205215","0.07625203748569934","0.0741456397388334","0.41538355199986116","0.12538617583876588","-0.5611348149755553"
"-0.007755527220004659","0.047975329672163225","0.004890999179189494","-0.001276580735863216","0.13362042146223066","0.05703972184604074","0.42845226122874164","0.10789366487147996","-0.49904302983091614"
"-0.10165336413933349","0.3139420979581097","0.006560154491822339","-0.15638589861368812","-0.02191569026822469","0.1284435291575314","0.4317610965344142","0.10796401008984709","-0.4533055894514921"
"0.01917757620518716","-0.23388507034217","0.044643290681109074","-0.1487910763061231","0.14252660018809862","0.07549634874343887","0.4425207624204872","0.09025225652531703","-0.3653204774984003"
"0.01819459311808496","-0.059396989220177006","-0.06556482512640387","0.017952810972426365","0.008354929787718896","-0.3726695115510989","0.43287991135000164","0.12567928091529545","-0.3594880593073564"
"-0.039255307305888734","0.01052257348493702","-0.004651100304291808","-0.0035322429612100288","-0.021672779956663245","-0.3970496559426172","0.4121699349763658","0.1849568515926397","-0.3451795862425002"
"-0.008325372487889993","0.009185095993508042","0.03284412862129625","0.05836686829756692","-0.06333030029529607","-0.45757122041201437","0.38998407522897666","0.24574684446487657","-0.36275050903529504"
"-0.009243456530594149","-0.002016398941038737","0.01973242941462129","0.01821382842874383","-0.04101291542058831","-0.4557335210860205","0.35808595069946847","0.3039809610697754","-0.39421736286283254"
"0.0030129654395063456","0.025873248049875355","0.010591003163182691","0.01372851842687382","-0.07258326545280111","-0.4930694457257953","0.315094896296266","0.3707268490970936","-0.42138830708087144"
"0.027286790947899937","0.05399188202388919","-0.015068604337401937","-0.011435659485524967","-0.07570913761999971","-0.3906177083016387","0.2604157977557589","0.4288437236713806","-0.4611775649240667"
"0.007380196256438715","0.01703838196319591","-0.016071236880143853","-0.04568743512456191","-0.018142430158831744","-0.3802653354318734","0.20706975516573836","0.48123918715181","-0.4743957483379085"
"-0.008800243544461099","0.00476705016810087","0.016600531966242043","-0.007455536112320228","-0.019311436033221198","-0.5186440946792097","0.14505884889755308","0.5421464220546587","-0.46412429371059194"
"0.03154321851829904","0.09456128005785372","-0.029261171807957006","0.028813406872244353","-0.0654014303201884","-0.3530367570850647","0.08433338943876581","0.5909425551953048","-0.4831938385719624"
"0.020918770079281272","0.04579511557955173","-0.02945486218553215","0.004097323475991904","0.031655621996004024","-0.24382534897346078","0.0370099031964811","0.6218006576523398","-0.48944511321194817"
"0.037544005769836054","0.03194301568640619","-0.02504745663306248","0.03737809671816624","0.009454098947534437","-0.10526281979352524","0.010134543051843362","0.6408993844390081","-0.4911289582328197"
"-0.008309543452670964","-0.00533122740906551","0.0008140066237597709","0.04649362942340693","0.02063676279721346","-0.09385376981131348","-0.012027512125001184","0.6497394335471404","-0.514850124964348"
"-0.012235144186992184","0.029170983123389053","0.018195819085858492","0.07428806016485094","-0.023707153815990346","-0.08996703573683651","-0.028595493223909984","0.6573015445216038","-0.5484007370052141"
"-0.02189085567060491","0.0661475431408311","0.012788059700971317","0.05522069133245607","-0.07535116452927759","-0.009437213572460435","-0.03264227021645958","0.6552849815950802","-0.5907073431546123"
"-0.03483900647977735","0.11631826862110398","-0.06906074654910817","0.039978668632446264","-0.03456780169343496","0.159886564625286","-0.02745287383777827","0.6443814727481795","-0.637918147927299"
"-0.005555291324558496","0.060648630377661564","0.013473761616092731","0.08463884270517259","0.0289132924260077","0.5608204894095721","0.04172320816427402","0.5922908385473409","-0.6654279659557881"
"-0.0505097513466242","-0.04549167404222659","-0.041883328079937145","0.0454565433427877","0.07816975047171075","0.6550944648330561","0.13727475432953162","0.505824840971112","-0.6920116692227981"
"-0.06866565474285989","0.016115177401050878","0.021410889461078827","0.050037006865522614","0.15478877663948656","0.6015561578024355","0.2293746377658498","0.4254788773928209","-0.6493051498809429"
"-0.04742308947891194","0.03303957307026404","0.046114767873099045","0.02145254001047558","0.1252272309601207","0.6163802656987859","0.3160708836885869","0.3393646059084275","-0.5903495260876771"
"-0.00916431135449895","-0.007786709656713089","0.044667976709623546","-0.03294035520099127","0.10122865103434293","0.5580026837763815","0.3742492540991221","0.26157451859747444","-0.527815731625059"
"0.0210232417117269","0.00408658793388543","0.037973505561550915","-0.049240415215572216","0.06973500952157057","0.5143573247840278","0.410908292737512","0.18806376540385336","-0.4778055345051734"
"0.033998301880771714","0.004907619149205119","0.025750598327660718","-0.11111377391594995","0.04217747391258662","0.3142624965053985","0.4230962328562494","0.13483588350607986","-0.4383846177602938"
"0.04067340603263971","-0.014213987252069338","0.004285242017949586","-0.13326097413927462","0.007954287583058014","0.1604531885841341","0.4300233628846726","0.10719021268780894","-0.4146655558350417"
"0.04273751222520217","-0.02185279949814971","0.013033780630953902","-0.059686351276758774","-0.01955690329543066","0.02873241399487362","0.44133053389326693","0.09292771966387914","-0.40461300106043846"
"0.04539995594904422","0.015608503386333029","0.02145361527966158","-0.004186096054125684","-0.049268669825367414","-0.08933302946936862","0.43761702088833887","0.10272329132149802","-0.41726078197346"
"0.021268591757621996","0.08590492706292878","0.0136604259701676","0.015584448567779938","-0.059577975219333744","-0.027294444206363577","0.43587928723859726","0.11020333287453314","-0.44413705331284636"
"0.01999435442248949","0.14351450432516677","-0.004533366937530447","0.02624862664929883","-0.05563867312723531","0.021618067337509466","0.42195361347011795","0.11627647006022623","-0.48342536726233226"
"0.011411851526727518","0.22149263499256439","-0.08147022319080971","0.023469096278346292","0.062014616658719636","0.08857157944788505","0.42745246926587627","0.11191506652146595","-0.4831938385719624"
"-0.003095459251520109","0.03641471219440299","-0.002674319097863143","0.03976653738868325","0.08173350043738195","0.06684078491800789","0.4363077695083965","0.08695892788543055","-0.44322988180785183"
"-0.054102942341345654","-0.00013322289270167555","0.05140897152681961","-0.04859529180346985","0.017945572240177458","-0.29165453676466047","0.43864061742174826","0.10496261410618406","-0.42120729374112775"
"-0.0604662144993986","0.28789886009148563","-0.03400468713327766","-0.1198085360059899","0.02187848195565585","-0.09246324398797814","0.4212394763537858","0.1412372983774861","-0.4474984289357612"
"0.025395221239225","-0.1737195468249104","-0.004709966987672486","-0.1133136534808998","0.08639514108754469","-0.0018070859709340109","0.4300233628846726","0.14206971679483013","-0.34853254264031075"
"0.018177181179344006","-0.052777330307329215","-0.05716967650621067","0.01614052923558671","0.0024592408310578234","-0.3600200145238413","0.42133469463596324","0.18005613471306492","-0.33419039267503714"
"-0.0497024705504533","-0.0001930497734974504","0.004938472310948107","0.03222845800640463","-0.04984078753286082","-0.41150622397376874","0.40224342905934724","0.22463155475168495","-0.3499806493582603"
"0.0029654783338492322","0.02239022703017745","0.03822701208514191","0.0787393244115491","-0.042753239955393665","-0.46483013274969","0.36777441091104324","0.2861953450259599","-0.3873956857220266"
"0.00933508210598981","0.010340996482845264","-0.00034623671642074","0.02277770555793348","-0.05039053192218409","-0.41554916249095514","0.32806838724296883","0.3421666904400504","-0.4186331156654703"
"0.01819301021456306","0.032523546066095636","-0.006143655566782614","-0.015034906884845725","-0.038797956921745126","-0.3766818217461855","0.27753128397718896","0.4117850082173585","-0.45698900043464863"
"0.0003062004170509909","0.020809410554595308","0.0035522568635965954","-0.025452907967429748","-0.021810216053994063","-0.3954263548713226","0.23246923193662286","0.4609563158559624","-0.4568648168643593"
"0.00012258360851016535","0.010891855309795032","0.00427384846632752","-0.005060548181193257","-0.03468606066090567","-0.4804812053427375","0.1831461617686074","0.5092483082649776","-0.44710062054958033"
"0.008144738657518231","0.05138917082161481","-0.018944310814175136","0.024507928295128177","-0.053495628865367566","-0.45031230807433864","0.11327974722076721","0.5688893292372186","-0.47186998080660114"
"0.028828538978234154","0.0698935766742161","-0.03157406278723665","0.015580956695454621","-0.027649652096398806","-0.3088400882949129","0.0514116683758485","0.6099474883574834","-0.4999480965296346"
"0.01324643670861393","0.02432677962175818","-0.018929119412012384","-0.014451764206517745","0.027653994231860213","-0.2542236643263759","-0.003933958139902246","0.6491766718002036","-0.4964962142368478"
"0.015354864199789667","-0.010796920933841703","0.000679182929565311","0.006754114534709536","0.011844048756351153","-0.24374265250379107","-0.047520126806715114","0.6764823407297003","-0.485088164220443"
"0.01016768935851117","-0.018266411819179318","-0.012539235877303014","0.02239447257022991","-0.0028045616967124934","-0.2482940211678358","-0.08298893691788448","0.6969410750714655","-0.4876349798145112"
"-0.021463471719690888","0.026034506488677982","0.005443586432859753","0.0434190358409651","-0.024892939679007405","-0.1900021985473112","-0.12726543813048496","0.7207177588795458","-0.5080726487553399"
"-0.02690865983503971","0.06216284711801822","-0.02891936525929499","0.09268062467037826","-0.047443646300346566","-0.028558475059426346","-0.14957032073059612","0.7253488190887133","-0.5662284461636917"
"-0.025768969299269015","0.17137351221270836","-0.002252757687846656","0.10079049814592757","-0.03847034761996818","0.3125473104678043","-0.13266907564406577","0.70451491024899","-0.6402334348309974"
"-0.015242660878609277","0.07426368036576725","0.049971485097168804","0.15180675281881262","-0.024860977795907215","0.7356163236336862","-0.02919060748752014","0.6272289636696678","-0.7237942439917491"
"-0.04764469597197848","-0.08763172927012872","-0.019825412139614997","0.1039419129195264","0.06764470236681813","0.7626611320478955","0.08859440756621517","0.5290387630322555","-0.7693422518063251"
"-0.05878833676618066","0.01589973612681057","-0.00897495314486632","0.0683902878073901","0.1873371602945652","0.6327970463443309","0.19104927918935113","0.43571410666523414","-0.7370334754683519"
"-0.05305822601688921","0.019999570674928524","0.03488604296449773","0.0459419135960068","0.1581080181994413","0.6329808162769301","0.2822683935155262","0.34512118961146865","-0.6720581057254701"
"-0.014609499469847773","-0.0046732929787507965","0.04695409284259133","-0.04914613466278865","0.12295314297754217","0.545628841648023","0.36777441091104324","0.24559442982508117","-0.6061987173466308"
"0.009977740935882743","-0.00817308487608418","0.03900481187587503","-0.11587144995919468","0.08218895727155966","0.5385230709208468","0.40543324151229776","0.17461610449267578","-0.5458328733483849"
"0.024632261741667383","-0.01338189370784779","0.02440891267789878","-0.13636874050880698","0.07901034799724575","0.3684439983001169","0.41809727304192357","0.13424967335302068","-0.4868351534295972"
"0.04470347839940659","-0.014336543665559335","0.00965293407963249","-0.10318722373747977","0.021247234764427095","0.21739430220005324","0.43097554570644886","0.10177363087354215","-0.44668386890691464"
"0.04668685651235196","-0.030668798347489253","0.014422084896102793","-0.027729608723536598","-0.02527008989958965","0.057275559926209946","0.43152305082897013","0.08530464283349756","-0.44553464468016973"
"0.0447525484085856","0.022657754780151","0.01046149645974519","0.03238821116528789","-0.043855924922350215","-0.053559149256688546","0.43376068046014443","0.08342408066248372","-0.4674498876268133"
"0.02423495295766955","0.08397950130362544","0.014446391139563202","0.03150651340314528","-0.03853267329201355","-0.03809797226066037","0.4309041319948154","0.08699175565400188","-0.4861195192957268"
"0.016763648334283985","0.12060129275570171","-0.024523353258447386","0.010727254163263639","-0.0511320476101085","-0.09329020868467537","0.4247387482238136","0.09820830072263621","-0.511061473667387"
"0.017732385289689057","0.22199253615285255","-0.11208469639930434","0.04191665777299734","0.07596917482026265","0.0009016828355809097","0.41971598383894315","0.10662745094087214","-0.5118402519895401"
"0.021197361099136326","0.04224581734150593","-0.01690866292436579","-0.004450256195535934","0.1002665983530272","0.01869673797562126","0.4283808475171085","0.09826223205671766","-0.4576414903802364"
"-0.14864976970465496","0.10505436667074057","0.14870230667819231","-0.10778776552608524","-0.12712941515158563","-0.27792998563169646","0.4225249231631838","0.13154138244588726","-0.4177154201290953"
"-0.009496721094098774","0.056430109618584884","0.039877178145071315","-0.235092700826339","0.14732248074728216","0.22424279502159025","0.4310945685591709","0.12620687005304873","-0.38501094021121723"
"0.015503657130848636","-0.15806135241717545","-0.06749793105161461","0.04729937896247388","-0.01024848427074678","-0.2538408103001272","0.4266669184379109","0.1309434480897669","-0.3321866171002"
"-0.0531057131225463","0.009778688306740509","-0.015239507611732943","0.010791853801282008","-0.0036128777203163023","-0.3232966563260644","0.416478562244904","0.18098234675489844","-0.3428706137576301"
"-0.03423750314145393","-0.0074859626683461905","0.03352299440544442","0.1021348689911747","-0.03968969346024043","-0.4999914465203721","0.3913409357500081","0.23928680857816442","-0.36505527190761305"
"-0.0026395830372118313","0.00762975835125672","0.03469235258692259","0.05532108266180894","-0.0990892551077888","-0.48562676345552025","0.35153969379975625","0.295586431677968","-0.4265219295882537"
"0.006764446786418169","0.006802357427604329","0.0058632489176058955","0.008969445634698934","-0.10060584646089284","-0.5511101161051007","0.29931246602532313","0.36781924673792005","-0.47237513431286265"
"0.013589926772867026","0.03453121362918833","0.0020046327682657953","-0.005649365152049879","-0.11071219389717298","-0.4908642065346028","0.24099126819152106","0.44211552153664047","-0.5192702181441359"
"0.01540393420896868","0.01757279242938781","-0.02128948352305064","-0.04081016245417503","-0.06689564835512228","-0.47334480629346143","0.17738545569686048","0.5038903474660167","-0.5443384608923614"
"0.01312138733038352","0.039167393744763815","-0.04473171598545395","-0.019973287320925646","-0.02177505798258385","-0.44672879438865065","0.10271051789904964","0.5653134473035576","-0.5412022995409881"
"0.008955185260732931","0.07846930044973971","-0.017250469473027812","0.05071530306471549","-0.027616092119143603","-0.2731090877331726","0.04136613960610767","0.6018577882452667","-0.5679333392473243"
"0.03513482660949859","0.07892082407838706","-0.04710157472284393","0.022795164919560067","0.024691127668472583","-0.10975905747779016","0.012491195535739958","0.6185999502166368","-0.5876974701798042"
"0.01747120620857496","0.026553758661622438","-0.02865921249725779","-0.003474714364650427","0.09491298293374537","-0.03333220534191634","0.009634647070410937","0.6298786335614954","-0.5666494074189096"
"0.003611302970785964","-0.02140288845389039","0.011805555766095056","0.046854165240995935","0.05181398166729395","-0.07025771046555257","0.0067542940345373505","0.6367372923522878","-0.5413496359803144"
"-0.03692843912869025","0.01589118942955403","0.052656565429435975","0.08960777702409906","-0.050750103107061226","-0.05465870602007485","-0.005671691789644117","0.6385662680298324","-0.5853190390878232"
"-0.019975542409101425","0.06334003372127739","0.022523659669500724","0.04732382206875111","-0.09095655395294543","-0.01667928033298116","-0.009266181941849893","0.625693093068653","-0.6180277286182535"
"-0.022650649361118668","0.11051941516176154","-0.02232629672065876","0.015032732740379811","-0.09572047262902877","0.2339305333017878","0.0007079331162575134","0.610885424602378","-0.6735104220559718"
"-0.001427078939433594","0.03352496097105994","-0.004054837769403621","0.09999609719191789","-0.032504662139317686","0.4996251018539772","0.03955699224473289","0.5704955450566007","-0.7430953175434895"
"-0.036817635882157","-0.0391719558255517","-0.035295956317111944","0.08992204553337761","0.015247989306521402","0.6037613969936282","0.12142091034695501","0.4892702662487208","-0.7893379114291749"
"-0.04830951545117804","-0.00012080599291387351","-0.013972924456413138","0.07560013119108888","0.13630841583095663","0.5423209828612341","0.20442744783530886","0.4071070511959462","-0.7819921375256227"
"-0.056160716919820476","0.024839581457150525","0.03024715842157306","0.04614269625471254","0.17778055724760836","0.503269872183865","0.29676537697707106","0.31358308337688473","-0.7148277692556079"
"-0.024898372362221973","0.01862484248413614","0.04553749459091431","-0.03350865742193665","0.15163733496580784","0.4512323529361395","0.34796900821809473","0.24681374694344427","-0.6457059311488299"
"0.012284031367296461","0.005956831055430522","0.04616413993012801","-0.1088789756277469","0.11842734033055524","0.4387972541635811","0.37889114535528184","0.2039500605517571","-0.5758895069709424"
"0.03290134974009243","-0.008188726944648037","0.03542666698896482","-0.1477784333317811","0.07617532896625889","0.3265444536674574","0.4026957158996908","0.16007809269680814","-0.5106194643494082"
"0.03789857615874249","0.004684211708087961","0.02499024966016206","-0.16804875218024776","0.041554217192132904","0.21017214384889746","0.4164547576743594","0.13245587028465958","-0.46143014167719737"
"0.03749651866417894","-0.013775364298526195","0.01346692548511949","-0.07825001752622662","0.0005095659619462239","0.09551502006793176","0.4284046520876525","0.11448266699186516","-0.4176775336161257"
"0.03252145289483554","0.015309207723915358","0.02299535270665431","0.014728066879995885","-0.05429947022533735","-0.04939063461889251","0.4265955047262777","0.11273576073574881","-0.4309967477312198"
"0.02138889242528668","0.06316748719175858","0.016113837419452742","0.02412033046701797","-0.05004054930223701","-0.04589900589950422","0.4196921792683991","0.11944200488674579","-0.4678918969447921"
"0.015737926852090373","0.09683502404497074","-0.006286074962058451","0.006840974858801802","-0.061516463429360284","-0.06756241812076161","0.4149788743006059","0.12757860181120723","-0.4906448527893192"
"0.027934198488358555","0.21525193341090282","-0.11083330464614728","0.08187851763200932","0.011959111535511838","-0.00781329993472388","0.4075994574318392","0.12993516662650512","-0.5126821744999759"
"0.005830533708494984","0.08549694321275815","-0.025311407245640374","0.02551271455673822","0.12929118439630988","0.13980051099217333","0.419454133562955","0.10987505518882","-0.4726277110659934"
"-0.031609883295093774","-0.004655877067360113","0.056800020369327756","-0.11832449026773006","0.08976871784876975","-0.19858119156749243","0.42626224073865565","0.11587784715614599","-0.41511598437812486"
"-0.059801395020199044","0.2923012154707973","-0.050232902493642075","-0.20588318882506018","0.07075938787493166","-0.041289443423469664","0.4174545496372243","0.13542209365913904","-0.3943394416268457"
