"AccX","AccY","AccZ","GyroX","GyroY","GyroZ","MagX","MagY","MagZ"
"0.030443100570575955","-0.06003396005344737","-0.007826103356307875","-0.04123180603745708","-0.020526307209859422","0.17932329782988085","0.2544408505491122","-0.43149002116133195","0.053784338583981524"
"0.014278489804895142","-0.015047693380678911","-0.0030465084508506735","-0.022884635872158908","0.002563276760548942","0.1263791802479983","0.2408960499093436","-0.45062392055718353","0.045722930546558876"
"0.013460128684070913","-0.004175971953483499","-0.012389220780945792","-0.01608159561435957","0.0002784815471318486","0.20274783857188233","0.2134255755010957","-0.47060196257344034","0.046417516617668395"
"0.02242094552156789","-0.036512804169696406","-0.00706273539762937","0.0003151019668245209","-0.010744852315292732","0.15476550917018317","0.19440572363611283","-0.49407381710192994","0.04102921255087935"
"0.022444689074396448","-0.024366818559082647","-0.0006424690585944889","-0.02290646007419214","-0.006604829597325102","0.1284159636676415","0.1795754761869462","-0.5126332305477835","0.03637759068072166"
"0.00829511449209907","0.018918816618073327","0.0060170618645038025","-0.008005156816325163","-0.021281246888685917","0.1763921674049207","0.16338836821674804","-0.5322126496599602","0.025832511237513414"
"-0.018535100204168993","0.0031667697989552542","-0.00024939152763317084","0.002542130839103732","-0.032456719314667405","0.25591248007288414","0.12894315463898837","-0.5599052172904757","0.020423159107963516"
"-0.0052703686906158155","0.0002921768688596501","-0.026936887277055295","-0.02235037940638537","-0.05700983791223347","0.3352122688217283","0.08402393002168884","-0.594667479366885","-0.003803161129826194"
"0.009322418877814582","-0.06859194540070272","-0.01239301863148648","-0.03594947617733341","-0.05891956042746983","0.2227481329031153","0.04331811439074956","-0.6293593962249273","-0.03974062348777771"
"-0.015780848076056554","-0.04616250914764551","-0.0221914730264643","-0.06773948182702168","-0.05566903691618049","0.11078936429915057","0.022179655747314436","-0.6514712431983196","-0.08653467661779864"
"-0.04034751073600228","-0.0680194779429534","-0.003754807576689184","-0.07619854253510273","-0.09609922094376602","0.05240259388011628","0.011062921303075315","-0.6645320054084781","-0.1609648361528743"
"-0.020672019958739015","-0.13113119313713698","-0.035324440196167116","-0.03005606866027922","-0.06110894941983286","-0.11749577164022423","0.01303870065826125","-0.6631133768380749","-0.21217477285013092"
"0.008496143239380853","-0.015363759920732058","0.032006512684547274","-0.07015236560381591","-0.05554917985455478","-0.526576830103083","0.08042943986948281","-0.615149662114773","-0.2722122670693068"
"-0.011617811813449737","0.04519684677159399","-0.05074941016717578","-0.0764534492148509","0.03651382822723292","-0.5069440756370489","0.16593545726499984","-0.5461410028966461","-0.31231724585391546"
"-0.02284059778374712","-0.03254584657515181","0.02762988871070989","0.02238836179366061","0.05655073274274213","-0.49019038344840493","0.22623243445398758","-0.49455450942743845","-0.2924857611206005"
"-0.0486419251907778","-0.015339571154911663","0.03396886205892132","0.0269566037632569","0.0793219763574726","-0.5667305603760484","0.2913855440340351","-0.42379894395319556","-0.24739449626793591"
"-0.026069720968430753","0.024596081214558564","0.015265397608662802","0.05534028795959819","0.13594724655192447","-0.5609418074991678","0.34394603579608973","-0.34918611567182317","-0.18346100563171847"
"-0.004510575000102028","0.0075936042092771714","0.02784494199757641","0.09759543496826227","0.1504099986547605","-0.5413703096773335","0.38146203897407843","-0.26076217618437664","-0.07479196240349555"
"0.004735164471337603","0.0010107444721641496","0.039640761948913424","0.1006333638912883","0.08114699988249345","-0.32017256747187484","0.40145787823138185","-0.19673630326725308","0.00522645779459761"
"0.03103035777720223","-0.0026635290559536735","0.018037828503365827","0.0718777952923007","0.039206616878423944","-0.22649890716154888","0.4050047592424988","-0.15553745371025396","0.03616711005311274"
"0.04980042773993657","0.013340725961451704","0.033360066617248864","0.030514821662755185","-0.00402438696523125","-0.08475409531543397","0.4123365669701764","-0.13170332130717385","0.04768040038332205"
"0.04256972445188037","-0.04459346453809597","0.00509038633257567","0.02531193189803248","0.03616544370144085","0.0042790679135365885","0.41007513276845753","-0.12585763366086772","0.06325596682638412"
"0.025037485043274747","-0.033405354053969806","-0.002886998728141733","0.009356694275576618","-0.026567742353457366","0.04918968289183705","0.40348126672765666","-0.1349380289317544","0.06550810954179982"
"0.01830539636461822","-0.02935292948685983","0.02223350388819208","0.01005419577255874","-0.022646019297064033","0.10719359928462263","0.4002200405630724","-0.14661533518069325","0.05908845039972696"
"0.022531748768101146","-0.11990276804331015","0.00799137446808102","0.03596476139449409","-0.02581184381813787","0.15654807751639715","0.40686151574496243","-0.15795263954085778","0.05077446560917356"
"0.027365936123995124","-0.18118581254147198","-0.050109472351069675","0.07602963148710293","0.048731258042280616","0.09537106695406225","0.3978633880791761","-0.1725844449612149","0.06708671424886692"
"0.026420942721418608","-0.058719703777205964","0.0018831015509637456","-0.04304757964662206","-0.000496434308632262","0.12422600920437554","0.3923169231423289","-0.1857155523897405","0.08478813503077937"
"-0.08862606815406582","-0.11034981812864261","0.05157797587588028","0.16248315245347014","-0.012555652802334004","0.12279872939452033","0.37346370327115697","-0.2103246546151648","0.10411025664528063"
"-0.015622557723866184","0.027300385233278594","0.02059112342187109","0.031936886667240635","0.16020152154250378","-0.20150619632803266","0.3614900042873193","-0.18394519772750176","0.1873974409901407"
"0.018778684517667423","0.08898173807528288","-0.08062710037077674","-0.06210621879820364","-0.0030842281738391567","0.30491779543271985","0.3483022722057165","-0.19641974978460108","0.21667529629054516"
"-0.011934392517830475","-0.034730898420927386","0.015647081588002053","-0.035578464742768455","-0.011216449900436036","0.34069473847760995","0.3298299254632555","-0.25305937477317897","0.2112869922237561"
"-0.018218519499788255","0.028835565570679587","0.034725583779153614","-0.0732967966327641","-0.04821392768306114","0.41371265836376514","0.31083387816881697","-0.3075417463984992","0.1851663463374859"
"0.013798870037758308","-0.01720694387624607","-0.005049874611064159","-0.04033788672217587","-0.03471642444985085","0.42911870438001354","0.2756745274747251","-0.37329107716561666","0.14715354499131014"
"0.014612482448016837","-0.02684213559470295","-0.006481664264903938","-0.025757573827813678","-0.04088666598234256","0.40538175475259314","0.23827754714945865","-0.427855518212365","0.11920171764484205"
"0.00845182194076754","-0.029736724571210082","0.004729590531210205","0.03492854828195619","-0.03869088461335949","0.35646832435905706","0.19928566059771666","-0.4752330227826079","0.1081304366326115"
"0.019589131120882123","-0.027338811586215032","-0.00936043497474626","0.015635080716497038","0.004839122646697981","0.31662087730709065","0.157151570734113","-0.5137001330263512","0.12134862004645329"
"0.01674148768497733","-0.02476835207170118","-0.018486669824022098","-0.03577051772066091","-0.013654981771565045","0.2791869420365961","0.12015926810810126","-0.5514520668833623","0.11135079023502832"
"0.022180344186238522","-0.039170343241163676","-0.004239033520627042","-0.050069734892835054","-0.04097296306671307","0.2534407744794224","0.07721582284598769","-0.5860384659138539","0.08152568530284066"
"0.01938810237360037","-0.00990193659848713","-8.988180492422619e-05","-0.02990155330988393","-0.012950062439790352","0.18187769989301225","0.04726967310112117","-0.6116910222117238","0.056878403809833035"
"0.006117039245959565","0.0006812934816903863","-0.01394064272681728","-0.03502151110688035","-0.016724920643338307","0.20303268196741137","0.01922788899980742","-0.6388208280953025","0.033115140952783"
"-0.010256514784612532","0.0015188698128312233","-0.02646595381000985","-0.03878574947357235","-0.039950182807506986","0.2519399866965274","-0.016336139393539412","-0.6670058122543879","0.005963139991228929"
"-0.005127907373644475","-0.05587349233233963","-0.01378113300410834","-0.030822534635686356","-0.054352207332452655","0.16026941865153474","-0.048853182757202025","-0.6932211302991943","-0.031902324915620534"
"-0.00671081089554822","-0.09747655695902901","0.005768302654088671","-0.03329128836968566","-0.057474883311341235","-0.02364691732748681","-0.059827089778174546","-0.6980280535542795","-0.060190921266262944"
"-0.03745079729091848","-0.10994505944724803","-0.004822003578622814","-0.04741067411710597","-0.06603267751141716","-0.2893084072918083","-0.02573894475858096","-0.681965895360458","-0.10884983275689916"
"-0.006916588353395674","-0.014318805237291045","0.029286682019832793","-0.1551550136190138","-0.017633756789292215","-0.5739894727137241","0.044674974911780775","-0.6404856649299907","-0.17127838690571265"
"-0.06872897088373604","0.07201251256008258","-0.06656935659441614","-0.08902768145831831","0.0484276201528288","-0.5123040320045308","0.13475146985182412","-0.5704687242486021","-0.23381849578715888"
"-0.014277089730248008","-0.028528898864578416","0.04001257151684688","0.07419814445247401","0.08895688601802493","-0.4088415599510777","0.19407245964849104","-0.5199022364457173","-0.18448394148189795"
"-0.042231165927067736","-0.010675977104739732","0.03539001773124717","0.06156280444331354","0.12588884194029465","-0.5714779503015325","0.2726751515861295","-0.43351830829091675","-0.1073470010757713"
"-0.027478505102925044","0.02962089416764838","0.028867779105194787","0.0421445024422243","0.12527357569061598","-0.5188584929339088","0.3206889703742021","-0.3595503111779095","-0.03573307233810336"
"0.009027998822740501","0.013499888040549897","0.045156570181683196","0.06916199159128521","0.10412759383153017","-0.5479247706067114","0.350063810426003","-0.29680237639445495","0.03919803109068156"
"0.0054506368632380765","0.0038987218526803716","0.03938079907940324","0.0757136170416617","0.03966367180675666","-0.4340792973613931","0.37396359925258965","-0.22350265885593518","0.1024053635616481"
"0.012792143397827553","0.006564323846087772","0.022235782598516496","0.02183839190242314","0.006373133226091607","-0.3238479661238626","0.3880082958737907","-0.1675078650357224","0.11680223849010006"
"0.02441698686268847","0.0035731410647378706","0.03749497639342409","-0.005117989480944726","-0.032747572450879135","-0.1568899195251122","0.40307658902840143","-0.12564425316515418","0.10918283977065617"
"0.03516965048698047","-0.007730269203132169","0.014134587610172632","-0.013296827434919063","-0.04649118218396089","-0.014968688543701893","0.4072661934442176","-0.11339480580682958","0.08931346852437168"
"0.03513166080245478","-0.019221061776890862","-0.010154185737750274","-0.0065933055383912646","-0.07002152052232088","0.08302172748338364","0.40955143221648077","-0.12308720447751004","0.0727907392570694"
"0.032795295204124886","-0.07440047436637329","-0.0005911980762951878","0.0023800206664008785","-0.05713768544463424","0.13026897715468527","0.4075518482907506","-0.13810356375827396","0.05071132142089093"
"0.01956697047157547","-0.22878930367600706","-0.06885566261991094","0.030606483311294765","0.004523978479330105","0.03130243650227601","0.4066472746100629","-0.14723671794293597","0.03648283099452618"
"0.01303591054020072","-0.12926865816896665","0.013300389738910276","-0.05386889198278023","0.032924508755081565","-0.08257335878192128","0.4105512241793459","-0.14208979279907638","0.048774899646888616"
"0.04184633754237037","0.010272461646354149","0.024821758020924387","-0.017116935758816138","0.0484947401073392","0.03358148994972937","0.40545704608284233","-0.14027254132459294","0.06948619340360891"
"-0.09894659911687807","-0.03825117013998871","0.04280456134183444","0.15801355587706406","-0.03135243625355583","0.4558878578953238","0.3905315803514982","-0.16359198121328708","0.10387872795491074"
"-0.04237362724403908","-0.21324399017543394","-0.011772070068083822","0.1976113880461617","0.0953204969432728","-0.089219704677599","0.38396151888124136","-0.1696299457897966","0.12267464800038969"
"-0.004953787986235078","0.1721314268750807","0.02481268115813214","-0.031534876590051074","0.13426125721838944","0.12373901888298716","0.3673221240706994","-0.14804568795415765","0.21484411483034735"
"0.009447468256044995","0.022681943545971396","-0.04642175947606059","-0.1013801798091281","-0.0782612939855499","0.4374189796690857","0.3481594447824505","-0.22254127420491812","0.19524836839995435"
"-0.019627303634282573","-0.08329387726633809","-0.004233336744816009","-0.0105164240958852","-0.026856997395514087","0.3589492184491488","0.33006797116869957","-0.28143194618124323","0.16340264944272082"
"0.00047240528685088806","0.01749700096315058","0.010675125552658952","-0.05837864509092746","-0.01511627906690574","0.3689646797758152","0.30645383718864583","-0.32414321793313505","0.15178411879870699"
"0.011082607594171524","-0.013594754847067257","-0.00027027970560695845","-0.05688150483144769","-0.04298975789033506","0.3615832541497399","0.2751984360638369","-0.3786607621676387","0.12050669753601748"
"0.01200702325096331","-0.030960676121722007","0.005648670362056961","-0.053037826369354724","-0.053580327855583074","0.36032749294364413","0.2432765069637845","-0.43181829884704515","0.08165197367940602"
"0.014126531066792401","-0.031642799317857115","-0.01161256034537488","-0.025322835723311683","-0.04494902132437671","0.2920202089964531","0.21197349669788676","-0.47846890282749455","0.04850127483099694"
"0.008223883833613402","-0.016679628781361484","-0.011259360245090794","-0.02545639983975507","-0.02889776363146123","0.2917139257754541","0.1754334809122191","-0.5152946246426723","0.029389633844104663"
"0.015077856083456515","-0.02923521082653391","-0.012719633777985746","-0.04860052961195782","-0.03429292949877333","0.28569852331503426","0.14191664558569111","-0.5518975865996874","-0.0014668261633669188"
"0.024787386286813953","-0.03529530295673658","-0.015378129156468093","-0.04134180001570458","-0.022342381407612227","0.24914055805659682","0.10542423894111233","-0.5861322595383434","-0.03434390019588433"
"0.037230590872499116","-0.04163759735484385","-0.008481232574576739","-0.009851222417912262","-0.0028382814833831935","0.18142133789372383","0.07150272591532965","-0.6118668852576414","-0.047578922059934886"
"0.006851506480122895","0.006159952184946309","0.005661962838949376","0.016023551512688583","0.005512559523618987","0.18874150687559926","0.03696229405539223","-0.6348580474606225","-0.041079280279370606"
"-0.005634436500653667","-0.0060051264248216826","-0.014766675219417151","-0.011177260933451488","-0.03868129604842943","0.2206592813359023","0.0016125067969449004","-0.6590099057666606","-0.04502158243448617"
"-0.00345952706155796","-0.055647730518015956","-0.011477736651180412","-0.016552125410196072","-0.04408445238651657","0.12064862118310753","-0.021954018042019987","-0.676525865140069","-0.059580527446197004"
"-0.03696009719912834","-0.08335193030430704","-0.03805509473492256","-0.01175778470753548","-0.0473317797094959","-0.0364777340215758","-0.025905576752391593","-0.6815907208625002","-0.0917040808318744"
"-0.04286432733582921","-0.09090850074659806","0.0017938520632575538","-0.07770004763498915","-0.02186455125526439","-0.3460534996462881","0.01353859663969394","-0.6590450783758441","-0.12460430773342879"
"-0.016809735365293964","0.039035161824945666","0.005004934695410166","-0.1623919190132338","-0.04403491146771128","-0.5642496662859567","0.0933315171045524","-0.6058171964780706","-0.22228205258791253"
"-0.011649469883887823","0.02177131714205297","-0.030400526970163728","-0.08065155271796356","0.047620582604549","-0.56326955997876","0.18176549667703162","-0.5349912857854606","-0.27094938330365315"
"-0.03542468078288174","-0.04884907473809726","0.021649964152615206","-0.012781776266934768","0.1160669552636062","-0.5577258336786787","0.2530125763164476","-0.46618193801937413","-0.24922567772813378"
"-0.046014305344417646","0.00033894181611241175","0.022726085103319454","0.0027849905593295473","0.1474119740199627","-0.558491541731176","0.312881071235636","-0.3926946332318754","-0.18961545918300404"
"-0.015052712455980824","0.00976772273290193","0.0426714466803833","0.08559386978614687","0.13554133063655205","-0.546883407655315","0.3554912525101281","-0.3174604221882604","-0.10907925664099291"
"0.0045167237853148915","0.013057556142914295","0.03910735384047364","0.16785190615364542","0.10096656359292136","-0.519409802731707","0.3829379223478314","-0.23411306262630632","-0.0021403641717155195"
"0.016092497240996827","0.00031910702813968953","0.010937177239966497","0.1565469695004308","0.10916798279643015","-0.3320257281245351","0.39395943850989307","-0.16538578428164816","0.07748445725274887"
"0.026056874911380732","0.00703889130564002","0.003360465411291797","0.04503489975950565","-0.006428240193196552","-0.1259798168618958","0.40545704608284233","-0.12633715356607014","0.10067942241525482"
"0.03835286946952885","-0.015194438559989303","0.008077015997773555","-0.0192242807071451","-0.04912164516310654","0.01134318412265691","0.40600455120536416","-0.11946208089099208","0.08680874905582522"
"0.037335062504944755","-0.062438323375994524","0.01996124990969781","-0.025000710501301163","-0.0009934415908402186","0.01593498217187352","0.40838500825980506","-0.1282880609554511","0.07561117966702924"
"0.024659171101539767","-0.048104060750829125","-0.0009557917282013367","-0.0011348980162634683","0.010865216086407831","0.007111268858114096","0.396577941269778","-0.14140978902152773","0.08375677995549549"
"0.031736332747971295","-0.06387997381888999","-0.01305954140137742","-0.011623347623010767","-0.019138202626818167","0.02172465389841711","0.3991012257474855","-0.14138634061540536","0.08114682017314452"
"0.040268182731032366","-0.12926382041580256","-0.03195574676657591","-0.036990927098359286","0.015796135601689666","0.06502452541748398","0.40305278445785686","-0.1441649767409059","0.07624262154985607"
"0.01783843982565661","-0.16081887172070036","0.005071397079872222","0.03042403298229694","0.07794601729000941","-0.0769254961867002","0.39750631952101","-0.14060081901030608","0.10333147832312752"
"0.03357724954394533","-0.04085871909542716","0.019102745794975045","0.07572496562671899","0.02335192476657462","0.058056582139757326","0.39529249446038","-0.13525458241440635","0.13071500797505142"
"-0.04672661192927432","0.009995258390052435","0.01678624685768174","0.08795786735038667","0.03586500200029906","0.3568664925463557","0.37651068830084095","-0.16359198121328708","0.1571303267399742"
"-0.06439181523371983","-0.24636647350549323","-0.05600563531548947","0.15589224343943384","0.06228149838260622","0.040852653616244995","0.3680124566164873","-0.18618452051218784","0.16567584022089743"
"0.009865354785827559","0.10088744861208072","0.02077398992540527","-0.04150591801499449","0.09012029856287183","-0.08486435727499361","0.3625850145323619","-0.16083679349390895","0.22370534925268393"
"0.03202442118895777","0.04928313561085252","-0.036520763116484174","-0.11371521879831128","-0.07358047620552706","0.4074338523332862","0.351349257235401","-0.20538876512640653","0.20631964941218497"
"-0.031245815485055894","-0.08833320347892015","0.008278491968957113","-0.007569894930974368","-0.023782264241275795","0.34743296933958734","0.336685641780045","-0.26352908810681597","0.17561052584403972"
"0.014158189137230458","-0.017218231966962254","-0.0019223446908067051","-0.039359289503005705","-0.014542723074672826","0.34626909309979126","0.3117384518495046","-0.30421207272912304","0.1708747117228384"
"-0.0012181356745422835","0.009139459855326902","-0.011367598985500434","-0.040747308752319314","-0.030831457559022734","0.3730688749372015","0.2822445889449816","-0.35536477068506694","0.15132106141796725"
"0.008111497683558245","-0.015736266914366127","-0.004309293755629791","-0.06460378047888679","-0.05185598426232781","0.42057340251414216","0.2518461523597718","-0.4179837392348485","0.11307673138142171"
"0.012706666607644754","-0.03092197409640937","-0.008519211079983626","-0.054522745075695885","-0.05861592253801803","0.3181522934120855","0.21540135485628165","-0.471281966350989","0.06712881037438875"
"0.021583589558480835","-0.035029226532712246","-0.018845566700117222","-0.03593288978378815","-0.027966074739090685","0.25459239939037853","0.18193212867084252","-0.5091980390508568","0.03258893938376063"
"0.015571721982290478","-0.017677818517549734","-0.01153850225983144","-0.03022367853189445","-0.01359377476542818","0.227618036116999","0.14991498128861258","-0.5368319856660665","0.01596096980265389"
"0.014276906901373242","-0.01576851860212665","-0.0033332461666726967","-0.05263276917961792","-0.031306091523060554","0.2464330143829659","0.12063535951898965","-0.569120440896566","-0.013822039004012042"
"0.013689649694746953","-0.018211583949986426","0.009127881242382225","-0.055503088231028695","-0.0514852264183656","0.2633857906652591","0.08530937683108689","-0.6036364947086905","-0.05148965212090907"
"0.016269782435450023","-0.022720369898907838","-0.018063209488735268","0.0065534191728119275","-0.023409908303158578","0.25044226174584244","0.045674766874645896","-0.6349752894912343","-0.07328492110981548"
"-0.0018623774079571155","-0.02095781516279514","-0.014738191340361992","0.024285321434389204","-0.020772094090899886","0.1862085446379378","0.01151520814341914","-0.6581071421309495","-0.06971937927811993"
"-0.004827155704482794","-0.027949981069276986","-0.007729258167520301","-0.0071676312390978195","-0.04822990862461124","0.1556874216653901","-0.01957356098757909","-0.6769713848563939","-0.09114420236243459"
"-0.006979904494271844","-0.0390252106462413","-0.006105677061375723","-0.028531866390278233","-0.05432823592012752","0.0533214435431132","-0.03452283128946779","-0.6869838542706447","-0.12099456496993535"
"-0.032939522253492864","-0.09192765407983067","-0.03629858885985386","-0.018478765965689863","-0.06926082770453636","-0.019277480896715455","-0.036070128374854196","-0.6926818169583799","-0.14230783332161726"
"0.0069575610160904225","-0.06908700880782677","-0.004075725947377409","-0.04208731475715981","-0.040114786505472955","-0.34816685387118107","0.00013662342319165627","-0.6708747992645784","-0.17768541721012898"
"-0.017917767830626576","0.04333431180342366","-0.06208599403113267","-0.043615881867567444","0.029426280649765754","-0.5233302279604939","0.07923921134226249","-0.6163338066239524","-0.20355769595582066"
"-0.04436808568163776","0.009349902117964328","-0.013091823130973276","-0.0031401056990769008","0.11669660436067994","-0.454692158134624","0.15777048956826747","-0.5535272508251918","-0.18841782441190916"
"-0.040822381792573394","-0.015870111418572305","0.037813236268733834","-0.010562691404195653","0.12195753031897123","-0.5443412569210234","0.2185911673092322","-0.49185794272336625","-0.135644016651518"
"-0.045761040780913025","-0.003271795887117177","0.062145495005347634","0.016183304671571846","0.1272104658064875","-0.5389200439093417","0.2806258781479621","-0.42415067004503104","-0.07364484298302679"
"-0.009465063023660687","0.019131839015731598","0.04394885370974407","0.07898026360199599","0.08661248189262596","-0.5901918551045697","0.327187618132826","-0.34765024507080816","-0.007781244991635315"
"0.012079836812970878","0.005845965878753716","0.021935372620747986","0.13240940205167528","0.15829978949804246","-0.5721824017098301","0.3637514384890382","-0.2567524987374518","0.07449563234070182"
"0.00755431564384814","0.009099629020942652","-0.012041717456472742","0.08817610937071899","0.009974598213821033","-0.3539862350701615","0.377891353392417","-0.1824327755326091","0.13014671028050728"
"0.025865343585230405","0.02868398263820512","0.0154797862716847","0.024490468933501593","-0.03107276977642917","-0.20757979260044226","0.3879844913032464","-0.14136289220928303","0.13233570880764028"
"0.047874034153779735","-0.008596872053257482","0.04232812099150501","0.03871286491451876","-0.0323384603471967","-0.059387718952299","0.39893459375367435","-0.1196555302415016","0.12389543564052158"
"0.028801629618361798","-0.04906838621486883","-0.007115905305199015","-0.01341467812589852","-0.032399187925087065","-0.012488407020052206","0.3972206646744768","-0.11401736098937841","0.11964372696282087"
"0.034729603307891245","-0.056371780908239744","0.00943303853332659","-0.00846669504092397","-0.06352366968805222","0.07650708337273548","0.4035764850098341","-0.12336858535097844","0.09703810755761998"
"0.030031545654880993","-0.09824092195895345","0.0018299316433941","0.03995160662192506","-0.04980243327314059","0.09489939079372384","0.4029575661756794","-0.1457242957480433","0.059404171341140406"
"0.015462501639279123","-0.14794077279792267","-0.029823253687978994","0.03256629665387907","0.005278758348741095","0.10219811995012937","0.4021244062066252","-0.1575774650428999","0.060288189977097985"
"0.012630687238593384","-0.0765629500307165","-0.010649805233310198","-0.02963442507699716","-0.013611034182302284","0.15731684840110463","0.39760153780318747","-0.16430715760001927","0.07030706785128381"
