"AccX","AccY","AccZ","GyroX","GyroY","GyroZ","MagX","MagY","MagZ"
"0.026105944920559745","0.053483917941660915","0.013128916786998162","0.01103192002364757","0.06811454204839092","0.13251403316460775","-0.6097126693540208","-0.854968235731283","0.44327873997433676"
"0.03321951334799508","0.040536477890198104","-0.010042149146799946","0.04145573062605547","0.05503573948379312","0.06281622339408138","-0.6432533092510931","-0.8551675471833231","0.47802909159257373"
"0.021008995580029773","0.0448662669720486","-0.017180209238025056","0.07215278023791943","0.0731357538834308","-0.040964783209210764","-0.6596546583561907","-0.8443930045700955","0.5357007835574251"
"0.0034039426094165815","0.0967221431378089","0.0005614495628039499","0.04738580280252549","0.0326112823006997","-0.1374991288036672","-0.6593451989391134","-0.8278618782538266","0.5892260071583802"
"0.007733183741823266","0.12099153817760405","-0.019876683121914308","-0.048448633165806526","0.015923983134090425","-0.1552359901317177","-0.6332077804813523","-0.8204287335130362","0.5849322023551576"
"-0.03487066455021543","0.04352298417682273","-0.008838230525401511","-0.06660462332129358","0.014150098622029877","-0.3039028027724094","-0.5880029010175198","-0.811729374841638","0.5623055348871958"
"-0.03996761389074541","0.14045220657230492","-0.004242831371167731","-0.060929457824571716","-0.11014806666045461","-0.224373301607816","-0.4997355534388515","-0.7979299878386249","0.4946570611736805"
"-0.018107716253255","0.0008946383962262594","-0.004390947542254605","-0.03792325700921899","-0.06668949420912605","-0.11488623859731298","-0.46052942575221","-0.7910596048447713","0.45691788464339655"
"0.040192203361980976","-0.02547950178682076","-0.0015292671598453869","-0.011475816017266114","-0.05332623088493656","-0.3432050656909976","-0.39420989221548675","-0.7808947207907251","0.40513965025159576"
"0.035282036637035635","0.04116699838591637","0.01934827683243059","0.010494171685548713","-0.06770268590340209","-0.4047373647896914","-0.2961826707136108","-0.743775893899018","0.38103961839037137"
"-0.009686669516727227","0.036537268607892984","-0.02189713960956089","-0.05165417196044776","-0.03947714693762417","-0.3289935242366453","-0.22862529950857835","-0.7086736299338342","0.3737780367378627"
"0.008130492525821102","0.004849243594358568","0.0013627960268893448","-0.020370487797930485","-0.02148260675221711","-0.31263800023530014","-0.16682863437529252","-0.6857645371522816","0.3427110961027822"
"0.006398796072858417","0.018396016759475217","-0.002114136143111503","0.004586447491960717","-0.016027831972923165","-0.2587321533394808","-0.11236377696968487","-0.6546719506340228","0.3373227920359932"
"0.004947273543272713","0.0007474094415994626","-0.0048333971302448805","0.05408845173097195","-0.02190929789160465","-0.2658961178786468","-0.06073166345886193","-0.619124166952514","0.32757753897769903"
"0.006925902945652366","0.006440928888716004","-0.00564803607122269","0.06018089597056923","-0.01587457474345775","-0.23471342314874133","-0.016455162246261444","-0.5812315426587686","0.353340367797034"
"0.006294324440412762","-0.002926219052763151","0.0098751083362628","0.057719125981220566","-0.014448435519527266","-0.21418019601297014","0.017061673080266286","-0.5482513594476592","0.3900902853775561"
"0.005246442308912522","0.021929995445834755","0.022922244083746043","0.04410955359329658","-0.03409476582355215","-0.20893356443725775","0.052244828344902725","-0.5134656489651275","0.40088794157389496"
"-7.053062116208855e-05","-0.006815933855121283","0.008444647930112258","-0.003133034657618134","-0.02231041952451204","-0.26295886178926664","0.08321457462317866","-0.4826075465080924","0.40015125937726365"
"0.0038851452800753162","0.00457358841906936","0.00610441242693965","-0.015379729276970804","-0.044672551035560074","-0.28376161815951695","0.12703878899543558","-0.4534729019010512","0.3813553393317847"
"0.00511822712363831","0.011408527347718644","-0.010682086962906056","-0.020586110914018827","-0.03018103323793386","-0.2781505095508157","0.16507849272540104","-0.4202934072379016","0.3633592456712198"
"0.0074166030374425","-0.000655861492860986","-0.015454086167281875","-0.00447600875393515","-0.00898822722010628","-0.26548263553029816","0.19576258415714431","-0.38758288069719943","0.3501200141946172"
"0.0032044967656566998","-0.01009544672505028","-0.017823944904671856","0.04120344285055129","0.0007769271140793134","-0.24375490383263101","0.2221380483203491","-0.35319579311874794","0.35502421281790564"
"-0.0052228815849587025","-0.018784051407735747","0.0019267768321816693","0.06744311743914778","-0.005975180500251356","-0.19844948978246288","0.24268139270017433","-0.31527972041888025","0.3729361142274269"
"-0.03971434932724081","-0.015494379256162184","0.02402343084801884","0.07955904143991732","-0.037605778682108036","-0.16097880052544847","0.25339344944515824","-0.27601536436697643","0.3843441642438317"
"-0.04219950785662965","0.019438068791017782","-0.010408641723976443","0.07076650692476849","-0.05444010251097818","-0.09758429944308097","0.27241330131014085","-0.24710347961809773","0.37649323683401814"
"-0.0377040618544231","0.046025715147039487","-0.0017875209966122451","0.0519662663252604","-0.054938707887341155","0.010344394538979259","0.2869578939127748","-0.23109994243958212","0.36613758995565787"
"-0.010889676193374035","0.07200283705375443","-0.00046397008318210093","0.035622557906613","-0.04540927244101946","0.17649324086785034","0.2902905337889922","-0.23690342295486802","0.351951195654815"
"0.028667082818999972","0.10478506507794018","0.0057189305970597095","0.046005640265943844","-0.014691505640504213","0.5645571447057596","0.2698186031208004","-0.2828154021424629","0.3510671770188573"
"0.0013746602943360156","-0.010930765438047881","0.011476092231690278","0.054539776229019205","0.024986775087149343","0.7354631820231867","0.20452266611748685","-0.3727752122309245","0.3578446532278654"
"-0.052504209784222905","-0.06696162258440817","-0.0017153618363391521","0.1015063319726176","0.20317427337070942","0.6149713628821907","0.11139918614775901","-0.44376526176639114","0.44144755851413897"
"-0.02934633125877141","-0.010105122231378437","0.01614706861168377","0.07091491149859447","0.18372546750424373","0.5976357325736487","0.00042227826972432057","-0.49319450187234115","0.5568751346948853"
"-0.02700363404635391","0.0023754746397507704","0.04538766938708412","-0.019320307196091322","0.1105183723574132","0.6102239729567065","-0.12074298580131701","-0.5570796843527305","0.6120000110656681"
"-0.0028596066267564417","-0.003083123513718106","0.04383966550669926","-0.12405116088125036","0.12553885932034756","0.5590134184056782","-0.23976583852336175","-0.6350456347096014","0.6131576545175175"
"0.0006765998411764703","-0.007840569975273166","0.0255565091757788","-0.18139643414377296","0.1362972291718716","0.4261171288142236","-0.3791892082019646","-0.7139495213113669","0.5957088104887358"
"0.0003964259177994897","-0.0028517176540363387","0.016284930586310784","-0.1334093787131006","0.09112709788052782","0.2901488185161494","-0.4743122720974227","-0.7779050490101234","0.5322068051391166"
"0.028920347382504583","0.010224084114713362","0.009548872974817607","-0.033187405168007465","0.024058282383088818","0.2338999049796879","-0.5332285841948349","-0.8220818461446632","0.47882891797748783"
"0.025282835089169814","0.04916219178175055","0.00371366551157588","0.027366898761481677","0.04532252320964533","0.23867486039506194","-0.5905499900657716","-0.8396329781272549","0.49333103321974425"
"0.028246030482173595","0.0736896003236299","0.011587749037586538","0.02744284698455733","0.040246976173335135","0.23059817185731896","-0.6505375078376822","-0.8505482111772168","0.5302493353023534"
"0.03039244765787503","0.043382689335064444","0.0024204974024712492","-0.02132289597466077","0.02061279138488832","0.11560413653325444","-0.6968850066876462","-0.850747522629257","0.5475087467662869"
"0.027604954555802575","0.032023644905807495","-0.0024749319444769676","-0.018834936942872225","0.002849175804880143","-0.022510300294359617","-0.7111677490142915","-0.857899286496579","0.5342274191641624"
"0.011725266424064457","0.044969472372882284","0.011084154055891166","-0.0033101598813198518","-0.02386536513733629","-0.13413920186930844","-0.6971230523930904","-0.865883468781245","0.5178309782734256"
"-0.008816072579680184","0.08252333760123773","0.0011406217702590333","0.00504781112294326","-0.049128037539726575","-0.21648344583488244","-0.6472048679614648","-0.8527875339619029","0.5118112323238097"
"-0.0061567946628819144","0.10119383964580572","-0.04411456527259197","0.019260517158257676","-0.04724708071928039","-0.31263800023530014","-0.5801950018789537","-0.8289874017477002","0.50617035150389"
"-0.09155443966958768","0.01354600795404745","0.06090929465435334","-0.053161787836903486","-0.06609819937177254","-0.4671578852292822","-0.4665519820999456","-0.7845995689580592","0.49646719457111754"
"-0.017490383879712555","0.1681322175927756","-0.04290684880065285","0.005269021234752108","-0.024322420065669006","-0.1953070239350134","-0.3855212239667774","-0.7676229229254654","0.44601498813325313"
"0.008945687839601504","-0.017742321893070786","-0.0027198933043514114","-0.06106302194101511","-0.024034763117767297","-0.20197480965616108","-0.35912195523302803","-0.7625932398122176","0.4176001034060453"
"0.04619299061351799","0.012660215349704625","0.02420553778144488","0.0033804420876042715","-0.04775048037810839","-0.3497288982982758","-0.28506593626937166","-0.739308972532707","0.37112598082999"
"-0.004007211680136637","0.020279192807812273","0.00048169470144947973","-0.006425870260392303","-0.003305404404892473","-0.30908511487171203","-0.22148392834525565","-0.7038198098665043","0.3814605796455892"
"0.013265431550876759","-0.002654821100258332","0.009472915964003825","-0.007433537316670729","-0.01717366548206498","-0.3082887784971147","-0.1663525429644044","-0.6758693097686426","0.3671058008426591"
"0.007910468936276463","0.0033804372303687332","0.006203156540997568","0.018806573755966435","-0.04056544905718564","-0.32694142665595216","-0.10934059651054495","-0.6380939275055092","0.36657959927363665"
"0.0012385305914522754","0.01554835398865965","0.01086900582276113","0.02808098665200906","-0.04026980163850888","-0.3247361874647595","-0.04730588567181535","-0.6014675171423716","0.3641169759306121"
"0.013225858962829174","0.019554336125394475","-0.014200795488854483","0.046566958742238596","-0.026583723295007463","-0.29508797167205897","0.0073017991570586424","-0.5588969358272139","0.369315847432553"
"0.00674703484767724","-0.002888162061205733","-0.00036902381966487613","0.025249078196176764","-0.002157173754518142","-0.2675439216076213","0.04979295757882866","-0.5211801745793864","0.38331280916854793"
"0.001746642621983367","0.006022995392871239","0.004057370985508241","0.026857085401985364","-0.01802976452090357","-0.26987473691942343","0.08880864870111493","-0.481306159968301","0.3916057458963404"
"0.0010960692744809632","-0.001992532692095948","0.01345192397548377","0.007857982673550453","-0.020665501210760752","-0.3104633893662074","0.12661030672563633","-0.442604565663334","0.3935000715448209"
"-0.0064733753672626525","-0.02044017557423871","0.024688244585166462","-0.007087929253272454","-0.05254636093729192","-0.38204177811366746","0.1722674730298126","-0.4041960764348965","0.37922948499293446"
"-0.004748010528387595","0.003358506082691576","-0.002079955488245301","-0.006275021375938597","-0.05172813672992704","-0.41251695860306536","0.22211424374980507","-0.350897849318756","0.3558029911400587"
"-0.007834672396099859","0.04069934891338876","-0.03467690667897962","0.011858620796666431","-0.02682982979487893","-0.3050115480324257","0.25824958183621777","-0.30659208595054327","0.33795423391881996"
"-0.03580457762813864","0.04529360183487556","0.0019609574870478714","0.060931648520512444","-0.03224417279205114","-0.193937937937148","0.2793880404796526","-0.2659677223435421","0.33624934083518754"
"-0.037640745713546926","0.031538257005011595","-0.008034985136045772","0.07677165435623283","-0.05840337601540176","-0.06867422621298787","0.29607504443128346","-0.2375482541232331","0.33201868022024766"
"-0.016366522379160888","0.06989518925860412","-0.02623048707648713","0.0771016362909753","-0.033930162125586166","0.2539247019686008","0.2973366866701372","-0.2351330682926293","0.33366042911559757"
"0.010731203012308902","0.1216446348547547","0.004410571085792324","0.0667883913781508","0.010300769230858473","0.7309301903524019","0.2607490617433807","-0.2957706465250708","0.3446475178767845"
"-0.030660141181951532","-0.02419265944517581","0.03237129622898046","0.07851846348697279","0.05917160715695772","0.8526777706994939","0.17840905223027018","-0.3919091116267762","0.38367062623548326"
"-0.05402379716525046","-0.0822860120238217","0.022197044523001464","0.14061530201617084","0.22813650407195796","0.5931333692249637","0.06274264395498712","-0.4666978029540663","0.49080526568843696"
"-0.011712786024763965","0.008819684371181295","0.01839957376736646","0.10383715674976687","0.18414097198454618","0.6020462109560338","-0.06777781634000715","-0.5066187143773964","0.6282491155170787"
"-0.013453979898858078","0.029085516150823658","0.02958443350222282","-0.05003394320150055","0.17464829270378973","0.5652003394698575","-0.1889192758405042","-0.5593893523557836","0.69791820325564"
"-0.0050645912327683335","0.006633939114118866","0.028675607867835923","-0.16426007070727852","0.18329398208239114","0.47034442592647535","-0.31794004819120064","-0.6386332408463237","0.7010543646070135"
"0.005770383374662642","-0.010595347885338419","0.02397348911340878","-0.21370498283377082","0.1250945891452549","0.42921058934631323","-0.4424617567090037","-0.7283468426705003","0.641783019872334"
"0.012478728500490616","-0.009679077436061898","0.011884361164814354","-0.1686161814331118","0.07512538110641763","0.3361004901626254","-0.5472256716749474","-0.805152096924314","0.5238296761602806"
"0.030023631137271464","-0.01736981489943672","0.018441919800895143","-0.03175661048270872","0.026278035164397022","0.17031857113251103","-0.6147354337388911","-0.8406998806058227","0.47485083411567874"
"0.03766905514806645","0.011933262307582388","0.014885232769539826","0.07326057673312633","0.012874819486332288","0.03378976254000867","-0.6410870933315517","-0.8486019934690604","0.5099169066753291"
"0.035612863473113515","0.04312951358614433","0.01194683580620869","0.06852559785999614","-0.0024441914647578495","-0.0003482589893159006","-0.6428486315518379","-0.8318246588885068","0.5663046668117658"
"0.030813499994701423","0.09589649993113947","-0.008177404531321613","-0.05387151088702422","-0.030278516981389444","-0.03569364897581843","-0.6370641209095467","-0.831906728309935","0.5543283191008169"
"0.01142134894785892","0.12333301070901818","-0.062236009127489895","0.0005216462148670364","0.00904642512859151","-0.0848061634630038","-0.6082367859802674","-0.8153169809783601","0.5670834451339192"
"-0.004379194007784016","0.07701313674735201","-0.042473893839014294","0.010865183120113671","0.03637958831821212","-0.11513126517411215","-0.5966201555545959","-0.8052341663457423","0.5860687977442459"
"-0.028222469758219803","-0.08033317232992188","0.04646037227230174","-0.06091810923951444","0.048670530464390245","-0.4233287563043291","-0.5700066456859466","-0.8042845058977863","0.5595482386655188"
"-0.054102942341345654","0.2555504172676789","0.016919741304186962","-0.03333755567799611","-0.13881308151886015","-0.2299507190622073","-0.4446517771990894","-0.7881871750947813","0.45304504109539195"
"0.009735556697031448","-0.05945020450498186","-0.07172873655394223","-0.13089523063887218","-0.020539251772515","-0.2281068940717935","-0.3864972113590982","-0.7771547000142076","0.4035820936072895"
"0.06322819831624585","-0.031328345362191985","0.03777658701101619","-0.030210584010674505","-0.07650179232088444","-0.500022074842472","-0.28675606077802496","-0.7442331378184042","0.3439950279311968"
"0.000143161354294922","0.03306537442047246","-0.020516620938020407","0.11536906510412709","-0.043299788156406914","-0.3576616337221492","-0.18849079357070467","-0.6844162538002455","0.3824287905325904"
"0.009551939888490622","0.04312951358614433","-0.018165751453333878","-0.004310581302523244","-0.0157488047334585","-0.27783810066539677","-0.1343830047232631","-0.6579899001003376","0.3656534845121574"
"-0.0012988637541593822","-0.005061119524071111","-0.010532071866548837","0.029570270198756864","0.009253218512249743","-0.29658875945495394","-0.08860681556636506","-0.6259124805249394","0.3787664276121947"
"0.0065998248201401995","-0.013589917093903179","0.017160335135939616","0.027374755474213645","-0.02565203440263692","-0.2778840431485466","-0.04114050190081348","-0.5891805523342512","0.39004818925203416"
"0.009441136641957367","-0.015267004857450483","0.015664171915435152","0.07600868025315102","-0.030698815744156945","-0.2614611368385817","0.00551645636622817","-0.5385554435160604","0.43521733193691414"
"0.005393652336449562","-0.014510702779466169","0.0024622737584188287","0.0831111485628463","-0.03505841659902288","-0.2534150766229386","0.048126637640719956","-0.49235035925193593","0.45742303814965796"
"0.005012172587670755","0.014620311673350539","0.004123833369970301","0.04838622422372888","-0.03693617723115905","-0.24252364528421516","0.08983224523452435","-0.4601205250367422","0.45020355262267114"
"0.0035226603735593652","0.030314305454499667","0.008911023976508876","-0.009388549334807726","-0.017097915819117526","-0.2505850196609081","0.12249211602145356","-0.4290396627215446","0.4450046811207302"
"0.004312529230989309","0.01256410532017826","0.003540863311974525","-0.04149893427034385","-0.012814544055445545","-0.26007061101524637","0.1486533390497591","-0.4039498681706117","0.43161811320480115"
"-0.0010250214448700298","-0.0072835833276488965","0.002866744841002217","-0.03443836842855237","-0.004940893963129203","-0.29138807036239134","0.17788535167829292","-0.3704420958217491","0.4217886678954633"
"0.00438375988947498","-0.0052944604850185106","-0.006405707254090156","0.008434054310419666","-0.022789847771014893","-0.27324078951820224","0.20404657470659845","-0.33638328592901073","0.4144639420546719"
"0.0026821386034284796","0.0005334194933083785","-0.015285081818221215","0.02862571873475855","-0.030411158796255233","-0.22602416816900045","0.23482588442051947","-0.3048569038974881","0.40229816177887495"
"-0.007185681952119326","0.012821796305384856","-0.014115343851688975","0.04763896354611098","-0.016177893014078557","-0.16388542829272873","0.25165571579541607","-0.27280293272821216","0.4044240161177253"
"-0.04644168929533161","0.00216599992774616","0.014010397897492097","0.08578155792363268","-0.04994466365293644","-0.09189049436471006","0.2617964628473344","-0.24509864089463534","0.4092229744272093"
"-0.049306744669977365","0.05128596542078113","0.0016286455647375761","0.08443456817414154","-0.05888600045021464","0.04059843854281585","0.27531745891655895","-0.21923504894166435","0.41099101169912433"
"-0.003579827729222644","0.11657144437002409","-0.013448821081798044","0.029598205177359404","-0.022861762007990314","0.36911782138631466","0.2695091437037229","-0.2397875769079192","0.4012878547663519"
"0.006075883754390051","0.0851018600376917","0.007192496606847072","0.03645798836044515","-0.02152255910609235","0.79414704716659","0.23434979300963107","-0.3099100354168582","0.3953943971933015"
"-0.04479546963255175","-0.05417705355613601","-0.018068906264546304","0.033234117236096","0.1096617938903281","0.7856323736228186","0.14339252895944463","-0.4105154218848745","0.42242010977829025"
"-0.030280244336694625","-0.06686648010551462","-0.0030313170486879148","0.12099970922870117","0.24296681783044619","0.5830566512540976","0.020251485533217102","-0.4717743828795587","0.5411311837497359"
"-0.021510958825348002","0.02850014801797013","0.014862255773768656","0.023761540585591615","0.13542147357492634","0.6009129630383377","-0.12538487705747675","-0.5442651304068569","0.6438667780856627"
"-0.017173803175331816","0.016025840225954224","0.02580800283858323","-0.10728144403891426","0.13581939901952372","0.508936111772346","-0.24014671165207216","-0.6137779303566144","0.6684930115159096"
"0.0032377377396166844","-0.0006929509337855893","0.024469678286549806","-0.20340395947408493","0.15097252779732387","0.4479551224714504","-0.34933827673927587","-0.6764320715155794","0.645024421537512"
"0.0030984422296891443","-0.020154748137558062","0.0232091716920951","-0.21204634347924511","0.09525657317707241","0.3595617848911467","-0.45898212866682364","-0.7608346093530401","0.5544967036029039"
"0.01719103228519798","-0.005796941780327491","0.013559782930839339","-0.12928896936922624","0.059229138546538065","0.24672704627512493","-0.5395844045301923","-0.818623206241614","0.4666210415761689"
"0.036326752961492084","-0.0028260775622667217","0.015868876059578298","-0.0023236186526095944","0.029824206094363117","0.12718164228701562","-0.5907166220595824","-0.8622255174261556","0.41090681944808094"
"0.04256497574131467","0.027648703461092265","0.020965401592656002","0.05692123315488557","-0.0052376600477144685","0.0827950778998444","-0.6164969719591773","-0.8632572472955398","0.44144755851413897"
"0.03417558707522494","0.04770764066375087","0.014612736993245385","0.025282250983267283","-0.014127218594370355","0.07409663442347356","-0.633064953058086","-0.847429573162942","0.4847644716760601"
"0.02890451834728554","0.06384316005034159","-0.0409433600711166","-0.018088549233335662","-0.008986629125951271","-0.030955447546964308","-0.6325174479355645","-0.8520958059812931","0.472598691400263"
"0.010096458700025526","0.11201911864262597","-0.044163937329620935","0.024397061348799355","-0.014083910242769598","-0.13594627287320238","-0.6097364739245652","-0.8412743665558207","0.4803654265590332"
"-0.0071381948464622124","0.10867139345308345","-0.040301523329740144","0.015221293845946945","0.06394990868043615","-0.14517458632190144","-0.5846702611413025","-0.831203276126264","0.5102326276167426"
"-0.10573725522584507","-0.024434547103379747","0.08355018065267125","-0.06453656193662444","0.01701548144196192","-0.404553594857092","-0.5369182926292182","-0.811858341075311","0.5096853779849594"
"-0.07388923636514218","0.1870800841520841","0.0014330562618920892","-0.07481663406235843","-0.01538060384014431","-0.13344393895764076","-0.4778591531085399","-0.8080714234865487","0.4326915644056068"
"0.006940149077349494","-0.10488476963762162","-0.0478079749234121","-0.12530823491836457","0.021667533527194596","-0.21634561838543293","-0.4465085337015533","-0.81313627920898","0.3591496331190409"
"0.05482931222902469","-0.04354367210149088","0.0635127211999957","-0.0078591965531269","-0.07621253727882771","-0.4654426991916879","-0.3551703965226559","-0.7879175184243741","0.30457200638004106"
"-0.013153228229696341","0.0279825084294137","-0.00017723236736007792","0.08833324362535827","-0.05754519945416166","-0.4586738400076106","-0.24712145082158396","-0.7398365616704603","0.30682414909545686"
"0.009585180862450606","0.03564228427253842","-0.020577386546671437","-0.022978043456861146","-0.05766505651578737","-0.4013988776808026","-0.1522840417726588","-0.693139060877766","0.29556343551837827"
"0.003027211571203502","0.023286662691481243","-0.0212875845977803","0.02188727811497758","-0.018608434414432516","-0.3179366999585823","-0.0943199124970231","-0.6480946727166986","0.3136226733672258"
"0.007910468936276463","0.021321889873110053","-0.007208952643445896","0.013113075929536653","-0.0017068308216364625","-0.25420835016532595","-0.043735200090154136","-0.6165096696698701","0.3210736875845825"
"0.008423329677373283","-0.0032795362921797036","0.00964192031306449","0.05942315967597538","-0.001255049604015275","-0.26157139879814134","-0.0020295924963494765","-0.5824156871679482","0.34277424029106485"
"0.008779482969801605","-0.004240314070565748","0.008227410879184846","0.07136361709239775","-0.01646970500678329","-0.23664300744103486","0.03724794890192516","-0.5475127346548048","0.33995379988110497"
"0.00541897879280002","0.005543832067813117","0.006995008378731237","0.059758379419205844","-0.016560316945372328","-0.21931043996470295","0.06552777870868297","-0.511132532555952","0.3600336517549985"
"-0.00013226385851633043","0.006351124064146822","0.011702444123915346","0.016545586425323514","-0.01263715560423949","-0.2346644178333815","0.10004440599807582","-0.4707778256193581","0.40263493078304924"
"0.0036239661989611923","0.00928991397872975","0.005521442368943879","-0.013582287997513745","-0.018506156388511906","-0.26987779975163345","0.13403733273549168","-0.4378679876266159","0.392700245159907"
"7.03477922873518e-05","0.007731206035107452","-0.002252757687846656","-0.0004932664764864231","-0.011072301807654181","-0.2873543203418349","0.1675303634914751","-0.4048760802124452","0.3859438170136598"
"0.0007145895257021555","0.012642960696752746","-0.022897873227032465","0.013310366715917076","-0.0070292834048956265","-0.26891607043769666","0.19621487099748788","-0.37540143371662965","0.37584074688843033"
"0.0025729182604171245","0.017982711380824086","-0.026420379603521577","0.03612626048954001","-0.0039853934678490185","-0.2312861139057628","0.2197099821248196","-0.3375557062351291","0.38192363702632887"
