"AccX","AccY","AccZ","GyroX","GyroY","GyroZ","MagX","MagY","MagZ"
"0.00047715399741658814","0.04794791573756678","-0.031904475784276604","0.02415088434986449","0.0038663627345436936","-0.28448444656107447","0.24939428159369723","-0.3982753538889988","0.20048933602741711"
"-0.03555131306463402","0.007552241419724298","-0.0008152712581958396","0.06302851785186545","0.00933871654954275","-0.16775684820615575","0.2656289987049845","-0.36292688165953035","0.21903267931976525"
"-0.07094503581440126","0.025739403545669177","0.012552023289867492","0.09012282819208335","-0.04422188848384739","0.015413994412954267","0.27455571265913764","-0.3450474719912253","0.23258763173778146"
"-0.025800627369707098","0.08980093094440021","0.0010228884034976721","0.04006334653633522","-0.05141011599308016","0.27874895703056757","0.2712706819240094","-0.34967853220039286","0.2484157749339743"
"0.008564208090822695","0.10797153182868008","0.030743157702187055","0.06364221441303997","-0.035037641375007755","0.6746965909769904","0.2229474037188593","-0.41126577088079025","0.25098363859080336"
"-0.012599211997030036","-0.012227283286020992","0.011727509937483895","0.03850509851116239","0.030687176938068255","0.7921255779079969","0.14127392218099236","-0.4964069335111054","0.24965761063686698"
"-0.04805625088767341","-0.07067217926125659","-0.01554523458025841","0.11260175628631318","0.1999621041191403","0.5798713057557082","0.018585165595108397","-0.5650755908404577","0.33982751150453955"
"-0.023837827002546476","0.01023633975606236","0.00573032414868178","0.03720437606998172","0.17389718845093524","0.6084781585970124","-0.11160203071226382","-0.617904849834151","0.45618120244676524"
"-0.011222085932973802","-0.001991726399901935","0.02485223577151342","-0.017483582352974446","0.10629301141156806","0.5918469796967681","-0.2647844421655353","-0.695882524394083","0.5162313255035975"
"0.004608532189585318","0.005882442537610871","0.038612683807548884","-0.11592382804407446","0.1248420902687634","0.4704669392148749","-0.3924007448541117","-0.761596682552017","0.5113902710685918"
"0.011168084384354323","0.01535919783994417","0.033060985887169596","-0.19341720462367762","0.11398783476793883","0.3746615476863961","-0.4856670522471059","-0.8130776581936742","0.442836730656358"
"0.011206074068880037","0.001635459664085522","0.016271828001945408","-0.15278927011861135","0.04944240994125985","0.3261769138022586","-0.5808377252836527","-0.8698345252128638","0.3421007022827162"
"0.029491775553911817","-0.018564739930964178","0.005627782184083174","-0.01855907902917216","0.020854103602294758","0.18195427069826203","-0.6436817915208922","-0.8998602092525549","0.2961738293384441"
"0.028318844044181165","0.005824970030021615","0.013545161206257686","0.06824624807397076","0.008951178716952946","0.0651654156991435","-0.6791267970615172","-0.9124637275433273","0.30861323443013294"
"0.030930634855322305","0.05236155920759464","0.019815792233989417","0.06391981826290268","0.016964342429001616","0.025997917397794786","-0.6902673360763008","-0.9036588510443785","0.3628119960394366"
"0.030172424068330417","0.06895505256038481","-0.02323967977569448","0.01773282301593138","-0.025156625214583974","-0.03616532513615684","-0.6890056938374469","-0.890973263332178","0.39945667330615414"
"0.012830133082353238","0.1311588827441096","-0.02544623093983483","-0.016457844857412505","-0.007709592086683175","-0.12784814450998952","-0.6622493565455313","-0.8820980416148618","0.40951764730586176"
"-0.00982913083369854","0.12236707266059045","-0.02683624423772703","-0.049495321895320375","0.05031337125574003","-0.05656378765468847","-0.6486569467646738","-0.8794718201291567","0.3896061799340554"
"-0.0032141770156628928","-0.006326030718038906","-0.005431558590403411","-0.05442933749099364","0.03264644037210991","-0.21565954397039516","-0.62061516266336","-0.8860139254372972","0.3403116169480403"
"-0.043228395145867064","0.05099086247777232","0.049367626861199235","-0.12162430961515487","-0.11264748591888946","-0.4805730903090372","-0.5185173595983903","-0.8667979566200172","0.2659909073393213"
"-0.04990824800830078","0.1119659033578211","-0.0032895708854547728","-0.023357784572239394","-0.007019055602303565","-0.3178448149922827","-0.4417476195926715","-0.8412978149619429","0.23869156993844087"
"0.021817859279722573","0.008434115444004216","0.02050719092492186","-0.11590636868244787","-0.0538392191086946","-0.23731070486281264","-0.3783560482329104","-0.8297846475558607","0.16363417813309067"
"0.0476429302395818","-0.005104175527231412","0.014879535993728793","0.019195917520239306","-0.047450038676966594","-0.41861199470094484","-0.29896780546730667","-0.8020569073161614","0.11838084319716716"
"-0.0064733753672626525","0.026827898007586903","-0.01637696384866932","0.04097647114940567","-0.02232959665437215","-0.3730064230941978","-0.18932395353975914","-0.7486531623724703","0.12997832577842008"
"0.007522657573410056","0.022714195233731922","0.00062981087253635","-0.02218800734325812","-0.028685217108844967","-0.27743993247809806","-0.12571814104509857","-0.7174198854174773","0.1230956092556076"
"0.008265039325182914","0.015469982387401573","-0.0016223144980922674","0.0004471820375296461","-0.010735263750362677","-0.2680370375934296","-0.08456003857381546","-0.6895983515532886","0.12090661072847453"
"0.006656809346928713","0.011545919537578483","0.012161224469230588","0.014480143944898358","-0.013557498028109466","-0.23077768375890453","-0.03514175012362251","-0.6645671780176616","0.12490574265304454"
"0.0065934932060525715","0.0009043139025544167","0.012600635776788313","0.04765380400349359","-0.0051929134113742025","-0.22042837372134919","0.003278826735053606","-0.6323725164116515","0.14302812469017476"
"0.004959936771447941","-0.0056084306653672224","0.0061594812597796445","0.05187023983631417","-0.00941491835949382","-0.20970233532196517","0.03946177396255516","-0.6065675454739865","0.1488794861377035"
"0.0007937347017973258","0.0006561371652371766","0.00776084494026119","0.0547388129515623","-0.02093541931354186","-0.21307145075295386","0.07552569833733468","-0.5738570189332842","0.1703695582165769"
"0.0026109079449428093","0.01541144557411622","0.008497817837681906","0.04087782575621546","-0.018657176286160305","-0.20866403520277862","0.10873307424678519","-0.5432685731466562","0.1981109049354361"
"0.004559462180406305","0.005853932045630566","0.012402957656145446","0.011890047647594286","-0.02085535479637588","-0.22603335666563043","0.14284502383692307","-0.5146615176773682","0.20175221979307081"
"-0.0010930862963118998","0.001240215230580286","0.011417985118417736","0.004204087472338479","-0.021810216053994063","-0.27470788614678726","0.17707599627978327","-0.48155236823258585","0.19714269404843485"
"0.00045499334810993145","0.015574639114184477","-0.005940470562855745","-0.0037069238742840245","-0.022233711005071582","-0.30008038817434224","0.21047380875358868","-0.44265146247557874","0.17761009180632473"
"0.00837742547523807","0.026595685855711117","-0.036530257742835893","-0.007600361517012761","0.011217595847587426","-0.262863913990757","0.24220530128928622","-0.4059664310971353","0.1757999584088877"
"0.0007161724292240554","0.004153026410672112","-0.023866325114908174","0.02098462911888307","0.025272833940896047","-0.21220466923752676","0.26636694039186126","-0.3748152235635705","0.19230163961342908"
"-0.02149512979012897","-0.03292157873756193","0.006696877111287148","0.0769733099830199","-0.0009076239347162075","-0.20805146876078068","0.2844584140056119","-0.3418819371647058","0.21598071021943557"
"-0.06119435011947431","0.015846359583566904","0.017784891657355934","0.06947800603672642","-0.037222236084905755","-0.09507583986309938","0.30278793332480686","-0.3116334932668522","0.22879898044082042"
"-0.04384572751940954","0.037248418323012566","0.0029351061507346212","0.016382341394114933","-0.046133209093238765","0.07971080586438474","0.30274032418371777","-0.3076238158199274","0.21604385440771826"
"-0.019247406789025666","0.08232176455273445","0.003613022472247618","0.03799790405591005","-0.02565682868510195","0.4050142148873943","0.28469645971105595","-0.3399943404718552","0.20802454249581745"
"0.014029973951956275","0.05660104356371567","0.032507449170864164","0.130375386422178","-0.029885385819257104","0.6632415985116288","0.24322889782269563","-0.3923194587339176","0.2222530329221822"
"-0.012599211997030036","-0.019180747167190208","-0.0053556015795896295","0.13408550076782758","0.09262291400961672","0.7629367869467946","0.15372371257571787","-0.47272404332751455","0.28219791566521013"
"-0.056255691131134704","-0.036998192070492306","-0.008378690609978132","0.14352228572699743","0.23724564075551213","0.6453852867273887","0.02396499853814491","-0.528882975990584","0.4275137409664267"
"-0.019690619775158718","-0.009281252867535825","0.0250847211923617","0.02501250384613652","0.1362173244641211","0.6538387036269604","-0.1388820685561565","-0.6089944555076514","0.5389421852226028"
"0.0014316448211245294","0.019475803265697596","0.020286535808507825","-0.0830504690054565","0.13238988896287332","0.5279256714742824","-0.2653795564291455","-0.6774989739941472","0.564705014041938"
"0.006872084225907624","0.01925052522669033","0.021842325282501105","-0.16715832473729186","0.14490776047906279","0.4264540403573225","-0.3796891041833973","-0.7334703194082375","0.5460353823730245"
"0.011155421156179094","0.011310804733804254","0.015403639368343885","-0.1762546521447433","0.1004328001451482","0.36256336045693666","-0.48281050378177687","-0.8035458811049317","0.47051493318693444"
"0.02613760299099783","-0.00747789974640606","0.011942848063140965","-0.09540034845202229","0.0525954497090936","0.2856495179996744","-0.5724347118814765","-0.8527054645404746","0.39998287487517653"
"0.033835262818015625","0.013344596163982968","0.013241143270475526","0.017136585816383457","0.044676893171021484","0.20240786419657344","-0.6373021666149908","-0.8883587660495339","0.3545190593116441"
"0.03459822231557323","0.04973465923949987","0.015064681207587386","0.07129814448629804","0.025125809278635173","0.1536567639101669","-0.6868394779179057","-0.8902463627423844","0.4059184285737488"
"0.0407937067003044","0.05563510551528794","-0.005589169387842007","0.03324983066155992","0.01587604030944014","0.09622865997285938","-0.7213799097778432","-0.8838683962771006","0.47247240302369775"
"0.03138492816610867","0.041495965601073735","-0.018048018086572512","0.008645399882909494","0.007212931704549102","-0.024216910401765896","-0.7309017379956066","-0.8833642555454696","0.48617469188104007"
"0.009756134442816203","0.09598035431931683","0.004007998928479284","-0.042948934253431846","-0.04181036440393805","-0.12761230642982033","-0.7050975835254673","-0.8798938914393594","0.4712516153835658"
"-0.0206087038178629","0.09844277067983292","-0.043303724182154855","-0.04826181799640205","-0.02269715831002434","-0.19655359664447922","-0.6575598561482826","-0.8789559551944648","0.42429338736400984"
"0.0019350081410899208","0.00025557120325145506","-0.014430565446566176","-0.007900051459333115","-0.0312629429808753","-0.3710768388019043","-0.5878124644531645","-0.8593648118792269","0.40577109213442253"
"-0.05532177805321152","0.13358420966370108","0.06577813904751673","-0.08731666401891286","-0.20828702871958846","-0.40743265713448235","-0.47519304120756606","-0.8341343268915599","0.3302295948855717"
"-0.04351331777980972","0.054169266306572074","-0.028985827643757046","-0.0335636544110604","-0.05145965691188545","-0.19924276332485022","-0.4137772492029909","-0.8164307802691726","0.30766607160589265"
"0.029833682714643026","-0.015428263296253108","0.0076265909236478335","-0.07143039087488202","-0.04952756107847896","-0.3549050847331585","-0.35624160219715445","-0.8053865809855377","0.24353262437344664"
"0.022564989742061132","-0.0004970219306403993","0.01683315031185925","0.0659424853073427","-0.045599445645465586","-0.3993467801001095","-0.23981344766445037","-0.7570828643734613","0.226483693537122"
"0.0007715740524906973","0.041974903164317526","-0.01764734485452982","-0.003891120139444509","-0.04319591203633129","-0.3024295804794044","-0.16868539087775644","-0.7202923151674673","0.23580798534019834"
"0.007372281738829215","0.00578844499363282","-6.32968511394056e-05","0.021304135436649597","-0.015573973232900462","-0.301645495433647","-0.12557531362183197","-0.691661811292057","0.23555540858706758"
"0.007296302369777817","0.023294725613421375","0.00689056748886229","0.024290559242877183","-0.02681704504163885","-0.2649650168868099","-0.07282438529542187","-0.6563133390625885","0.24309061505546786"
"0.008348933211843813","0.004417974025624826","0.012496004994392329","0.04195157649625052","-0.02475230739336657","-0.2560828034778397","-0.02371555626230616","-0.6244352309392303","0.2520991859171309"
"0.011169667287876222","0.005296671258660333","0.006581042669796131","0.04560582088469502","-0.023787058523740825","-0.24337204980638227","0.01941832556416288","-0.5894033121924136","0.2637598126866664"
"0.00223734271377353","-0.003936664430300404","0.008941026995780319","0.0194368567106862","-0.02058319936177776","-0.2260670478199403","0.059790877207480365","-0.5592486619190494","0.2745364208202445"
"0.0037284378314068477","0.0076531892024147416","0.015514156819077937","0.0031093854983515194","-0.022529358423748338","-0.2633447786477254","0.09714024839165794","-0.5284140078681366","0.27432594019263556"
"0.006911656813955237","0.006723179534152239","0.00861270281653775","-0.019145713579825464","-0.03346831291478842","-0.26620852676406576","0.13798889144586382","-0.49803659773660997","0.2598869691386618"
"0.001941339755177549","0.00695289218022658","0.006355070562625131","-0.032256821193310414","-0.031167057331574727","-0.2786099343823142","0.17371955183302154","-0.4671784952795748","0.23757602261211352"
"0.003587559417957407","0.0041004561596224565","-0.005708801679873717","-0.027307092172173215","-0.009533816564626528","-0.2940159803985625","0.21402068976470612","-0.43129070970929184","0.21486516289310822"
"0.009493372458180207","-0.0013800731415235766","-0.021938915965508475","-0.012602817810262257","-0.0011556481475736833","-0.26853627924365797","0.24427629892664934","-0.3977946615634903","0.2066353703535984"
"-0.0010582624188300149","-0.015352471830015875","-0.014483735354135817","0.02289119140850629","0.004732849385389849","-0.2328144671785477","0.26917587971610113","-0.3658344840187039","0.21149747285136503"
"-0.028206640723000772","-0.01516863720978088","0.005088487407305325","0.06975997472699579","-0.005909339021064965","-0.17561607565698942","0.28867182299197214","-0.33368671922493853","0.23071435415206185"
"-0.057395381666905367","0.00960243283312924","0.009907959743439759","0.07627493551795646","-0.06229793147115993","-0.09084606858110357","0.30552545893741384","-0.30702588146380705","0.23606056209332904"
"-0.049053480106472765","0.04000109987337339","0.004799850766212954","0.011503322787565398","-0.06665433613771585","0.010805044503361713","0.3121431295487593","-0.29737686234445293","0.21398114425715056"
"-0.023204665593784972","0.06444787919585143","-0.006287973887328795","-0.005658705910520102","-0.04695622758306866","0.30166506762571077","0.3088342942430867","-0.32052043918722933","0.18792364255916305"
"0.017670652052334816","0.0744829918425388","0.0059373070031493325","0.057873641331615856","-0.021178968862765307","0.6066404592710185","0.2736749435489946","-0.3717434823615404","0.18116721441291583"
"-0.002696567564000373","-0.010958179372644329","0.0059828812096376005","0.07073595304192196","0.05936337845555886","0.6809141403632696","0.1969766172549092","-0.44987357156126784","0.21027668521123316"
"-0.04389321462506662","-0.04832659739637675","-0.004649201379021464","0.10388080515383333","0.197724772302127","0.5758896238827216","0.09156997888426623","-0.513747029838596","0.31518023001153206"
"-0.020149661796510794","-0.013481873939905418","0.015820263572657475","0.03263700706846675","0.1499673265738229","0.605905379540621","-0.04666316226711633","-0.5931198845628088","0.4252195021254892"
"-0.007755527220004659","0.020349985262446628","0.03615946225079077","-0.042288097415865554","0.1267374299366047","0.5827503680330985","-0.17735025455592124","-0.6608506056472665","0.4712516153835658"
"0.010196181621905453","0.022591638820241927","0.03815618217255806","-0.15148854767743067","0.12575939631373886","0.5208199007471062","-0.289207931544099","-0.7189440318154312","0.46384269729173083"
"-0.000708440740489292","0.00034910109775697747","0.024532722605525248","-0.18759450752121107","0.10617794863240737","0.4655970360009912","-0.4116110332834498","-0.7991727533631104","0.38918521867883754"
"0.009388900825734552","-0.014676798971432873","0.011121183098662883","-0.1067140147860502","0.06454280161194467","0.3620120506591385","-0.5182079001813128","-0.8539716784710825","0.31717979597381696"
"0.028090905937027025","-0.018361554298072867","0.014994990650165739","0.02217710351797891","0.029220126503769532","0.21992113877329475","-0.5983102800632489","-0.8954988057137946","0.2807035032091865"
"0.03379252442292423","0.023962335550064242","0.019351505005390176","0.07562544726544744","0.04114510508845048","0.12674978294540706","-0.6444911469194022","-0.8980546819811327","0.3356810431406434"
"0.032310926726422357","0.04155885639220675","0.03353704645244497","0.029736134134209436","-0.004332659327732584","0.05296921783896438","-0.6666293975257025","-0.8872215183525992","0.39263710097162435"
"0.03455073520991612","0.04443086918728151","-0.02395747352788471","0.007547904411062281","-0.0476689775762029","-0.04359575607759194","-0.6577979018537269","-0.8878311769117807","0.39166889008462313"
"0.013490203850987098","0.09320832175629969","-0.028514894176711596","0.028494773522559157","-0.027103103895385554","-0.14986684526760574","-0.6298513360345908","-0.8742311013608077","0.4036031416700504"
"-0.014894422103790455","0.13762857130887093","-0.04036608678893186","0.004101775613206683","0.03613348181834066","-0.09263169975952758","-0.5967391784073179","-0.8639841478853332","0.41524272037682514"
"-0.009797472763260455","-0.050676132849731007","0.014693061532180958","-0.07113096282298607","0.008917778549113246","-0.2991033446993555","-0.5606990586030828","-0.8556482395088316","0.39168993814738406"
"-0.015986625533904036","0.15301423895502944","-0.015913626082705253","-0.0625846053067721","-0.14214191164374493","-0.3414286230092037","-0.4611483445863648","-0.8387067660854214","0.29472151300794247"
"-0.052599183995537105","0.02956767888284351","-0.023190307718665516","-0.04749884389332023","-0.008329972237657865","-0.16794368097096515","-0.41979980555072616","-0.8222342607844585","0.29630011771500964"
"0.017084977749230453","0.01058159407353878","0.023238984818839514","-0.06986428613697723","-0.0725129493099807","-0.3077987253435163","-0.3702624942478115","-0.8112369583130682","0.23027234483408301"
"0.02642727433550621","-0.009249968730408115","0.03474210442900561","0.023779872915299535","-0.0671992862445741","-0.46400316805299274","-0.241241721897115","-0.7705422494877","0.16409723551383035"
"0.0073247946331721015","0.05325815612733724","-0.02120593081115548","-0.005376126142593805","-0.07628604960995815","-0.32066262062547324","-0.1596158495003367","-0.7317234131521213","0.15498342433836296"
"0.009987238357014143","0.0045745559697021754","0.00427384846632752","-0.011883492111246905","-0.024793857841396812","-0.30825815017501484","-0.11153061700063066","-0.703221875510384","0.15254184905809914"
"0.009243273701719412","0.010384213744444369","0.0016856133228479143","0.021772919296323443","-0.03838085434728764","-0.3324851529560336","-0.04692501254310495","-0.6655989078870459","0.15123686916692364"
"0.011348535385851349","0.014264575557351947","0.0008766711576811421","0.037053352591911747","-0.02462765604927582","-0.2920006368043893","0.007873108850124499","-0.6260531709616736","0.15778281668556193"
"0.012165313603153677","-0.0070076701388576065","-0.00021710979803731301","0.010067290293778678","-0.00444788191630877","-0.2615530218048814","0.05569649107384216","-0.5934481622485219","0.1523945126187729"
"0.006783441628681025","-0.012880379963171625","0.0130503012808059","-0.0050863880364006055","0.003925971646525548","-0.2333473999830859","0.09133193317882217","-0.5643955870629092","0.1552991452797764"
"-0.002175792305294053","-0.015115421924976013","0.01967432230134875","0.03133541165920474","-0.010737181463348688","-0.2156932351247051","0.12287298915016422","-0.5353430118772962","0.17289532574788427"
"0.00607904956143388","0.007686634202622406","0.008733854248785734","0.03371774155315243","-0.018665006947519852","-0.22869802068832146","0.15648504275886943","-0.5036524910029169","0.18154607954261198"
"0.0035622329616069506","0.013847399976169555","0.007382389133881526","0.012013136147061718","-0.021979614034425072","-0.23439795143111236","0.19233472599874943","-0.4715516230213962","0.1839034625718322"
"0.006652060636363013","0.010595139782398202","0.007462143995235996","-0.0011300966918161575","-0.011837788907903733","-0.23995699189224373","0.21806746675725547","-0.4425576688510892","0.17047479853038136"
"0.00838059128228187","-0.008576392231529546","-0.0054334575156737555","0.008438331854018181","-0.008776479744567522","-0.22324311652232978","0.24803742107266627","-0.41077335435222057","0.16862256900742265"
"0.0033184658192337833","-0.015700790057829542","-0.013807717957893161","0.0323794814844746","-0.0017789048680273913","-0.22479597245279456","0.2737701618311726","-0.37890697043192356","0.17828362981467327"
"0.0007794885701001974","-0.0055455398742341976","-0.016445325158401723","0.04954901770805953","0.004105118001302114","-0.216024021003384","0.29359936909466483","-0.34392194849735175","0.19219639929962462"
"-0.029868689420999687","-0.018027749329751434","-0.008906591835133915","0.09192987212043503","-0.011868312506264415","-0.18111692230613097","0.3111671421564385","-0.3103203825239997","0.21135013641203873"
"-0.07656434331715947","0.03742902777447151","0.017244837310469947","0.06263742815142992","-0.044154768529336995","-0.07426695782842914","0.32114125721454617","-0.28110366849553015","0.21374961556678074"
"-0.050193170642243434","0.07712601765451384","0.0015906670593306854","0.014747272177785126","-0.042972178854629964","0.16017753368523502","0.32549749362417296","-0.28252229706593335","0.20383597800639938"
"-0.007486433621281035","0.0985153369772941","0.019685715852970815","0.03408700705155473","-0.011444977364602399","0.5430866909137315","0.3061919869126572","-0.32329907531272983","0.1976688956174572"
"0.008467650975986597","0.02799057135135383","0.013750624920508965","0.05659998090095638","0.014215620482385265","0.7399042887276718","0.23913451168905742","-0.4035629694695927","0.21497040320691269"
"-0.05623986209591567","-0.06263505867133373","-0.006922214927623873","0.09918423687628164","0.15703729511558495","0.7176987552052463","0.13394211445331422","-0.48948965370500713","0.28120865671544804"
"-0.032622941549112126","-0.03351662237674362","-0.008384387385789165","0.06631262377382632","0.20566730025252428","0.6638541649536267","-0.0066476791819649345","-0.5760611691087867","0.39063753500933934"
"-0.013327347617105766","-0.0002298166975444482","0.03704872895489312","0.017236104177655","0.11595189248444554","0.6482030923605792","-0.14407146493483783","-0.6442608583156918","0.4624324770867509"
"0.016165310803004394","0.00957243876351195","0.03404348982204586","-0.10257614608054925","0.14797290506837102","0.4994413319213778","-0.2611423428722407","-0.6931273366747048","0.5076016197716308"
"0.008796894908542562","0.014524685419140582","0.027022593420001","-0.19126970314360747","0.14439637034945974","0.4356119086651917","-0.38511654626752245","-0.7686312043887271","0.4572967497730926"
"0.011030371777948711","-0.010930765438047881","0.014004701121681064","-0.1525797577790923","0.08714784343455416","0.35150653617887373","-0.48778565902555815","-0.8322232817925869","0.37539873757045156"
"0.024966254384789076","-0.008698142352825528","0.0137679051404691","-0.06993063171115826","0.04268726594803465","0.2563320880856527","-0.5718157930473218","-0.8837980510587334","0.2939216866230285"
"0.03155904755351808","0.021295282230707622","0.018873735407371493","0.0444823109640242","0.038420354554159264","0.1434514069864811","-0.6283278435197485","-0.8987464099617425","0.3079186483590234"
"0.03689184951881172","0.06472363112620393","0.018519206059398167","0.05994955942901697","0.023452604698340217","0.13963511805283388","-0.6657962375566483","-0.894877422951552","0.3637591588636769"
"0.03672089593844612","0.0596681790697416","-0.022500997845530456","0.03240305162267049","0.012933948970067636","0.08484411264832754","-0.6965041335589357","-0.8989457214137827","0.39600479101336744"
"0.02788671138270144","0.044724359545902294","-0.04619578736888959","0.06714368938725183","0.054353353279604055","-0.008174407852281669","-0.7155477899944629","-0.8906684340525871","0.4430051151584452"
"0.005091317763765953","0.10312894091143723","-0.0057980511675799085","-0.02017406997963139","0.018095793090748345","-0.0851614519993626","-0.7012650476678175","-0.8787918163516081","0.48705871051699756"
"-0.00641005922638651","0.09966994739912091","-0.032138043592528975","-0.057846134561316584","-0.010781608480857949","-0.19098536768671792","-0.6699620374019198","-0.8775607750301838","0.45220311858495615"
