"AccX","AccY","AccZ","GyroX","GyroY","GyroZ","MagX","MagY","MagZ"
"-0.034696545162806035","-0.02472965004638855","0.006453814676683044","-0.06346193822850806","-0.037730430026198775","0.1205628618812278","0.2969796181119711","0.3335259527839581","0.13564025466110077"
"-0.04139222706045875","-0.055489697247989384","-0.007110208529387982","-0.042992582657498314","-0.02851262294010394","-0.051727575595114685","0.3035020704411391","0.3261279806523512","0.13873431988695228"
"0.008095668648339218","-0.09233886309877737","-0.007218447269797622","-0.03301193858366027","0.002995561229479014","-0.3947831601072248","0.28026880958979594","0.35161639810736434","0.1458696131628955"
"0.021952406079084386","-0.048208878736050835","0.03532393513183918","-0.10285549586657462","-0.03266127536650862","-0.7205766222838327","0.21318752979565164","0.42600646653057417","0.1692750589530104"
"-0.023679536650356107","0.04363263991520852","0.005333448767179769","-0.14552617568195148","0.04883513416235623","-0.7326748095132922","0.11742174249549428","0.5029289628149997","0.22724142379651419"
"-0.033208615852216516","0.022627115676778504","-0.0035763086012768003","-0.04988291972343058","0.14347107383370925","-0.5438205754453252","0.01901364786490792","0.5634375748137682","0.3079186483590234"
"-0.007185681952119326","-0.025352107620166688","0.009703445491823651","0.09220922190646041","0.14582506652403823","-0.6349704620146196","-0.10153269737197895","0.6335248607135234","0.343153105420761"
"-0.03882792335497474","-0.010266380670181062","0.009535960282979266","0.15677394120157642","0.17218722770507508","-0.6977891506415091","-0.2568099110331584","0.7229336332581096","0.3242729931242384"
"-0.02090945548702458","-0.0021318599832214177","-0.0002873700330400616","0.21624052690172926","0.2120756578141124","-0.6705299439726006","-0.44248556127954797","0.8112637791210666","0.28287145367355876"
"-0.011886905412173361","0.004061431617432221","0.008708978327744218","0.1514837546287208","0.1308445319149791","-0.5879866159133772","-0.609665060212932","0.8838717686789765","0.19714269404843485"
"0.010868915618714541","0.0065247187735178475","-0.005572079060408908","0.06304597721349205","0.06146167608108634","-0.47861287769464383","-0.7445179523470086","0.9377444817451152","0.1287154420127664"
"0.024147893263964847","-0.0003373760762257996","0.012687036876588991","-0.001794163511283366","0.05454991886067023","-0.30151073081640745","-0.8482582707795427","0.9634791074644132","0.12774723112576528"
"0.03410910512730498","-0.012877154794395574","0.04220620998914889","0.003603310838767646","0.013806508378702832","-0.173052485097228","-0.906436641190078","0.9748750328398835","0.13545082209625273"
"0.05067735629107123","-0.03296995626920272","0.0487181944187414","0.0496467901331684","-0.030300890299559576","-0.03618370212941679","-0.9260278027481267","0.9688839650756186","0.12867334588724463"
"0.045027973621396856","-0.10090007361480875","-0.06365070845389657","0.019978969889191702","-0.020013318986101373","-0.026853396368125056","-0.9308125214275528","0.9765281454715105","0.06767606000617198"
"0.02723297222815521","-0.09895045908968501","-0.08300835265978879","-0.07523827764564048","-0.006341144061748533","0.03468410954532567","-0.9325026459362059","0.9818509336612877","0.10152134492569057"
"0.03248029740326605","-0.10964189358229907","-0.01954247227433366","0.06678751841006947","0.04778358820835997","0.06847940015035239","-0.9236949548347745","0.9808778248072096","0.09697496336933728"
"-0.06561065094558571","-0.0860707475825193","0.02804034140789486","0.12096479050544799","0.10911364759515983","0.20178917209015557","-0.8957959981567274","0.9808543764010871","0.030420988919388478"
"-0.00010852030568777369","-0.12166532277942285","0.02542538838586151","0.1663242120113191","-0.04185511104027831","0.026331153542241668","-0.857470639580229","0.9716860496072418","-0.06856594543882291"
"0.004649687681154804","0.11432833948627957","0.0017349853798768711","-0.1469141949312651","-0.08963493008675257","0.2060465088620413","-0.8293098326261932","0.9646163551613478","-0.04638339209511604"
"0.003620800391917392","-0.0708576264658796","-0.014472341802513751","-0.009861698034888214","-0.028266516440232474","0.5808820403850048","-0.7323062076577268","0.9451541780797832","-0.028639875187681876"
"0.014576075667013052","-0.05158563044457781","0.0076503274895271395","0.018754195671086674","0.001812012698278972","0.37870448620358255","-0.6161637079715556","0.9133112425656086","-0.04188963069566507"
"0.010861001101105014","-0.001083196355687943","0.0012108820052617818","0.017410697793920862","0.006296744325482153","0.4230849249263338","-0.5204455298124874","0.8837662508514259","-0.05872387129182858"
"0.007973785077152634","-0.021267431365296182","-0.010824506358181897","-0.04538626113650329","-0.022339185219302213","0.4354893953767922","-0.39275781341227783","0.8320859637577287","0.008362619145970893"
"0.007006631025269436","-0.04204235603623843","0.010363701808322448","-0.05916344339604251","-0.04108642775171874","0.45977765480201077","-0.2913265383225513","0.786959506175233","0.039113838839637954"
"0.01140077120207419","-0.03457931548845292","0.004803648616753643","-0.038128404508331375","-0.06366270387953804","0.45205931763283663","-0.20770108200004272","0.7501572327661777","0.009857031601994446"
"0.016519881191910817","-0.011898316070863637","-0.016435830532050007","-0.03441479829035648","-0.04584555214533706","0.4017676127448052","-0.1205525492369618","0.7055466401183743","0.006952398940990943"
"0.0011134812132218917","-0.01354153956226239","-0.005832231822446106","-0.06498352159426504","-0.029529010822689983","0.36302278528843507","-0.04628228913840593","0.660185698474655","0.025432598045056484"
"0.008689257469053108","-0.02238333976181035","-0.0011684713584799267","-0.04883710396199807","-0.05510490967946213","0.4143252248057631","0.03527216954673923","0.6036633155166888","0.06702357006058422"
"0.007775922136914652","-0.005420887101039768","0.006808913702237476","-0.023037405286391536","-0.03959860209340489","0.3882605226987505","0.09897320032357727","0.5562623625403238","0.06704461812334514"
"-0.002402147508926264","0.0076499640336386895","0.0018223359423127229","-0.0011135102982709002","-0.025803853347362824","0.38914874403964755","0.15546144622545974","0.5142897155812866","0.03989261716179107"
"0.0013841577154674158","0.010573531151598651","-0.015395219483901195","0.006253030856026511","-0.013357256830486776","0.4102516579664768","0.21064044074739985","0.46449702518043984","0.03547252398200316"
"-0.011222085932973802","-0.009566841562655273","-0.026775478629076005","-0.017359620885425683","-0.0031663702134066456","0.32927037433434825","0.2530601854575367","0.41699055437652394","0.0362723503669172"
"-0.05389716488349817","-0.017853590215844598","-0.006677253567749429","-0.08715952976427359","-0.024531770399975252","0.26681309990823754","0.2879338813050956","0.3720282356368849","0.057972903073399536"
"-0.05272581627728939","-0.029457747472081536","0.005221412176229441","-0.09560986079154132","-0.06364832103214298","0.150033433405749","0.30931038565397484","0.3365625213768046","0.06237194819042654"
"-0.028823973096543193","-0.054114162765002985","-0.004014960338726386","-0.04385158324952636","-0.045770441720051604","-0.08141560820654516","0.31964156927024806","0.3265735003686762","0.05494198203583072"
"0.012130489725671793","-0.0933418905881297","-0.000615884104809664","0.01616671827802659","0.005834415686437902","-0.4810631434626356","0.29114749832859105","0.36731510600628914","0.054731501408221736"
"0.025276503475082215","-0.04011854286132311","0.022936675915800665","-0.03398267909009847","-0.019601490122355424","-0.7348800487044848","0.21775800734017797","0.45155350500089325","0.05567866423246201"
"-0.01847178406329288","0.04886547625435372","-0.021065410341149983","-0.09430913835036066","0.0506297938984319","-0.7043436115708871","0.10649544461561063","0.5429905646750639","0.095838367980249"
"-0.02417023674214627","0.039564089504218275","-0.0026306438166452195","-0.10424351511588824","0.1434966433401894","-0.5040956416817584","0.00039847369918001997","0.600415711268741","0.19733212661328292"
"-0.01337483472276288","-0.029027187440478528","-0.00021900872330765737","0.037696730067851444","0.11750364190895975","-0.5854750935011857","-0.10148508823089009","0.6553787752195698","0.2558246930258091"
"-0.028048350370810403","-0.025277928738317478","0.018357607518891844","0.13309904683592544","0.18158402133653098","-0.6845270871722536","-0.2470024279688619","0.7366157782305108","0.2530253006786101"
"-0.01617657395653249","-0.01134519962577063","0.012260538260869607","0.23371734788994208","0.21734936852564377","-0.6678959082720094","-0.4228705951509552","0.8215107325965411","0.1961744831614337"
"-0.00501710412711122","-0.005380249974461507","0.013640107469774912","0.21040037043763615","0.1668815551104435","-0.6285385143736412","-0.596977224112762","0.8916566395116026","0.08779800800558728"
"0.005871689200064469","-0.0063521545851249325","-0.0010336476642854625","0.09726370709735715","0.08550979692566942","-0.5162244572333178","-0.744303711212109","0.941378984694082","0.0068261105644255955"
"0.02817163401664411","-0.0019043243260709122","0.00666459538169129","-0.012993907510697792","0.04228454622097226","-0.3425924992489997","-0.8613507845789676","0.9790136765204814","-0.01929453532184463"
"0.03266866292237259","-0.020317619160748715","0.035345962664975174","-0.042394599521787736","0.0029720692454003736","-0.22042837372134919","-0.9346926664262915","0.9916640916234986","0.023917137526272017"
"0.04448820352042768","-0.044116139559240194","0.04061548029018127","0.019564310050560276","-0.0031793147760622227","-0.10809593958776574","-0.9765649060139069","1.0","0.036461782931765205"
"0.04741024342186196","-0.09914235663186013","-0.05083296287907095","0.000559096545556064","0.0049412408632030875","-0.009764017769266338","-0.9738987941129329","0.9886040746245295","0.03580929298617752"
"0.030851489679227122","-0.07823842520987578","-0.04684711873661776","-0.041124430963453584","-0.0019276874338587766","0.06709806282364701","-0.968780811445885","0.9855206092194383","0.07199091287215537"
"0.03643913911154725","-0.07869478659168722","-0.023759985299768884","0.017826230600633614","0.023244852458188983","0.19042300175888363","-0.9559025387813599","0.991441331765336","0.05203734937482728"
"-0.11608944425909536","-0.19963377794049234","-0.014755281667795085","0.12524233410396163","0.08534519322770343","0.27759426928740144","-0.884369804295411","0.9797991981255806","0.013056337141650387"
"0.008244461579398158","-0.022131776597278253","0.036263523355605655","0.09970801772507921","-0.07502675141581067","-0.0035844475023910534","-0.8742766663845816","0.9856144028439278","-0.15583331845176815"
"7.667940637495193e-05","0.11292216589992067","-0.08572381579638147","-0.11095663966131065","-0.07200315727453267","0.35392617362476564","-0.81050422189611","0.9630804845603328","-0.08203039118696721"
"-0.004953787986235078","-0.10533629326626899","0.009920492650224034","-0.00493466618386557","0.03431804685824986","0.590070537014974","-0.6637252399192848","0.9254809653431172","-0.0650319757012687"
"0.0020917155897583898","-0.010511493497161056","0.026673684890827897","0.01809859664200836","-0.03565290762468642","0.42262550009483535","-0.5721490570349433","0.9024077337187079","-0.07440678285497117"
"0.012247624586292676","-0.009675045975091834","-0.028002184353718575","-0.018835809910953554","-0.042887479864414456","0.45267188407483455","-0.46807547461478766","0.8665082239453638","-0.08759128936839558"
"0.012716164028776183","-0.02044501332740279","-0.011859420630519668","-0.07228066178609678","-0.04410203142222168","0.4545095834008284","-0.3609072980238585","0.825274201779181","-0.060287742354963036"
"0.004390091503562608","-0.05145017335598361","0.019215541956033505","-0.0782316851965187","-0.08094289597765586","0.4810643386614394","-0.23795669116198645","0.7676614679365249","-0.031228786907271905"
"0.016269782435450023","-0.03123804063646252","0.007749261496112091","-0.04461368438452685","-0.06985212254188987","0.41429459648366324","-0.13845358628635726","0.7190529220448578","-0.01811584380723455"
"0.004795314805169944","-0.00800666616723987","-0.009994676015041332","-0.046246134696612665","-0.04618115191788905","0.4019513826774046","-0.0733242812768543","0.6815237480460091","-0.004666131703022861"
"0.004198560177412254","-0.016597386977572143","0.004431459263766112","-0.034853901235265126","-0.07360444761785219","0.45582660125112406","0.007635063144680436","0.6318365754727131","-0.002750757991781461"
"0.01687128577377344","-0.022788098443204938","0.0004133333917170755","-0.025834395018970658","-0.06546055980392375","0.4111398793073738","0.08119118612690386","0.5818562978228875","-0.013632606439164006"
"0.008549961959125567","-0.030663960594325173","-0.011266955946172172","-0.005070849204552944","-0.03639442331261083","0.3540793152352651","0.14467797576884267","0.5312898100200026","-0.03228119004531664"
"0.005854277261323541","-0.011498395142633122","-0.011969558296199648","0.015240499143736187","-0.011611019347307884","0.32761644494095377","0.19450094191829057","0.490372341336472","-0.03981429170744086"
"-0.00338671349955039","0.002464973073286228","-0.03522949393264989","-0.01401353422969043","0.0048223426580703815","0.3259318872254594","0.23185031310246815","0.4520107489202793","-0.034617525011775944"
"-0.013343176652324795","-0.001629539946351239","-0.01941904213176127","-0.0856737380898511","-0.01265057959514157","0.26215146928463323","0.2665335723856719","0.40972154847859016","-0.014621865388926078"
"-0.0462992279783603","-0.016031369857374928","0.01603180384777386","-0.10307373788690696","-0.06337664502579135","0.142281405082265","0.2901477063657256","0.3793910351593083","0.004153006593791962"
"-0.05354892610867935","-0.03697077813589586","0.022200272695961053","-0.07086470755818063","-0.06488684400227533","-0.062383168853668965","0.29816984663919166","0.36874545877975357","0.00579475548914172"
"-0.03230636084473139","-0.0842404643021095","0.007021593332516062","-0.04853243810161413","-0.0302545455690643","-0.39720279755311666","0.27355592069627255","0.395148364073539","0.007499648572774226"
"0.012654430791421941","-0.09063274881624558","0.05953637168389423","-0.09327030633357877","-0.047173568388149956","-0.7057525143874824","0.21518711372138188","0.4598542407682112","0.018591977647765722"
"-0.015606728688647127","0.04550968814287108","0.009048696058608858","-0.14860775300904394","-0.013281507167539324","-0.778678549307338","0.11351779292621128","0.543178151924043","0.06197203499796955"
"-0.04845197676814935","0.050292613437756956","-0.007486195732916201","-0.2103527854014663","0.17290637007482934","-0.5585527983753759","-0.006576265470331769","0.6049764262595414","0.19564828159241135"
"-0.00338038188546279","-0.019866095532101367","0.02213665869940451","-0.07140507480052347","0.15415912754241282","-0.5392875837745404","-0.14430951064028189","0.6646057230287211","0.33643877340003564"
"0.0016390051824939397","-0.02102231853831619","0.07924721599007054","0.05497538730160254","0.1092574760691107","-0.5559493909968846","-0.275187039493442","0.7224881135417845","0.3723257204073609"
"0.017515527507188246","-0.012330488686854671","0.046693940080554136","0.16626310424562607","0.18784855042416826","-0.4790416742040423","-0.38763983074522995","0.7693614773803965","0.37205209559146923"
"0.014794516353035763","-0.0003380211099810099","0.02795612407215508","0.23212854598192276","0.09933171327234665","-0.3898520002491413","-0.5026397110452694","0.8362246074383265","0.2664750127828218"
"0.0077569272946517945","-0.0077725189140984575","-0.012487964895003714","0.16161891405295412","0.06081125175999747","-0.3348435337577257","-0.5947633990521318","0.8832855585259174","0.14338594175710997"
"0.013675403563049823","-0.0031592374968329446","-0.034335100130317604","0.009752148816418798","0.05744406737539244","-0.2574427009790751","-0.6841971705874764","0.9282478772655565","0.0606460070440332"
"0.023354858599491077","-0.05419640456879232","0.021151116484095695","-0.06521485813581732","0.11834743562280478","-0.21421694999949004","-0.7480172242170366","0.9376155155114422","0.11922276570760296"
"0.028306180816005937","-0.08077985820540516","0.04244034747498237","-0.020167959203062087","0.06237418784359678","-0.23861240855205829","-0.8077666962835031","0.9403003580124533","0.1883235557516201"
"0.0395637906637852","-0.07269274749945348","0.018300829653308544","0.009169006138090815","0.058179190686696816","-0.21908072754895372","-0.8768713645739222","0.9531031877552657","0.20105763372196137"
"0.034648875228274145","-0.09282102583079721","-0.009375626376909014","-0.01022397978863988","0.05885198832595581","-0.14627108025307778","-0.9338595064572373","0.9637604883378815","0.20827711924894815"
"0.041420536494978274","-0.07800137530483592","-0.022238946158222903","-0.04658135443984312","0.02486851611967864","-0.04507510403501698","-0.9638532653431925","0.9672777492562367","0.2534883580593499"
"0.03647712879607294","-0.057748927975614164","-0.02000581004029773","0.011448325798441652","0.028048723488147558","0.10796849583375003","-0.9609729123073191","0.963795660947065","0.2729788641759383"
"-0.08633085804730539","-0.11393298063883696","-0.047065495142707386","0.046119126116516654","0.03282542691747097","0.3116284608048074","-0.9108642913113382","0.954662506762403","0.24889988037747482"
"-0.013944679990648213","-0.11166729957366006","0.04758453603234573","0.26043017117861905","-0.010864389758087444","0.022709660737149813","-0.8866788476382186","0.9692005185582707","0.09889033708057875"
"0.02502323891157762","0.10993404702890801","-0.011622054971726598","-0.11107012551188347","-0.07246021220286539","0.24068714115702516","-0.8496865450122073","0.961298405695033","0.08245180006432"
"-0.012314289363087382","-0.043633976827220346","0.009683316883958001","0.023697813915654578","-0.003635730466732938","0.5832710495087968","-0.7048595378200232","0.9294085733686137","0.07721083243685725"
"-0.00767638204390949","-0.034530937956812134","0.019166549684058617","-0.015340445713310984","-0.04336371192260728","0.429578129211512","-0.580909138995286","0.8944587240432254","0.07634786186366059"
"0.009893847049221817","-0.002699973463123066","-0.02065334355748522","-0.03254839253247441","-0.04084032125184728","0.4517224060897378","-0.4886902327062458","0.8594268052964088","0.09042901585069911"
"0.001354082548551259","-0.011375838729143125","-0.005678418875548199","-0.0612236480679797","-0.05215003358684956","0.5228413700056994","-0.3750710174977819","0.8126120624731028","0.11273996237724741"
"0.007019294253444664","-0.03627414168026851","0.014920552779568233","-0.08505829559251393","-0.12256046396241344","0.518216493368615","-0.2517633420777437","0.7557614018294235","0.13881851213799584"
"0.024062416473782048","-0.035517839602284204","-0.023733400345984063","-0.07943376224450917","-0.08035799351692237","0.4188275881544481","-0.148570528767731","0.7008217862847173","0.142586115372196"
"0.012497723342753472","-0.00803375758495871","-0.01324373715260084","-0.07577428004757668","-0.05816206379799533","0.3734670431245001","-0.07199122532636738","0.6519201353165206","0.1623291982419152"
"0.0020347310629698478","-0.03283288659622048","-0.0002019183958745584","-0.0320804816408819","-0.07224926377440413","0.3921196912833375","0.006278202623649224","0.6026081372411823","0.17649454447999724"
"0.005873272103586369","-0.009025013208278454","0.006757642719938171","-0.01890477438937857","-0.05750524710028642","0.371108662322808","0.06924129171361078","0.5570361599423619","0.1641182835765912"
"-0.007122365811243184","0.012095327038579028","0.013085621290834308","-0.010944178455736564","-0.05033939290922379","0.39034324860154357","0.13308514991371542","0.5126717755588432","0.14797441943898498"
"-0.0005327384495579666","-0.005100466583138952","-0.006690546044641839","-0.011119645040083755","-0.04490906897050148","0.3632065552210345","0.18028961330327836","0.4670529014477779","0.1292626916445497"
"-0.014562012364190687","-0.0170247218403991","-0.02459741134399082","-0.01959441917362873","-0.026275291123090627","0.28469697718236764","0.22001944154189684","0.4260768117489413","0.12520041553169706"
"-0.040173391348592886","-0.03141703750353343","-0.004172571136164982","-0.06746973468989093","-0.06145413775731491","0.2333730978395697","0.26132037143644626","0.38775039194193217","0.12648434736011158"
"-0.04181961101137277","-0.030936487355901612","-0.0010849186465847636","-0.07413921083124689","-0.06908184115917529","0.13971168885808363","0.2856724471033768","0.35543848830531016","0.12334818600873829"
"-0.023046375241594603","-0.0659311811604594","-0.00875847566404704","-0.06594029461140198","-0.04778883463782861","-0.13448530190903726","0.2912427166107685","0.35103018795430513","0.12311665731836845"
"0.014041054276609575","-0.08467747467126462","-0.0011172003761806214","-0.025328946499880985","-0.005677934987419588","-0.5130391117349283","0.2440858623622944","0.3975987225133263","0.12757884662367813"
"0.02035525642548354","-0.016203916386893738","0.04858337072454695","-0.12334405673537362","-0.03406759822291698","-0.7450792799637506","0.1652927338603008","0.47489639329570965","0.1500581776523136"
"-0.027700111595991582","0.05865870124283717","-0.018951906515256516","-0.12688830714557062","0.10557386904181378","-0.6096408396380046","0.07969149818260605","0.5380546751863057","0.21623328697256633"
"-0.01753787098536967","0.02284481456916205","0.01943258911443389","-0.09460594749801263","0.1481582839903521","-0.47313040803876216","-0.020954226079154606","0.5811997424514612","0.33576523539168707"
"-0.006251768874196141","-0.03917356840993973","0.038894104532613945","0.03726024602718679","0.13711545337923642","-0.5149074393830221","-0.1271940244188518","0.6305117405267994","0.39486819562427905"
"-0.015701702899961353","-0.021525444867380384","0.032660122762599865","0.16389736074522362","0.20261494041645609","-0.5538666650940915","-0.283518639183985","0.712803921813247","0.40995965662384065"
"-0.01047812127767907","-0.008492215326474576","0.015788741413169757","0.27839585429237634","0.19713347746477347","-0.5765928800922153","-0.4351537535518701","0.8003016492588599","0.3252622520740005"
"-0.003258498314276178","-0.009456863307391882","0.004587171135934368","0.22019507231015106","0.15189622621891935","-0.5357346984109523","-0.5649362721599877","0.8705882466106556","0.1998578941445903"
"0.0009092866588963094","0.007182491945393758","-0.008323621777138144","0.0636046767855428","0.08716062818779423","-0.44884214861354355","-0.6985513266257548","0.9189974810502827","0.1297467970880503"
"0.024597437864185497","-0.011029133085717483","0.0028762394673539386","-0.05141148683383821","0.07174860815688255","-0.2958720567178163","-0.796173870428376","0.9416720897706116","0.15856159500771508"
"0.028820624460624642","-0.04857332280774477","0.025250801196506033","-0.06802319645345371","0.05678405448937351","-0.2493843894345921","-0.8871549390491068","0.9543928500919959","0.19859501037893662"
"0.03474068363254455","-0.054752746182661384","0.028187565084104672","-0.020755466721796716","0.04596975134242418","-0.15024663646164446","-0.9458094008705304","0.9596921898756507","0.24403777787970815"
"0.03941183192568245","-0.07449722942965485","-0.022552268827829756","0.017582672505942736","0.04342238925933903","-0.06559914267415819","-0.9780645939582046","0.9638777303684933","0.26876925162375936"
"0.03748068962895991","-0.08247629698160878","-0.05013036052904347","-0.07076693513307175","-0.010497307530681758","0.04945921212631615","-0.9758983780386633","0.957347349263414","0.3089920995598289"
"0.03465678974588366","-0.08448718971347752","-0.017292245828975393","-0.007445758869809339","0.02025961257663122","0.14131355010390825","-0.9525937034756871","0.9467838423052877","0.3456367768265466"
"0.0150192886531461","-0.047221977090578765","-0.04309864025295764","0.03901753077490269","-0.027556962635408255","0.2950187217300331","-0.886988307055296","0.9399017351083729","0.2950793300748777"
"-0.046694953858836236","-0.2578803260360007","0.019368975117877347","0.25795094182764383","0.13166914849896402","0.16512400770436844","-0.8144081714653931","0.9383424161012355","0.1884708921909463"
"0.004382176985953079","0.08523409195750986","0.02475483989439745","0.055297512523613056","-0.11321640743807286","0.014819804964216256","-0.8172647199307222","0.9574763154970871","0.041071308676401186"
"0.0060236479381672375","0.08263299333962351","0.006058838220451382","-0.08667590544721716","-0.03620584820231971","0.5458738682248222","-0.7543730445523937","0.9344851532941061","0.11888599670342866"
"-0.014941909209447539","-0.13085705379117252","0.02183359022625752","-0.01700083100399934","0.04105880800407996","0.44853706059134846","-0.6109267024517857","0.8930752680820057","0.12357971469910813"
"0.010058469015499814","0.023057675708381516","-0.01503822153307642","-0.03922834429080631","-0.05486519555621071","0.33634551673942453","-0.5356566503903647","0.8723117044606497","0.07479030521935441"
"0.0076318779164214106","-0.007746717563890038","-0.020998947956687927","-0.05932843436341376","-0.03334525966485269","0.43239593484470257","-0.4422237110035596","0.8376901328209745","0.09668029049068481"
