"AccX","AccY","AccZ","GyroX","GyroY","GyroZ","MagX","MagY","MagZ"
"0.25429698001459733","0.11669528884873871","-0.1212211258792222","-0.015398659588792676","0.18921164614377592","-0.3470286824546133","-0.17933177002766268","-0.015105761813695917","0.6416336217941498"
"0.03477210144923743","-0.048856272304148726","0.02030633269466053","0.12249671270862901","0.22888242599337905","-0.312297325542796","-0.1738686900748181","0.024731483327941447","0.6468934296716344"
"-0.2061244783423492","0.013212749539859538","0.016077687807298954","-0.1343141818608337","0.10485527003017275","-0.2687018172149696","-0.165688223202424","0.07457876629803803","0.621582935736363"
"-0.16729800897802768","0.06299354018064651","0.12382681234103143","-0.10199713992572607","0.05291610002392026","-0.20560517577192328","-0.15749360327315715","0.09468902247593314","0.5948922085282764"
"-0.13006117028342548","0.04565675517756163","0.10159593164713773","-0.005698883654445797","-0.0705737541806007","-0.023890071743737546","-0.15749360327315715","0.0847691651684513","0.5906489238044191"
"-0.2180103442649566","0.0026927935254229636","-0.07165652859370526","-0.027896447811893457","-0.033320832245081686","0.20818952896631787","-0.16841976317884622","0.06952865712331989","0.5979417779891584"
"-0.20216598628245985","-0.010812728568628385","-0.04242195480511899","-0.008263728252470211","-0.07102150564617185","0.15105604393040492","-0.1738686900748181","0.05446851012014292","0.5971210987458629"
"-0.18473199763024378","-0.022357771649027112","-0.013898931838925288","0.012441562684308696","-0.06314107985211974","0.08086808135455134","-0.17660023005124043","0.03952108876818724","0.5965242411143753"
"-0.16650838851463767","-0.03295460919341085","0.0298716087499664","0.07917415577108937","-0.0945732327352139","0.05322804557554129","-0.18206331000408493","0.019501013111269266","0.6035652959858308"
"-0.15699138398220028","-0.11265512857196812","0.1049808805593767","0.10957922264221515","-0.16907907660625193","0.1085081171335614","-0.18479484998050716","-0.025115799642155063","0.5981189700985063"
"0.19088837885579224","0.06027705945584682","-0.09247447265456223","-0.0744367188815001","-0.04352956566010372","0.311255434976096","-0.19570685682932373","-0.05043398090647805","0.6279245480709188"
"0.50867944614145","0.2054550151727365","-0.11952356891722847","-0.05741547745824717","-0.08928976544147445","0.056290206973798954","-0.19570685682932373","-0.07027369552144198","0.6193260678173005"
"0.1520619094914707","-0.24583956561710063","-0.03939278130407632","0.1647000647306671","0.06419943695631306","0.11954801480622726","-0.19025792993335175","-0.09478025209697112","0.6424076715349856"
"0.37633490058010993","-0.08320950260220533","-0.11331274673891616","0.005959500882028813","0.17757010803892623","-0.26217457844499925","-0.19298239338133774","-0.05025361986452393","0.6482083816410056"
"0.194857260658621","-0.07603389314047027","-0.037125983684168556","0.05548431839297296","0.22341985811341114","-0.264914407064493","-0.18206331000408493","-0.01023601368093221","0.6580845102620271"
"-0.06349408727106046","0.05695834007979435","0.011757557814201191","-0.12349520101098525","0.21562898261247324","-0.2702328979140984","-0.1738686900748181","0.039611269289164294","0.6477234348154219"
"-0.22514809766428465","0.043017155982709096","0.11173044836035767","-0.03153386378727353","0.0675127978015395","-0.23671028892264598","-0.165688223202424","0.06961883764429704","0.6292581518412739"
"-0.14669514872931222","0.04090291390916216","0.0755430065358211","-0.08926618401189579","-0.07173790799108566","-0.039200878735025924","-0.16295668322600163","0.0796288754727561","0.598408073013758"
"-0.2156414828747866","0.011316338467829562","-0.051113039850056836","-0.06086635928104364","-0.08937931573458867","0.1995671271343818","-0.1738686900748181","0.06438836742762485","0.5976713268748906"
"-0.24655096811932944","-0.04237259661193812","-0.05965164971876772","-0.009336299629825875","-0.026335909382171868","0.16564160216947438","-0.17933177002766268","0.044390836900951025","0.6084520678436356"
"-0.17046688057452702","-0.052149364503552134","0.00402198387361908","0.017571251880357523","-0.028664217003141805","0.053792127938378224","-0.17933177002766268","0.0344709795934691","0.6120238877320692"
"-0.16332912717519896","0.006408734139535762","-0.007759264742852231","0.02209470508050967","-0.008425850759326187","0.02035010214161677","-0.17933177002766268","0.029511050939728174","0.6157728997298507"
"-0.16412913738152834","0.014071259957602843","0.1066072824391311","0.1017914217718501","-0.046663825919101724","0.03388807884970333","-0.17933177002766268","-0.00023724841759533742","0.6225341775865463"
"0.0007041343511345863","-0.12081738433469176","-0.0527089466945659","0.11857949550437355","-0.20409324121391528","0.15855028103666713","-0.19298239338133774","-0.0403450351221642","0.6210700112093033"
"0.5427474132395531","0.29752064728446226","-0.12868224450259572","-0.11253631954669911","-0.12502033239405158","0.3987687844105126","-0.19570685682932373","-0.07018351500046484","0.6354132461659902"
"0.2091223777143377","-0.19894183234933221","-0.10560766783357944","0.025359052750722567","0.006708148776978414","0.12631700316027053","-0.19570685682932373","-0.09487043261794825","0.6462872461396549"
"0.3604801528546739","-0.10140479802303351","-0.10243618416805826","0.07119982074814074","0.12240712748056153","-0.09681786293908481","-0.19025792993335175","-0.07991173870087039","0.6548017932888455"
"0.27489984026331277","-0.08288916289409215","-0.08827632280244606","0.08626245356926592","0.1863460367641206","-0.3046419220471518","-0.18479484998050716","-0.045034422212973865","0.6640344347759193"
"0.04666835711478417","-0.02961026264070933","0.0053942604596618985","-0.0565294402334751","0.26541894558398427","-0.30117684467543915","-0.17933177002766268","0.014631264978505401","0.6623744244883444"
"-0.21088298060856792","0.022758872841632076","0.04114460677901444","-0.09141132676660713","0.09751214599480602","-0.28207862753367413","-0.16841976317884622","0.059608799815838207","0.6404026029292066"
"-0.18949049989646247","0.05444687676818708","0.08239422445428672","-0.08390332712511747","0.04234916543644132","-0.2131799960728765","-0.1602251432495794","0.08467898464747416","0.6102519666385904"
"-0.15541214305542028","0.03613625905243815","0.03573682052883089","-0.06408407341311063","-0.045320571522388296","0.074743758558036","-0.16295668322600163","0.0796288754727561","0.606083289118669"
"-0.23227546132067334","-0.015515315483729754","-0.056510661088491926","-0.04515085692587587","-0.068334996852745","0.20955944327606474","-0.1738686900748181","0.06438836742762485","0.6053465429798015"
"-0.18631123855702375","-0.01660447049131454","-0.026147770995826006","-0.036756820059614156","-0.07737957645728206","0.15734153311630222","-0.1738686900748181","0.0445711979429053","0.604619122741426"
"-0.168887639647747","0.015045092670266881","-0.0062345129805824314","-0.009149765477242281","-0.061350073989835184","0.11785576771771643","-0.17933177002766268","0.029511050939728174","0.6080883577244477"
"-0.17838386469430573","0.005473342191845295","0.038562693794904256","0.08864076401470675","-0.059648618420664844","0.10439837420432084","-0.18479484998050716","-0.0004176094595495339","0.6181416784548173"
"-0.09042430096983525","-0.11756273290026194","0.047345263945578295","0.15798483523765774","-0.14069163368904153","0.11503535590353173","-0.18752638995692952","-0.040164674080209996","0.6287918568166742"
"0.5403681621064435","0.32057229268028614","-0.04652861955149898","0.018037587261816507","-0.04523102122927407","0.3119001005336239","-0.19298239338133774","-0.07505326313322871","0.6392088876662314"
"0.18535064586912295","-0.341813342167807","-0.1216887164196516","-0.0018282999883362263","-0.20624244824865676","0.016965607964595127","-0.19570685682932373","-0.0900119570503065","0.6073049820831203"
"0.14969304810130074","0.060379568162443026","-0.09721136812934708","-0.0920641963006497","0.10987008644456953","0.08143216371738829","-0.19025792993335175","-0.08973014292225306","0.6426967744502372"
"0.35018391760178597","-0.05719791830341573","-0.06242669792609875","0.19655077128431575","0.12742194389495828","-0.2541162589759002","-0.19025792993335175","-0.06504322530476964","0.64748096140263"
"0.15998928335418872","-0.19498243355705336","-0.0019245479992331363","0.06345865341592159","0.14774986043188817","-0.19625752518776826","-0.19025792993335175","-0.0303462698588274","0.6450562272747117"
"-0.05159783160551374","0.05125629327537988","-0.04304202052177537","-0.19330560761539523","0.13440686675786814","-0.2397724503209037","-0.17933177002766268","0.02455112228598733","0.6234387899342698"
"-0.2679434488314349","0.14005446036435124","-0.011276358807821234","-0.09444250674609055","0.12885474858478596","-0.17869038874513213","-0.16841976317884622","0.06456872846957896","0.6133108619999643"
"-0.12450265781087745","0.10517587294498902","0.0671568718433372","0.06066064112716768","0.046289378333467364","-0.0412960417969917","-0.16841976317884622","0.05466014372721923","0.624725764202165"
"-0.15224327145892091","-0.04355144673779459","-0.007230684131932036","0.16036314568309853","-0.026783660847743012","0.14332005724006971","-0.17933177002766268","0.019591193632246245","0.6507730042763039"
"-0.22831696926078401","-0.13360534548256958","-0.011672794266011383","0.11750692412701788","-0.07254386062911372","0.1274451678859444","-0.18479484998050716","-0.005366265548168345","0.6576275411379193"
"-0.19344899195635182","-0.06264369334133965","0.016677423500458408","0.0020422836777733446","-0.06896184890454458","0.11100619616898215","-0.18479484998050716","-0.020246051509391197","0.6570773130088917"
"-0.1593706351153096","-0.040655575776451514","0.06735000706655805","-0.07331751396599853","-0.07460351737074097","0.08739532012452166","-0.18479484998050716","-0.030165908816873123","0.6449163387673316"
"-0.0991412952959433","-0.002419828216063267","0.08700913978809","-0.06385090572238115","-0.12699043884256458","0.09625947154053072","-0.18752638995692952","-0.035216017991591186","0.6408595720533145"
"0.07044008895999893","-0.02289594235865724","-0.07952424768701746","-0.022253789696239746","-0.17525804683113372","0.24985104062156047","-0.19570685682932373","-0.07523362417518298","0.6315336715613206"
"0.4555878597214117","0.290972903650629","-0.12002165449290327","-0.04617679476508564","-0.09036436895884518","0.13735690083293636","-0.19298239338133774","-0.09478025209697112","0.6306756887160571"
"0.1877195072592929","-0.23728008861631666","-0.007535634484385993","0.10412309867914503","-0.0626933283865486","0.16580276855885637","-0.19025792993335175","-0.11461996671193489","0.6299482684776816"
"0.3398772926059584","-0.1080678639517875","-0.0827567214230294","-0.07014643337207743","0.07172166157790824","-0.07506040037251713","-0.19843839680574588","-0.09019231809226078","0.6389291106514717"
"0.25191772888148795","-0.0233059771850421","-0.12552092584882302","0.04858255474737999","0.13539191998212463","-0.2698299819406435","-0.19298239338133774","-0.05521354851826493","0.6395166423824672"
"0.011800379810351959","0.03670005693871735","-0.04951713300554778","0.008291177789323735","0.21607673407804442","-0.30303025815333196","-0.18206331000408493","-0.0003274289385724757","0.6458396029160391"
"-0.1926593714929618","0.04581051823745596","0.022949235749261512","-0.028316149655206537","0.19153995376474584","-0.2558085060644109","-0.1738686900748181","0.024731483327941447","0.6510621071915558"
"-0.19502823288313184","-0.056890392183627084","0.15165861450832946","0.005493165500569828","0.08282589792407256","-0.16676407593086537","-0.16841976317884622","0.04466137846388244","0.639908330203131"
"-0.16729800897802768","-0.014720873007609082","0.04803648474447393","-0.08861331447785323","-0.07478261795696943","0.0064092094600752434","-0.1711442266268322","0.05455869064112006","0.6207529305925755"
"-0.1989971146859605","0.04199206891674694","-0.08381388264486976","-0.10479515221447998","-0.003948336103614768","0.18151649152359967","-0.1738686900748181","0.0445711979429053","0.6242221655755972"
"-0.19502823288313184","0.0035897447081398495","-0.037064993613677766","-0.0002893932295215785","-0.029649270227398317","0.12776750066470838","-0.17933177002766268","0.029511050939728174","0.6277846595635389"
"-0.1776046339738551","-0.040617135011477935","0.009948185722974364","0.036924170210905376","-0.0904539192519594","0.0587882860092197","-0.18206331000408493","0.019501013111269266","0.6271411724295916"
"-0.16966687036819766","-0.03105819812138087","0.05189918920889076","0.05352570979084523","-0.1166026048413141","0.0360638251063601","-0.18479484998050716","-0.0004176094595495339","0.6185053885740049"
"-0.06507332819784045","-0.1368599969169994","0.08370551096983878","0.08798789448066417","-0.1768699521071898","0.1276063342753264","-0.18752638995692952","-0.040164674080209996","0.6209301227019234"
"0.36523865512089254","0.22306088553063644","-0.05765930741606851","-0.14462019379107724","-0.08946886602770289","0.3143981795690446","-0.19570685682932373","-0.07018351500046484","0.6236253079441096"
"0.269351717533704","0.018825101226002325","-0.1356656075737914","-0.08385669358697158","-0.0952000847870135","0.15742211631099323","-0.19843839680574588","-0.08532256995949691","0.6267308328079436"
"0.3351291800826791","-0.10804223677513843","-0.031169286799567875","0.15476712110559074","0.10360156592657356","-0.05032135960238274","-0.19298239338133774","-0.09983036127168918","0.6461566835327669"
"0.3026300641684168","-0.09932899671446016","-0.09244397761931682","0.08798789448066417","0.15992870029542322","-0.23638795614388203","-0.19025792993335175","-0.07009333447948762","0.6511833438979515"
"0.060133463964171525","-0.059465923436857","-0.06048518068214188","-0.04123363972162042","0.2182259411127859","-0.23292287877216938","-0.18479484998050716","-0.020336232030368336","0.6529645908919226"
"-0.1577913941885296","0.013097427244938804","-0.03581469716861653","-0.139677038747612","0.15598848739839719","-0.29996809675507424","-0.17933177002766268","0.029511050939728174","0.6395819236859112"
"-0.20771410901206858","0.059251972389884666","0.061545785358184356","-0.005279181811132711","0.12706374272250137","-0.26402799192289206","-0.16841976317884622","0.06456872846957896","0.6366535909314252"
"-0.12451304755381676","0.06004641486600533","0.13360555364305504","0.013654034676102052","0.0004396282589824228","-0.07683323065571894","-0.16841976317884622","0.06456872846957896","0.629211522338814"
"-0.18791125896968244","-0.011773747692967898","0.007376437750612636","-0.018429839568276072","-0.028753767296256033","0.187882563904188","-0.16841976317884622","0.04466137846388244","0.632223788197728"
"-0.20771410901206858","-0.010787101391979333","-0.05164162046097704","-0.05074688150338369","-0.038066997780135794","0.21729542996639992","-0.17933177002766268","0.029511050939728174","0.6393394502731194"
"-0.18949049989646247","-0.0031502027505613045","-0.014844277931532562","-0.01647123096614834","-0.08311079521659268","0.1445288051604346","-0.18479484998050716","0.019410832590292127","0.6350029065443422"
"-0.18394237716685377","-0.05883805760895518","-0.004547121030337188","0.03268051823962863","-0.09994625032206762","0.10713820282381457","-0.18752638995692952","-0.010416374722886488","0.6342288568035067"
"-0.1482847793990316","-0.05891493913890234","0.09267105133198518","0.06495092663659033","-0.12716953942879305","0.10133621280606318","-0.18479484998050716","-0.03511456490549193","0.6369333679461848"
"0.1552411708309094","0.033599168564181825","-0.0961847019427521","0.06275915034373311","-0.03439543576245243","0.3078709407990743","-0.19298239338133774","-0.08001319178696963","0.6661793918890777"
"0.34463579487217705","0.34493092408521175","-0.011601639183772125","0.09232481352823273","-0.11284149253051651","0.1048818733724668","-0.19025792993335175","-0.10975021857917111","0.6613858790361928"
"0.22418750497638376","-0.2498758459393266","-0.14018903780185846","0.1080403158834005","-0.09699109064929808","0.13453648901875165","-0.19025792993335175","-0.1343469556756773","0.6526568361756867"
"0.3042093050951969","-0.08204346606467337","-0.08371223252738513","-0.03372564008013076","0.14909311482860158","-0.08779254513369376","-0.18479484998050716","-0.11939953432372162","0.6691636800465157"
"0.2503280982117686","0.011201016172908827","-0.07948358764002357","0.02251440692382276","0.18124167005660954","-0.2727309769495192","-0.17933177002766268","-0.07955101661696198","0.6746473095358083"
"0.0656919764367196","-0.03260864230864863","-0.011337348878312024","-0.08478936434988955","0.23067343185566366","-0.28393204101156694","-0.17933177002766268","-0.025115799642155063","0.6800283541196889"
"-0.17284613170763635","0.031369604195714156","0.001978816512177548","-0.14503989563439032","0.08193039499293027","-0.26096583052463446","-0.17660023005124043","0.02960123146070531","0.6551188739055732"
"-0.19185936128663247","0.05735556131785467","0.03814592831321717","-0.07289781212268545","0.048259484781980395","-0.21076250023214674","-0.16295668322600163","0.054829232204051316","0.6287545532147063"
"-0.16017064532163897","0.04765567495618783","0.05390169652333843","0.00031684276637510174","-0.015321223329121777","-0.008901597531213133","-0.1711442266268322","0.044751558984859496","0.6285307316028984"
"-0.2227688465311753","-0.05970938161502301","-0.015047578166501865","-0.0033205732090049764","-0.04254451243584721","0.1281704166381633","-0.1738686900748181","0.034651340635423376","0.6317668190736203"
"-0.17997349536402507","0.002590284818826748","-0.007871079872085351","0.004234059970630571","-0.06681264186980311","0.09891871696533343","-0.17933177002766268","0.014631264978505322","0.6349189734399142"
"-0.15383290212864026","0.0006041786285250768","0.010822376733342381","0.013933835904977446","-0.057051659920352216","0.09899930016002442","-0.17933177002766268","0.004711407671023394","0.6346858259276144"
"-0.17125650103791704","-0.10492853481227842","0.07601059707625052","0.03412615792215147","-0.10119995442566682","0.09803230182373253","-0.18479484998050716","-0.020246051509391197","0.6335014365651311"
"-0.0626940770647311","-0.09739414487745658","-0.07571236828134292","0.05049452981136182","-0.14454229629295337","0.1768426662315222","-0.18752638995692952","-0.055123367997287794","0.6325408688144558"
"0.6108937371786978","0.5152619536831478","-0.08324464198695572","0.0053066313479862345","-0.12412482946290929","0.31214185011769685","-0.18752638995692952","-0.09469007157599398","0.6343687453108866"
"0.24161110388566057","-0.4341480596343479","-0.1147968384541921","0.16707837517610793","-0.08185709111299348","0.07780591995629367","-0.19025792993335175","-0.11461996671193489","0.6220772084624385"
"0.3105574380311349","-0.15021175595115643","-0.08416965805606608","-0.11426176045809734","0.11040738820325491","-0.02437357091188349","-0.18479484998050716","-0.0846913063126571","0.6395352941834512"
"0.2550866004779873","0.07353912337173216","-0.12091617552676823","-0.04081393787830732","0.185719184712321","-0.38570861590628924","-0.17933177002766268","-0.025025619121177924","0.6452054416825835"
"0.07756745261638763","0.05862410656198284","-0.009345006575612822","0.06280578388187902","0.23900160911528687","-0.35573166748124035","-0.1738686900748181","0.009862969931840786","0.6505025531620361"
"-0.17759424423091572","-0.005097868175889388","0.03259583189855511","-0.07826066900946377","0.1740776466074713","-0.21060133384276472","-0.1711442266268322","0.049610034552501334","0.644431391941748"
"-0.1871112487633531","0.016992758095594983","0.11237084410051094","-0.08133848252709307","0.10279561328854549","-0.17159906761232488","-0.16295668322600163","0.06970901816527417","0.6293607367466861"
"-0.16096026578502898","0.010227183460244777","0.042659193529535774","-0.03885532927617959","-0.10863262875414775","0.046056141248043046","-0.16295668322600163","0.06474908951153324","0.6094685909972629"
"-0.21484147266845727","0.02858905552929181","-0.09454813505124916","-0.05694914207678818","-0.005560241379670879","0.22720716291339185","-0.16841976317884622","0.049700215073478306","0.624501942590357"
"-0.21484147266845727","-0.05205966938528045","-0.018747642442943246","0.013933835904977446","-0.060723221938035574","0.15605220200124637","-0.17660023005124043","0.024641302806964388","0.6274209494443513"
"-0.17997349536402507","-0.009890150209262441","-0.006285338039324758","0.03477902745619405","-0.06627534011111774","0.06765243742522875","-0.17933177002766268","0.009671336324764399","0.6266468997035156"
"-0.1776046339738551","-0.022370585237351644","-0.006193852933588572","0.09964627901713878","-0.07711092557793937","0.056773706141944914","-0.18206331000408493","-0.01023601368093221","0.6264603816936757"
"-0.10232055663538198","-0.08788646234065764","0.13826112902385215","0.1280461037479909","-0.21277961964599543","0.08143216371738829","-0.18479484998050716","-0.049983078301592675","0.6203892204733878"
"0.3620697835243931","-0.022678111357140283","-0.06017006531793945","-0.016471230966148342","-0.10755802523677702","0.34735670619766007","-0.19298239338133774","-0.09487043261794825","0.622944517208194"
"0.3176848016875236","0.14232246549779248","-0.06598445203806161","-0.19890163219290302","-0.10164770589123795","0.0587077028145287","-0.19298239338133774","-0.08496184787558844","0.6270572393251634"
"0.3097678175677449","-0.1118350589191984","-0.092403317572323","0.1048226017513335","0.04225961514332709","0.011566533920298695","-0.19025792993335175","-0.08982032344323003","0.6308528808254049"
"0.3105574380311349","-0.04366676903271533","-0.08285837154051405","0.125714426840696","0.15473478329479798","-0.27111931305569936","-0.18479484998050716","-0.059902935609074524","0.6395352941834512"
"0.12116281398986725","-0.035619835564912446","-0.012181044853434648","0.03976881603780518","0.2548520109965053","-0.31165265998526803","-0.17660023005124043","-0.005095723985237011","0.6499056955305483"
"-0.19819710447963118","0.10730292860686051","-0.032378923197635245","-0.19484451437420988","0.2062262018354793","-0.21753148858619004","-0.16841976317884622","0.03988181085209579","0.639954959705591"
"-0.15382251238570094","-0.008993199026545561","0.12850271774532546","0.029183002878686238","0.10745222853048537","-0.15411251436437975","-0.165688223202424","0.049790395594455444","0.6442541998324002"
"-0.19503862262607116","-0.07329178523902151","-0.005390817005459811","0.0031614885932749067","-0.1125728416511738","0.09867696738126046","-0.1711442266268322","0.03474152115640051","0.6357396526832096"
"-0.2576368238356075","-0.018347118503450197","-0.07744042027858203","-0.03927503111949267","-0.11588620249640025","0.23462081682496308","-0.17933177002766268","0.014631264978505322","0.6311699614421327"
"-0.19582824308946115","-0.006955838482945788","-0.036251792673800534","-0.02808298196447705","-0.020515140329747023","0.13123257803642102","-0.17933177002766268","0.004711407671023394","0.6346858259276144"
"-0.14114702599970355","0.043773157693856174","0.02750316101257398","0.03739050559236436","0.017275083364457364","0.010277202805242832","-0.17933177002766268","-0.00023724841759533742","0.646063424527847"
"-0.16096026578502898","-0.004175289816523446","0.06331449740241732","0.11923236503841612","-0.062066476334749","-0.026710483557922243","-0.18206331000408493","-0.020246051509391197","0.6452893747870113"
"-0.14194703620603286","-0.1702137673257429","0.06674010636165013","0.10393656452656144","-0.1431094916031257","0.17458633678017443","-0.18206331000408493","-0.05981275508809746","0.6476301758105019"
"0.3343395596192892","0.10986564627176588","-0.11550838927658467","-0.14783790792314425","-0.1422139886719834","0.46782858226069235","-0.18206331000408493","-0.08954978188029886","0.658149791565471"
"0.5086690563985106","0.36479198598822843","-0.0426252550400883","-0.1427082187270954","-0.1383633260680716","0.03267933092933846","-0.18752638995692952","-0.09469007157599398","0.6385747264327761"
"0.1687062776802968","-0.31018940618287466","-0.1664757581833898","0.0630389515726085","-0.053648748782011535","0.09271381097412708","-0.18752638995692952","-0.09469007157599398","0.6346485223256465"
"0.3248225550868517","0.07055355729211739","-0.14563748409903587","-0.01605152912283525","0.21446482880198828","-0.22276939624110445","-0.18206331000408493","-0.06982279291655645","0.655258762412953"
"0.23447335048633247","-0.10300649656359938","-0.004394645854110211","0.20797598813006088","0.2226139054753831","-0.3284139644809943","-0.17933177002766268","-0.0498027172596384","0.6718029098857502"
"-0.03496385315962698","-0.07069062680914255","0.03132520542999694","-0.059560620212958486","0.1854505338329783","-0.2730533097282831","-0.1738686900748181","-4.5614810519028684e-05","0.6658623112723501"
"-0.24734058858271946","0.0353930709296156","0.041205596849505234","-0.2280009599959437","0.1456006533971467","-0.23485687544475317","-0.16295668322600163","0.05978916085779224","0.6364857247225693"
"-0.13400927260037548","0.17908465040086013","0.0535560861238906","-0.13063013234730772","0.013334870467431311","-0.0894847922222046","-0.1602251432495794","0.06979919868625131","0.6138144606265321"
