"AccX","AccY","AccZ","GyroX","GyroY","GyroZ","MagX","MagY","MagZ"
"-0.03755089915152316","-0.04742115041180171","0.02167860928070335","-0.019828845712653025","-0.16531796429545437","0.1758756678952303","0.11271655853955834","0.011441129048940187","-0.6076453563123707"
"0.5570021405523302","0.03391950827229501","0.39292516835815394","0.15182920820239912","-0.18860104050515372","0.13727631763824535","0.1216542139546395","-0.02114785671916234","-0.624021637576312"
"0.425229030852654","0.27504561336324207","-0.09006536487017597","-0.23159174243317782","-0.1982724721614904","0.010277202805242832","0.1216542139546395","-0.013009064700978313","-0.6334034934712579"
"0.19344425561887044","0.14820390253875032","-0.00970078198680911","0.11177099893507236","0.03688659755647339","-0.06337583714232337","0.1149527415254377","0.011497491874550828","-0.6287218914242769"
"0.22598493050488996","0.026910475458778785","0.16712976238949367","-0.0050926476585491185","0.48114560169616055","-0.32172555932164193","0.10600800958192018","0.10152019693994903","-0.5868672500162082"
"-0.13916258509828916","0.17336979000812117","0.06265377163876708","0.09750113626242746","0.3152089085554952","-0.19754685630282412","0.10154979666703409","0.12197990263663057","-0.5632633958709716"
"-0.18758917693856286","-0.021806787351072453","0.09418563808250652","0.10692111096789894","0.14998861775974387","0.04178523192942049","0.11048037555367891","0.08932328147779521","-0.5339241129231588"
"-0.1772617724568568","0.022938263078175442","0.048127969850210124","0.03198101516744015","-0.021141992381546622","0.07909525107134956","0.11048037555367891","0.0688072129555031","-0.5484072363872254"
"-0.22807800517317917","-0.1026349025021881","0.037454707514321534","-0.03036802533362607","-0.20624244824865676","0.05040763376135658","0.10600800958192018","0.06464763642543399","-0.5728690733777254"
"-0.21060245754920567","-0.07985234246117927","0.004621719566778533","-0.02141438600961357","-0.11525935044460066","0.03324341329217541","0.10824419256779955","0.06048805989536488","-0.5818778932529916"
"-0.18519953606251416","-0.003701187048515957","0.01402435543410896","-0.013813119291832127","-0.03699239426276505","0.0577407044782368","0.11048037555367891","0.040039626763805604","-0.5839295913612301"
"-0.18362029513573414","0.11733596826496506","0.03118289526551843","0.008477711941907329","-0.05902176636886524","0.11237611047872902","0.1149527415254377","0.007394278170092437","-0.5821669961682433"
"-0.017716879880319007","-0.03314681301827876","0.01662659844171608","-0.05387132855915888","-0.20543649561062868","0.19924479435561782","0.1283556863838413","-0.05379320531287551","-0.6070205209794072"
"0.45698008527528355","0.023361111492884848","0.33491344630966235","0.1674514434812751","-0.24815198542611566","0.17233000732882667","0.1350642353414794","-0.09048540478543635","-0.6328905689441983"
"0.3164795915065599","0.2638593507559301","-0.11879168807133897","-0.10190387284943428","-0.1182145101173702","0.0048781287609464055","0.1395366013132382","-0.09446462027355118","-0.6328625912427222"
"0.2553567337944102","-0.019910376279042477","0.04511912637266439","0.10235102422960088","0.15616758798462563","-0.054350519336932315","0.1350642353414794","-0.06592248538429649","-0.6217274660552815"
"0.1624828216596309","0.1043942440571929","0.11497308710811811","-0.12927775974107666","0.36007360540572375","-0.3320402082420889","0.11718892451131707","0.03206992322245366","-0.5896277165618384"
"-0.12725593968980312","0.10659818124901152","0.06168809552266286","0.03659773544388409","0.29900030550181994","-0.18481471154164747","0.11048037555367891","0.060600785546586246","-0.5602977595145177"
"-0.20901282687948633","-0.024574522429170263","0.09224412083854965","0.02414658075892921","0.22843467452780794","-0.02695223314199522","0.11942510749719644","0.06084878197927327","-0.5264820443305477"
"-0.1693240088511994","0.09056838225502838","0.09880055341630979","0.017198183575190335","0.1353023696890104","0.0010101354157788156","0.11942510749719644","0.06084878197927327","-0.5170628848336338"
"-0.22647798476052045","-0.04353863314947007","0.05368823127662065","-0.07499632133925088","-0.20516784473128602","-0.00817634877899421","0.11048037555367891","0.07297806205069433","-0.5424013564703812"
"-0.23441574836617785","-0.02636842479460403","0.0359401207638002","-0.03451841022861103","-0.13746782313692932","0.020108352557543792","0.10824419256779955","0.07285406383435085","-0.5580129138939791"
"-0.17886179286951548","-0.015105280657344893","0.017246664158372466","0.026897959509537214","-0.08552865313067684","0.09682355390336767","0.11271655853955834","0.040152352415026966","-0.5652871162777343"
"-0.17886179286951548","0.02675671239888447","-0.09059394548109616","0.04321969786060167","-0.05893221607575101","0.14404530599228865","0.11942510749719644","-0.004802637292061452","-0.5667326308539934"
"-0.034382027555023814","0.028050884819661684","0.09874972835756746","0.07842801916075498","-0.179287810021274","0.15992019534641397","0.13059186936972067","-0.05361284427092123","-0.5885179344032911"
"0.5689087859608163","0.07192461124284175","0.45144514099406896","0.05907510083020713","-0.16630301751971086","0.16266002396590767","0.1350642353414794","-0.08240297559286296","-0.593274143654208"
"0.23233306344082805","0.1768807132090416","-0.22661196768731062","-0.2537426730524796","-0.37799991044174686","0.0398512352568367","0.1350642353414794","-0.08233534020213021","-0.6086245758640301"
"0.2172471566929032","0.1165415257888444","0.023721776642144882","0.15112970513021065","0.14980951717351543","-0.15693292617856447","0.1283556863838413","-0.04553041507834792","-0.6039429738170491"
"0.21169903396329454","0.048898593023666934","0.16734322763621146","-0.017683702957941697","0.47801134143716256","-0.32019447862251316","0.1149527415254377","0.0402199878057598","-0.5623494576227562"
"-0.10741153067565963","0.17513806519690586","0.019899732224721915","-0.06809455769365791","0.2098977638531626","-0.20496051021439535","0.11048037555367891","0.08111685406887835","-0.5458519396524191"
"-0.20981283708581566","-0.00454688387793473","0.0808796377037654","0.027364294890996198","0.15410793124299837","0.021800599646054616","0.1149527415254377","0.07304569744142725","-0.5269390134546554"
"-0.2026646939435483","0.039224333838649136","0.07520756114812174","0.04988829381546514","0.05622946086914672","0.07748358717752973","0.11942510749719644","0.048539140865898105","-0.5165033308041141"
"-0.20028544281043895","-0.03700370310396135","0.058414961739657024","0.004793662428381352","-0.0917076233555586","0.02929483675231682","0.11942510749719644","0.04443592716143963","-0.5286643050456742"
"-0.22965724609995913","-0.047344268881854557","0.039213254546806034","-0.0025744365986706016","-0.10487151644335017","0.0454920588852061","0.11942510749719644","0.03212628604806438","-0.5403589842626346"
"-0.1899684280716722","-0.022742179298762915","0.0248297629227276","0.015612643278229787","-0.07424531619828406","0.05669312294725391","0.11942510749719644","0.007563366646924521","-0.548845553710349"
"-0.16694475771809006","-0.010466761683866156","-0.058157392991743315","0.041634157563641125","-0.12376662829045236","0.10713820282381457","0.12388332041208253","-0.025183435032887894","-0.5684206188430443"
"-0.13599371350178982","-0.008660045730107865","-0.038315290058739","0.07861455331333858","-0.20633199854177098","0.1254305880186696","0.1350642353414794","-0.06181927167983809","-0.5942160596038994"
"0.5688983962178769","0.19972734119167299","0.5175787074295843","0.07474396964722901","-0.007261696948841217","0.1462210522489454","0.13730041832735876","-0.09869183219435321","-0.5955683151752386"
"0.2355123247802667","0.2045324368133706","-0.25328495851528365","-0.3266308931745189","-0.4325360389483119","0.023009347566419484","0.1395366013132382","-0.10272741050807876","-0.6047916307618205"
"0.2093093930872459","0.08988926207382847","-0.058391188261958014","0.23530324148355733","0.25055359692702234","0.06080286587649448","0.1395366013132382","-0.09862419680362036","-0.6043439875382048"
"0.22598493050488996","0.007856669620207295","0.2240538281808995","-0.03866879512359599","0.4051174028421806","-0.3612919079149188","0.11941803096876011","0.011621490090894382","-0.5644571111339469"
"-0.11138041247848832","0.21602622554047118","0.06741099713704884","-0.09985199717101474","0.12545183744644528","-0.19617694199307728","0.11271655853955834","0.0688072129555031","-0.5511770288333475"
"-0.21378171888864436","0.033599168564181825","0.05386103647634457","-0.02211388908180205","0.15527208505348333","-0.05958842699184676","0.1149527415254377","0.08528770316406958","-0.5337002913113509"
"-0.19949582234704893","0.03643097158390227","0.05924849270303118","0.024612916140388193","0.03921490517744332","0.0023800497255256703","0.1149527415254377","0.07714891114588564","-0.5332712998887192"
"-0.18360990539279481","-0.02467703113576648","0.08575884334302875","-0.060073589132563374","-0.13245300672253252","0.02921425355762583","0.10824419256779955","0.0851637049477261","-0.5491626343270769"
"-0.2288572358936298","-0.06165704704035109","0.03935556471128454","-0.11015800910125831","-0.20131718212737418","-0.0015685268143329112","0.10154979666703409","0.0932010438798108","-0.5682620785346804"
"-0.18599954626884352","-0.03230111618885998","-0.0062955030510732255","-0.030834360715085055","-0.10531926790892131","0.051455215292339464","0.10600800958192018","0.08100412841765699","-0.582661268894319"
"-0.19631656100761025","0.03160024878555564","-0.03670921820248148","0.05450501409190909","-0.08812561163098948","0.13534232096566157","0.11048037555367891","0.040095989589416244","-0.5874174781452359"
"-0.17012401905752872","0.03635409005395511","-0.06934907092680363","0.02344707768674073","-0.17042233100296536","0.14380355640821568","0.1149527415254377","0.0032910644656340467","-0.6068153511685832"
"0.31805883243333993","0.0007963824533929818","0.19096671493964484","0.08001355945771553","-0.10666252230563472","0.16789793162082214","0.1283556863838413","-0.05379320531287551","-0.6070205209794072"
"0.45063195233934544","0.18337720248957667","0.3671162035288005","-0.13594635569594013","-0.14266174013755453","0.04073765039843761","0.12388332041208253","-0.03749307614626315","-0.6201513888721345"
"0.13866953084265873","0.24256316696056646","-0.16146440739139642","-0.14074961012496767","-0.17830275679701746","0.0023800497255256703","0.1216542139546395","-0.029421919518811953","-0.63018605780152"
"0.3053625665614638","-0.0153487388355109","0.13419512432446604","0.20056125556486304","0.4487283955888099","-0.15056685379797613","0.1216542139546395","0.003471425507588163","-0.5943839258127553"
"0.06167114591919419","0.16600197672151823","0.14996105754633576","-0.02850268380779013","0.4251766684997678","-0.3108468280383581","0.11048037555367894","0.08933455404291733","-0.5616127114838887"
"-0.17409290086035742","0.026743898810559937","0.02586659412107106","-0.029901689952167083","0.15912274765739515","-0.11293450187728313","0.10600800958192018","0.11388620087893508","-0.544322491971732"
"-0.19551655080128091","-0.01891091638972938","0.09872939833407052","-0.03498474561007001","0.061244277283543515","-0.006322935301101407","0.11048037555367891","0.11388620087893508","-0.5350432209821981"
"-0.18599954626884352","0.042043323270045056","0.04483450604370736","0.011508891921390728","0.006976799656321097","0.04678139000026196","0.10824419256779955","0.10157655976555975","-0.5378316652293043"
"-0.22012985182458242","-0.05692883294860067","0.040128105604167914","-0.020714882937425096","-0.13182615467073291","0.04460564374360519","0.10600800958192018","0.09331376953103217","-0.5557280682734406"
"-0.1971165712139396","-0.05226468679847288","0.02428085228831047","-0.02626427397678701","-0.10702072347809166","0.020511268530998748","0.10377890312447716","0.09325740670542153","-0.5680755605248405"
"-0.17806178266318615","-0.0027914222774745455","0.01334329964696178","0.010296419929597367","-0.11911001304851247","0.06636310631017289","0.10600800958192018","0.06875085012989238","-0.5822882328746393"
"-0.19155805874139156","0.05256327928448163","0.01582356251358732","0.02848349980649776","-0.12081146861768283","0.11028094741676324","0.11048037555367891","0.03600404845007997","-0.590308507297754"
"-0.018506500343709015","0.030242008423155785","0.03800361814873866","-0.03726978897921904","-0.21376467287025191","0.16838143078896808","0.11942510749719644","-0.017112278405436703","-0.6125880835731274"
"0.5411266133410155","0.17033296957520827","0.3300545706938959","0.077961683779296","-0.19621281541986318","0.21310510384246836","0.1283556863838413","-0.061999632721792285","-0.6252992859437152"
"0.3641061731405043","0.24076926459513268","-0.14793477675418906","-0.08469609727359775","-0.07899148173333817","0.012291782672517619","0.13282805235560002","-0.053736842487264784","-0.6252060269387952"
"0.28234928595082104","-0.06482200335650923","0.09298616669618759","0.13270945756258076","0.1645853155373631","-0.0934333687620632","0.12389039694051887","-0.012885066484634757","-0.6089696341822338"
"0.13470064903983006","0.14359101074192068","0.15183141970805336","-0.07774770008985889","0.36195416156112253","-0.3437247714722827","0.11271655853955834","0.07708127575515272","-0.582540032187923"
"-0.1471003487039466","0.1009602023862197","0.06688241652612864","0.0869153231033085","0.3330294168852267","-0.16080091952373204","0.11048037555367891","0.08933455404291733","-0.5462343015725908"
"-0.2240987336274111","-0.006392040596666599","0.10222616237554258","0.05609055438886964","0.2206437990268701","0.008826705300804987","0.11718892451131707","0.077261636797107","-0.5211662810501111"
"-0.160596624782152","0.07907459352792776","0.08119475306796782","-0.021647553700343065","0.04002085781547138","0.03316283009748441","0.11718892451131707","0.077261636797107","-0.5240106807001692"
"-0.20425432461326762","-0.10368561674479929","0.0788568003658208","-0.10306971130308173","-0.28513625648229196","-0.0076122664161572704","0.10154979666703409","0.10140747128872767","-0.5654083529841303"
"-0.21220247796186437","-0.043628328267741746","0.003503568274447347","-0.06944693029988895","-0.18555633053926998","0.02067243492038073","0.10154979666703409","0.10140747128872767","-0.5838736359582782"
"-0.20664396548931632","-0.0036114919302442676","-0.008247185306778567","-0.01679766573316963","-0.10737892465054857","0.06692718867300983","0.10154979666703409","0.08505097929650474","-0.5896090647608545"
"-0.19313729966817153","0.017300284215383616","-0.021268565356562647","0.029229636416832138","-0.05812626343772296","0.10584887170875869","0.10824419256779955","0.04823478160760043","-0.5936098760719198"
"-0.17727216219979613","0.04487512628976549","-0.05632769087701956","0.07339159704099794","-0.04890258324695743","0.10044979766446227","0.11271655853955834","0.007337915344481876","-0.6037751076081932"
"0.0378474653592827","-0.04408961744742473","0.13160304632860736","0.07175942320589151","-0.16809402338199542","0.21254102147963141","0.1283556863838413","-0.05782878362660098","-0.6221751092788973"
"0.5744672984333643","0.32767102061207404","0.40948397249640395","0.0422870270976837","-0.1865413837635265","0.14597930266487244","0.13282805235560002","-0.09060940300177982","-0.6298689771847922"
"0.22042641803234195","0.2795175556885019","-0.11879168807133897","-0.08488263142618134","-0.05552930493741033","0.08360790997404505","0.14177278429911755","-0.1108774750913849","-0.628582002916897"
"0.329175857378436","-0.18229698111577178","0.1463423133638821","0.2598791160864458","0.2671204011531546","-0.06950015993883871","0.1395366013132382","-0.08221134198578664","-0.6178105878486441"
"0.14500727403565744","0.15498229076242503","0.12719143122977344","-0.1490503799149376","0.2825230515688019","-0.3422742739678448","0.11718892451131707","0.01976028210907841","-0.5921457096946768"
"-0.12963519082291244","0.11233866881839957","0.04785351453300156","0.01314106575649717","0.2771500339819482","-0.22091598276321164","0.11271655853955834","0.060612058111708354","-0.5664528538392336"
"-0.2360053790358972","0.0013217395746985834","0.09572055485652477","0.012394929146162796","0.27320982108492214","-0.04476111916870433","0.1149527415254377","0.06894248373696878","-0.5326744422572316"
"-0.160596624782152","0.11438884295032388","0.09460240356419358","0.03151467978598116","0.08193039499293027","0.0045557959821824374","0.11942510749719644","0.05674556827481488","-0.5291865554732259"
"-0.20107506327382896","-0.020794513873434832","0.0834005606173848","-0.07364394873301981","-0.20373504004145837","0.045733808469279075","0.11048037555367891","0.060600785546586246","-0.5512516360372836"
"-0.2280676154302398","-0.06930675927009365","0.03487279453021134","-0.08833351324897783","-0.178123656210789","0.044041561380768264","0.10600800958192018","0.06048805989536488","-0.5724960373580457"
"-0.1899684280716722","-0.05705696883184593","-0.006092202816103921","-0.03451841022861103","-0.14104983486149844","0.08691182095637569","0.11048037555367891","0.036049138710568494","-0.5864475844940685"
"-0.18599954626884352","-0.02467703113576648","-0.06490696079272429","0.005959500882028813","-0.11167733872003154","0.12099851231066508","0.1149527415254377","-0.0008121492388243437","-0.5941321264994716"
"-0.14868997937366593","-0.017334845025812572","-0.03064070618864768","-0.0027609707512541957","-0.15645248527714575","0.07208451313323329","0.11942510749719644","-0.01710100584031459","-0.6119072928372119"
"0.4466630705365169","0.07075857470530982","0.2032358841200425","-0.04715609906614952","-0.17319839008950644","0.13292482512493184","0.12611950339796194","-0.057952781842944535","-0.6068713065715352"
"0.41967051838010605","0.29106259876890067","0.34535291337533625","-0.10442208390931279","-0.18734733640155454","-0.02260074062868168","0.1216542139546395","-0.029478282344422676","-0.6359960938080322"
"0.16407245232935025","0.3279401059668891","-0.23661433924780054","-0.08278412220961592","-0.23122698002752645","0.07506609133679996","0.12388332041208253","-0.041596289850721536","-0.6447717661709984"
"0.3077522074375126","-0.18318111871016413","0.13023076974256456","0.27484848183127925","0.5889641546056915","-0.15000277143513918","0.1216542139546395","-0.0006317881968702274","-0.6003525021276315"
"0.04817486984098877","0.09345143962804693","0.18262124029415483","-0.1129093878518663","0.40046078760024073","-0.3304285443482691","0.10600800958192018","0.08915419300096314","-0.5677584799081127"
"-0.19551655080128091","0.08307243308518016","0.04125642190824756","0.02274757461455225","0.20416654509385204","-0.11293450187728313","0.11048037555367891","0.10972662434886597","-0.5471668916217902"
"-0.19948543260410959","0.06403144083493319","0.07815541455517669","0.02251440692382276","0.14533200251780398","0.03267933092933846","0.11271655853955834","0.09349413057298644","-0.5248406858439567"
"-0.15821737364904265","0.07338536031183783","0.079822476481925","0.02853013334464366","0.07584097506116273","0.0596747011508206","0.11718892451131707","0.08136485050156539","-0.5180514302857852"
"-0.22250910295769177","-0.06168267421700015","0.08360386085235412","-0.03960146588651396","-0.171049183054765","0.03912598650461778","0.11048037555367891","0.07701364036441996","-0.5425878744802212"
"-0.2272779949668498","-0.0454606713981491","0.04608480248876859","-0.051772819342593444","-0.15367642619060465","0.02083360130976272","0.10600800958192018","0.08106049124326764","-0.5613142826681449"
"-0.17489291106668675","-0.02376726636472507","0.018100525145243553","-0.003926809204901656","-0.11955776451408365","0.07361559383236213","0.10600800958192018","0.06054442272097552","-0.5726825553678855"
"-0.17488252132374743","0.020080832881805958","-0.07222576925161932","0.024799450292971786","-0.15645248527714575","0.10746053560257854","0.11048037555367891","0.027797621041163106","-0.5926399824207524"
"-0.062964210381154","-0.0471264378803376","0.0005252198321470079","0.03240071701075323","-0.2190481401639914","0.16386877188627255","0.12388332041208253","-0.03743671332065251","-0.6170458640083005"
"0.5427162440107348","0.17328009488984947","0.5249178459119762","0.06415815648811007","-0.07523036942254059","0.07579134008901889","0.1149527415254377","-0.029534645170033395","-0.627071207037194"
"0.0997703332777618","0.250481964545124","-0.24674885596102045","-0.37634224483804657","-0.4558191151580113","0.1209179291159741","0.12611950339796194","-0.07846885036523665","-0.6336273150830657"
"0.35060989706229884","0.010175929106946664","0.05549760336784748","0.3084246292963261","0.19377871109260153","0.0821574124696072","0.13059186936972067","-0.07014969730509843","-0.6335340560781457"
"0.2307434327711087","0.004025406711173762","0.16829873874056722","0.0303488413323337","0.3852372377708219","-0.30601183635689866","0.1149527415254377","0.007394278170092437","-0.6074215347005628"
"-0.015337628747209668","0.09378459292448463","0.11659948898787256","-0.00112879691614775","0.313149251813868","-0.2576619195423038","0.10377890312447716","0.07684455188758788","-0.5857854455591369"
"-0.18044103379629547","0.08109914048320302","0.027940256517757993","-0.03405207484715205","0.2226139054753831","-0.11486849854986692","0.10600800958192018","0.09741698323549064","-0.5589921334456385"
"-0.212981708682315","0.03453456051187229","0.06450380377698776","0.021162034317591706","0.15455568270856954","-0.021633742292389783","0.11048037555367891","0.09337013235664296","-0.5403030288596826"
"-0.1899684280716722","-0.01798833803036344","0.10248028766925422","0.03519872929950714","0.05802046673143129","0.02824725522133393","0.11271655853955834","0.08528770316406958","-0.5337002913113509"
"-0.21775060069147303","-0.043589887502768175","0.07432320512600527","-0.03913513050505498","-0.12143832066948243","0.01406461295571943","0.11048037555367891","0.08932328147779521","-0.5552617732488409"
"-0.18916841786534286","-0.018936543566378434","0.0316301557824509","-0.017963504186817088","-0.08875246368278907","0.028166672026642938","0.10600800958192018","0.08100412841765699","-0.561127764658305"
"-0.1804514235392348","-0.00277860868915002","0.011767722825949657","-0.016564498042440135","-0.11445339780657261","0.08747590331921264","0.10600800958192018","0.056441209016517134","-0.5786045021803017"
"-0.15900699411243266","-0.013324191880235653","-0.08937414407128032","-0.014932324207333689","-0.19361585691955055","0.10899161630170735","0.11048037555367891","0.019579921067124213","-0.5953351676629387"
"0.1148458502827472","-0.0012025373252332152","0.1482228405373482","0.004327327046922368","-0.14615420156900946","0.11310135923094793","0.11718892451131707","-0.013065427526588954","-0.5969765261495296"
"0.41729126724699667","0.2425119126072683","0.295737491031077","-0.06786139000292842","-0.13057245056713374","0.012855865035354564","0.1149527415254377","0.007337915344481876","-0.616271814267465"
"0.22598493050488996","0.31653601235806017","-0.20873171202176016","-0.1729733849837835","-0.1897651943156387","0.09980513210693434","0.11942510749719644","-0.008962213822130563","-0.6213637559360937"
"0.3133003301671213","-0.06782038302444852","0.14630165331688824","0.24010649591258484","0.4866977198692427","-0.1920671990638367","0.11271655853955834","0.036049138710568494","-0.5837430733513903"
"0.0283304608268453","0.17169120993760814","0.15963814873087473","-0.03130069609654404","0.3647302206476636","-0.32245080807386095","0.10377890312447716","0.11775269071582847","-0.5534432226529021"
"-0.13916258509828916","0.05137161557030063","0.06427000850677306","0.005539799038715727","0.229240627165836","-0.1300987223464643","0.10600800958192018","0.11793305175778275","-0.5322454508345998"
"-0.1907580485350622","-0.02656062861947193","0.1010470210127206","0.045085039386437605","0.10924323439276994","0.08634773859353877","0.11271655853955834","0.08939091686852806","-0.515235008337203"
"-0.19949582234704893","-0.011274017748311348","0.06809205292419603","0.024612916140388193","-0.07514081912942636","0.019302520610633877","0.10824419256779955","0.08522006777333682","-0.5339614165251267"
"-0.21378171888864436","-0.08647696762495968","-0.008979066152668072","-0.0687474272277005","-0.2359731455625806","0.032356998150574495","0.10154979666703409","0.0932010438798108","-0.5681128641268085"
"-0.17091363952091873","-0.024728285489064587","0.015091681667697818","-0.04920797474456905","-0.11105048666823193","0.060964032265876454","0.10600800958192018","0.0769009147131986","-0.5763196565597631"
"-0.17092402926385808","0.029588515418604914","0.03440520398978194","-0.016797665733169626","-0.0904539192519594","0.08739532012452166","0.11048037555367891","0.05656520723286069","-0.5814582277308518"
"-0.25188090624721193","0.09856406136953318","0.03311424749772684","0.018364022028837797","-0.07773777762973896","0.10439837420432084","0.11048037555367891","0.015487979927787854","-0.5803297937713205"
"-0.02326500260992773","-0.04652419922908483","0.01621999797177747","-0.03172039793985713","-0.17579534858981907","0.24767529436490368","0.1283556863838413","-0.057896419017333896","-0.6037564558072092"
