"AccX","AccY","AccZ","GyroX","GyroY","GyroZ","MagX","MagY","MagZ"
"-0.10627904869527134","0.08305961949685561","0.09870906831057362","-0.014745790054750097","-0.0541860505406969","-0.05628451600951612","-0.16841976317884622","0.05464887116209704","0.6129378259802845"
"-0.2227688465311753","-0.006917397717972206","-0.05949917454254074","-0.0324199010120456","-0.05176819262661273","0.1968272985148881","-0.1738686900748181","0.039611269289164294","0.6240356475657574"
"-0.22038959539806596","-0.04625511387426976","-0.04247277986386132","-0.01908270910231865","-0.04191766038404761","0.1707989266296978","-0.17933177002766268","0.019681374153223383","0.6272344314345113"
"-0.16491875784491833","-0.006084514476877958","-0.00532982693496902","0.005959500882028813","-0.04272361302207567","0.10359254225741094","-0.17933177002766268","0.009671336324764399","0.630750295919993"
"-0.1776046339738551","-0.04252635967183244","0.04574935710106924","0.06798210661607373","-0.08114068876807966","0.050971716124193524","-0.18479484998050716","-0.010326194201909349","0.626003412569568"
"-0.0999309157593333","-0.1463804930421229","0.10960596090492841","0.10071885039449445","-0.12108011949702552","0.10705761962912355","-0.18206331000408493","-0.0547626459133794","0.6360753851009214"
"0.518975681394338","0.23710457833431792","-0.17594954913295946","-0.1284849895925964","-0.11069228549577502","0.4391409649506994","-0.18206331000408493","-0.07469254104932031","0.6352920094595941"
"0.4246783744768689","0.24884182523958456","-0.08690404621640324","-0.09462904089867412","-0.08633460576870491","-0.019296829646351033","-0.18479484998050716","-0.07478272157029738","0.6351987504546741"
"0.23765261182577122","-0.2719152178575128","-0.13784092008796298","0.1410102273525507","0.010290160501547548","0.028005505637260956","-0.18479484998050716","-0.08468003374753508","0.6350588619472941"
"0.28043757324998214","0.04191518738679979","-0.10648185884394747","-0.04384511785779072","0.19601746842045722","-0.30037101272852923","-0.17933177002766268","-0.02989536725394187","0.6411393490680742"
"-0.004843988378474137","-0.000818129675497411","0.017490624440335636","0.03156131332412705","0.2552102121689622","-0.31761581639240144","-0.1711442266268322","0.01986173519517766","0.6582337246698992"
"-0.2402028351833914","0.07375695437324911","0.029332863127297736","-0.09766022087815751","0.06554269135302648","-0.14927752268292027","-0.16841976317884622","0.044751558984859496","0.6440676818225604"
"-0.103899797562162","0.005229884013679282","0.15316303624710234","0.06168657896637745","0.01808103600248542","-0.16080091952373204","-0.16295668322600163","0.04493192002681369","0.6364390952201092"
"-0.24417171698622012","-0.004944105115995066","-0.06821058961097552","-0.014932324207333689","-0.10012535090829605","0.16104836007208786","-0.16841976317884622","0.029871773023636645","0.6430604845694249"
"-0.2402028351833914","0.011367592821127665","-0.05299356702352293","-0.026590708743808297","-0.03663419309030814","0.24719179519675774","-0.17933177002766268","0.00977278941086365","0.6504559236595762"
"-0.14906401011948223","-0.05603188176588378","-0.0010198619536197228","0.05054116334950773","-0.046663825919101724","0.13155491081518497","-0.18206331000408493","-0.01023601368093221","0.6573104605211916"
"-0.1522328817159816","-0.11074590391161361","0.03354117799116238","0.04750998337002433","-0.06260377809343438","0.040415317619673645","-0.18479484998050716","-0.0252059801631322","0.656900120899544"
"-0.16333951691813833","-0.037759704815108444","0.15587709438394257","0.020788966012424515","-0.06896184890454458","0.033968662044394325","-0.17933177002766268","-0.04971253673866126","0.6482270334419894"
"0.0997703332777618","-0.03760594175521411","-0.13049161659382255","-0.023372994611741305","-0.13881107753364275","0.24195388754184327","-0.18479484998050716","-0.06982279291655645","0.6430977881713928"
"0.43180573813325757","0.04340156363244489","-0.09611354686051284","-0.04701619845171181","-0.19451135985069282","0.18860781265640697","-0.18752638995692952","-0.09459989105501693","0.6268334177133554"
"0.18931952767195162","-0.10769626989037621","-0.14389926709004833","-0.020341814632257905","-0.024813554399229984","0.15919494659419506","-0.18752638995692952","-0.0996500002297349","0.6344620043158066"
"0.27964795278659205","0.08295711079025941","-0.18954016984065764","0.0363179342150087","0.13861573053423684","-0.3305091275429601","-0.17933177002766268","-0.05972257456712032","0.6360660592004294"
"0.13620716176603462","-0.10460819510416523","0.03942671979352381","0.16982975392671593","0.2897766253110544","-0.2998069303656923","-0.17933177002766268","-0.0348440233425606","0.6645473593029787"
"-0.21008297040223856","-0.002137929272923678","0.04506830131392206","-0.146112467011746","0.14909311482860158","-0.22236648026764952","-0.1738686900748181","0.029691411981682448","0.6551655034080331"
"-0.15938102485824898","0.05149975145354589","0.11235051407701405","0.0003634763045210002","0.009931959329090632","-0.26910473318842454","-0.16295668322600163","0.04493192002681369","0.624464638988389"
"-0.18632162829996313","0.04196644174009788","0.02229867499735973","-0.019036075564172753","-0.07737957645728206","0.02252584839827354","-0.16841976317884622","0.044751558984859496","0.6204358499758478"
"-0.21247261127828726","-0.009813268679315283","-0.04171040398272643","-0.08754074310049756","-0.013619767759951435","0.18175824110767266","-0.1738686900748181","0.0445711979429053","0.620109443458628"
"-0.1776046339738551","-0.007968111960583415","-0.008541970647484062","-0.037129888364781344","-0.05382784936823999","0.10802461796541546","-0.1738686900748181","0.029691411981682448","0.615819529232311"
"-0.15858101465191962","-0.004175289816523457","0.0031071328162572006","0.05632372207959914","-0.06681264186980311","0.043880394991386275","-0.17933177002766268","0.014631264978505401","0.6152226716008231"
"-0.20691409880573922","-0.1989290187610077","-0.013421176286747416","0.07894098808035988","-0.044156417711903324","0.07240684591199724","-0.17660023005124043","-0.015015581292719017","0.6182908928626892"
"-0.042091216816015666","0.00419198335939261","0.07314406376318328","0.03477902745619405","-0.06663354128357465","0.1446093883551256","-0.18206331000408493","-0.0399843130382558","0.6365137024240453"
"0.5546332791621602","0.4165204420543435","-0.09561546128483803","-0.002014834140919821","-0.1437363436549253","0.36992000071113773","-0.18206331000408493","-0.07469254104932031","0.6315429974618125"
"0.20992238792066717","-0.250759983533719","-0.10092159741753692","0.04168079110178702","-0.07612587235368289","0.13340832429307775","-0.19025792993335175","-0.09478025209697112","0.6306756887160571"
"0.3620697835243931","0.03204872437691407","-0.17249344513848125","-0.05676260792420459","0.07870658444081804","-0.21068191703745576","-0.19025792993335175","-0.06008329665102872","0.6281110660807586"
"0.19010914813534163","-0.03282647331016558","-0.05952966957778613","0.16232175428522627","0.22270345576849734","-0.3653210676494683","-0.17933177002766268","-0.03493420386353758","0.6448417315633955"
"-0.053187462275233056","-0.023549435363208113","-0.0016805877172699683","-0.04790223567648389","0.2336285915284332","-0.27861355016196154","-0.1738686900748181","0.014811626020459597","0.6510527812910635"
"-0.2164311033381766","-0.0001774502592710629","0.0874767303285194","-0.10997147494867471","0.13324271294738316","-0.24162586379879647","-0.16841976317884622","0.05464887116209704","0.6365137024240453"
"-0.11023754075516069","0.06674792155973289","0.14002984106808514","0.005493165500569828","-0.014425720397979491","-0.17885155513451412","-0.16841976317884622","0.06456872846957896","0.6133574915024244"
"-0.20613486808528855","0.026654203692288242","-0.056398845959258814","-0.038249093280282906","-0.045410121815502524","0.16096777687739688","-0.16841976317884622","0.049700215073478306","0.6206689974881475"
"-0.23148584085728338","-0.01456710994771476","-0.06644187756674255","-0.04533739107845947","-0.03072387374476906","0.19997004310783673","-0.17933177002766268","0.0344709795934691","0.6277287041605869"
"-0.18870087943307245","-0.025228015433721135","0.0028225124873001712","0.010016618700721977","-0.07075285476682916","0.09513130681485683","-0.18206331000408493","0.019501013111269266","0.6271411724295916"
"-0.17443576237735572","-0.024305437074355198","0.02366078657165409","0.0479763187514833","-0.0529323464370977","0.04089881678781959","-0.18479484998050716","0.009490975282810201","0.6269546544197514"
"-0.18632162829996313","-0.17688964684282144","0.05094367810453502","0.10934605495148567","-0.025529956744143812","0.09569538917769375","-0.17660023005124043","-0.02980518673296473","0.6411859785705344"
"0.1235420651229766","-0.03928452182572714","-0.0658116468383377","-0.022067255543656152","-0.028395566123799124","0.2857911454537427","-0.18206331000408493","-0.0647726837418384","0.6671959150427055"
"0.6307173667069625","0.38562688060390915","-0.0011011820476074454","-0.008730063633929195","-0.11060273520266078","-0.016154085053402364","-0.19025792993335175","-0.07478272157029738","0.6472478138903301"
"0.051416469638063525","-0.4210910131316549","-0.2227594282346423","0.030302207794187797","-0.160482248467286","0.19481271864761326","-0.18752638995692952","-0.07486162952615232","0.6393021466711515"
"0.33829805167917837","0.21642344677853156","-0.20034557732927624","-0.18728988119457435","0.24535967992639715","-0.26862123402027854","-0.17660023005124043","-0.034855295907682715","0.6647245514123267"
"0.15365154016118995","-0.06248993028144534","0.023945406900611116","0.2702317615548353","0.27240386844689407","-0.3072205842772635","-0.17933177002766268","-0.020065690467437","0.6886175084728151"
"-0.1443158975962029","-0.10518480657876894","0.0770677582980909","-0.03307277054608818","0.13225765972312664","-0.21753148858619004","-0.1738686900748181","0.009862969931840786","0.6819961191234997"
"-0.19264898175002246","-0.0002543317892182215","0.13295499289115328","-0.1405630759723841","0.05148329533409262","-0.22043248359506573","-0.16295668322600163","0.04484173950583655","0.6443008293348601"
"-0.17997349536402507","0.04869357561047451","-0.01121536873733044","-0.14960998237268838","-0.11579665220328603","0.012614115451281587","-0.16841976317884622","0.05969898033681518","0.6133108619999643"
"-0.2180103442649566","0.01322556312818407","-0.07174801369944146","-0.1422885168837823","-0.06412613307637627","0.25468603230301995","-0.1738686900748181","0.04951985403152411","0.6126580489655248"
"-0.17681501351046508","-0.009877336620937916","-0.026066450901838286","-0.03153386378727353","-0.07370801443959869","0.1332471579036958","-0.17933177002766268","0.0344709795934691","0.6043393457266663"
"-0.1577913941885296","-0.0003440269074899112","0.004672544625520861","0.08411731081455459","-0.06233512721409169","0.023895762708020393","-0.18206331000408493","0.02446094176501019","0.6037424880951787"
"-0.18473199763024378","-0.07226669817305936","0.048859850696099626","0.11624781859707861","-0.11606530308262873","0.013178197814118525","-0.17933177002766268","-0.0003274289385724757","0.6028378757474552"
"-0.15144326125259158","-0.139525223288501","0.038918469206100544","0.007032072259384477","-0.11203553989248846","0.19586030017859618","-0.18752638995692952","-0.04007449355923286","0.6173209992115217"
"0.6394239712901314","0.5545484154861473","-0.206434419366607","-0.19032106117405773","-0.014694371277322177","0.39957461635742253","-0.19025792993335175","-0.06504322530476964","0.6318973816805082"
"0.14969304810130074","-0.3485276624498591","-0.028384073580488375","0.16661203979464895","-0.1090803802197189","0.08884581762895949","-0.19025792993335175","-0.09469007157599398","0.638350904820968"
"0.3755348903737806","-0.1312348316425321","-0.1275234331632707","-0.057835179301560256","0.06267708197337117","-0.15967275479805815","-0.19570685682932373","-0.055303729039241994","0.6283348876925665"
"0.20754313678755776","0.03152336725560846","-0.11911696844728986","0.027037860123974907","0.1431827954830625","-0.340501443684643","-0.17933177002766268","-0.020065690467437","0.6296591655624297"
"-0.05397708273862306","0.027256442343541014","-0.010005732339263069","-0.09747368672557391","0.24294182201231293","-0.2907816125603012","-0.17933177002766268","0.0394309082472101","0.6314870420588605"
"-0.2378339737932214","0.057470883612775414","0.10208385221106407","-0.04081393787830732","0.07655737740607657","-0.2873165351885886","-0.16841976317884622","0.0644785479486019","0.6053931724822615"
"-0.12451304755381676","0.08117602201315019","0.12661202556011086","-0.004206610433777047","0.013334870467431315","-0.07860606093892074","-0.16295668322600163","0.06474908951153324","0.5976340232729226"
"-0.17839425443724505","-0.030045924643743248","-0.04349944605045632","-0.023139826921011814","-0.036007341038508535","0.17498925275362937","-0.1711442266268322","0.05455869064112006","0.6050854177660258"
"-0.22038959539806596","-0.08082617517384333","-0.04003317704422964","-0.06319803618833857","-0.04263406272896144","0.2031933708954764","-0.18206331000408493","0.034380799072492196","0.6041061982143666"
"-0.20771410901206858","0.01225173041552002","-0.02655437146576462","-0.044917689235146385","-0.04675337621221595","0.12236842662041195","-0.18206331000408493","0.029420870418751115","0.6117814143192774"
"-0.169677260111137","0.004486695890856724","-0.04824650653698962","0.052919473794948546","0.07207986275036515","0.04839305389408179","-0.17933177002766268","0.00958115580378734","0.6346858259276144"
"-0.0920139316395546","-0.056070322530857364","0.0986175832048374","0.1489845623754993","-0.14266174013755456","0.0014130513892337726","-0.18206331000408493","-0.03493420386353758","0.6365696578269973"
"0.3533527891982853","0.10117803338773666","-0.04496320774223532","-0.054990533474660444","-0.04003710422864882","0.3517081987109736","-0.18752638995692952","-0.05521354851826493","0.6516962684250113"
"0.2788583323232021","-0.003188643515534881","-0.103391695272414","-0.22566928308864873","-0.09358817951095738","0.16612510133762032","-0.19570685682932373","-0.07018351500046484","0.6513698619077918"
"0.3422565437390677","-0.044550906627107686","-0.156300581423176","0.1939859266862913","0.05945327142125893","-0.04661453264659714","-0.19570685682932373","-0.07514344365420585","0.6588119305004027"
"0.24399035501876992","-0.16547273964566797","-0.07552939806987057","0.24696162602003194","0.07485592183690623","-0.3363917007554025","-0.18479484998050716","-0.0549430069553336","0.6597351946491102"
"0.0886740878185444","-0.003790882166787647","0.002700532346318587","-0.15086908790262762","0.2644338923597277","-0.20423526146217644","-0.17933177002766268","0.004722680236145746","0.6620200402696488"
"-0.17284613170763635","0.0602129915142242","0.004133799002852198","-0.18430533475323682","0.10010910449511866","-0.22937721820576576","-0.1711442266268322","0.059518619294860985","0.6248656527095451"
"-0.19502823288313184","0.10817425261292835","0.07364214933885808","-0.04421818616295791","0.008678255225491437","-0.17659522568316632","-0.165688223202424","0.0744885857770609","0.6096084795046428"
"-0.12054416575098809","0.07826733746348258","0.04983569182395229","0.05352570979084523","-0.02490310469234422","-0.0016491100090239026","-0.165688223202424","0.054829232204051316","0.6207529305925755"
"-0.2402028351833914","-0.04526846757328119","-0.0671330983656382","0.055017983011513984","-0.0541860505406969","0.17539216872708432","-0.17933177002766268","0.0394309082472101","0.6281483696827267"
"-0.22197922606778528","-0.0520340422086314","-0.0226611719661024","0.04387256739464424","-0.08149888994053657","0.13179666039925794","-0.18206331000408493","0.014541084457528263","0.6350495360468021"
"-0.1577913941885296","0.003500049589868154","-0.004496295971594863","0.06215291434783643","-0.030634323451654833","0.06749127103584678","-0.18479484998050716","0.004531046629069278","0.6422771089280974"
"-0.17126689078085636","-0.07134411981369342","0.05743912061180435","0.10869318541744308","-0.06770814480094539","0.01785202310619603","-0.18479484998050716","-0.020336232030368336","0.6413072152769301"
"-0.08250731685005654","-0.15893780960015927","-0.009497481751839804","-0.0205283487848415","-0.11024453403020389","0.14388413960290666","-0.18479484998050716","-0.05999311613005166","0.6437785789073085"
"0.7202561713582132","0.5937195549942259","-0.1368955739953557","-0.11943808319229209","-0.053290547609554616","0.3532392794101024","-0.19298239338133774","-0.08010337230794677","0.658588108888595"
"0.01971736393013067","-0.4326360562120537","-0.12506350032014207","0.254283091508938","-0.1975560698165766","0.05242221362863137","-0.19570685682932373","-0.10984039910014817","0.6418108139034977"
"0.3969377608288256","-0.018013965207012497","-0.17651878979087354","-0.09528191043271668","0.1198101689802489","-0.022278407849917723","-0.19025792993335175","-0.07991173870087039","0.6507730042763039"
"0.21704975157705572","-0.020410106223699022","-0.04091753306634613","0.09316421721485889","0.19664432047225686","-0.3707201416937648","-0.18479484998050716","-0.045034422212973865","0.6642116268852671"
"-0.03971196568290631","-0.025471473611887147","0.012987524235765496","-0.0503271796600706","0.2252108639756957","-0.24090061504657756","-0.18479484998050716","-0.0003274289385724757","0.6694621088622599"
"-0.2623849363588869","-0.025022998020528705","0.05410499675830774","-0.07224494258864286","0.040110408108585606","-0.2093925859223999","-0.17660023005124043","0.02960123146070531","0.6470333181790142"
"-0.11499604302137939","0.10131898285930645","0.07981231147017653","-0.018383206030130172","0.01637958043331508","-0.18449237876288352","-0.1738686900748181","0.039611269289164294","0.6240916029687092"
"-0.168887639647747","0.019850188291964468","0.02496190807545765","0.027690729658017485","-0.09278222687292932","0.0954536395936208","-0.17660023005124043","0.019681374153223383","0.6313564794519725"
"-0.21959997493467595","-0.05394326686898591","-0.05243449137735734","-0.02463210014168056","-0.0024259811206728855","0.1966661321255061","-0.18479484998050716","-0.0004176094595495339","0.6420905909182576"
"-0.17680462376752573","-0.019500341452657617","-0.012292859982667768","-0.014092920520707515","-0.07585722147434018","0.10190029516890012","-0.18752638995692952","-0.005456446069145484","0.6418574434059577"
"-0.18552161809363377","-0.1260197011944497","-0.0014264624235583339","0.028110431501330573","-0.03233577902082517","0.09956338252286136","-0.18752638995692952","-0.03520474542646907","0.648982431381841"
"-0.05001859067873371","-0.07252296993954989","0.10089454583649363","0.059541436211666125","-0.07111105593928607","0.11672760299204256","-0.18752638995692952","-0.06495304478379259","0.6593808104304143"
"0.4967831904759033","0.21120831633044912","-0.1323213187085463","0.0003634763045210002","-0.13728872255070088","0.291915468250258","-0.19025792993335175","-0.09478025209697112","0.6542515651598175"
"0.3430565539453971","-0.03799034940494993","-0.081699560201189","-0.005232548272986813","-0.022664347364488507","0.007053875017603178","-0.19025792993335175","-0.10966003805819396","0.6576368670384114"
"0.25270734934487793","-0.1558112940489747","-0.09151896155020652","0.05501798301151397","0.041901413970870174","0.003991713619345499","-0.18479484998050716","-0.09459989105501693","0.6661420882871099"
"0.2669724664005947","0.06486432407602748","-0.07660688931520784","-0.031114161943960446","0.17757010803892623","-0.31898573070214825","-0.17933177002766268","-0.059632394046143185","0.6717562803832903"
"0.02764473779284873","-0.0449865686301416","0.030786459807328276","0.03739050559236436","0.2050620480249943","-0.2766795534893777","-0.17933177002766268","-0.015105761813695917","0.6730339287506933"
"-0.19661786355285116","0.01797940439658355","-0.004394645854110209","-0.1907407630173708","0.09348238280466575","-0.22180239790481257","-0.17933177002766268","0.02455112228598733","0.6470799476814741"
"-0.24495094770667075","0.08240612649230476","0.027330355812850066","-0.09980536363286885","0.046558029212810055","-0.12598897941722373","-0.16841976317884622","0.044751558984859496","0.6363365103146973"
"-0.13401966234331483","0.03031888995310294","0.017043363923403162","0.055297784240389364","-0.050514488523013545","-0.046050450283760196","-0.1738686900748181","0.039611269289164294","0.6319906406854282"
"-0.21879996472834662","-0.07122879751877267","-0.023220247612267993","0.05333917563826163","-0.076573623819254","0.1802271604085438","-0.18479484998050716","0.014450903936551206","0.6350029065443422"
"-0.18076311582741508","-0.06172111498197372","0.018374980462452117","-0.012600647300038766","-0.07702137528482515","0.13171607720456696","-0.18752638995692952","-0.010416374722886488","0.6379312392988283"
"-0.15303289192231093","-0.001343486796803007","0.03735305739683688","0.008291177789323735","-0.03636554221096545","0.08779823609797661","-0.18479484998050716","-0.020246051509391197","0.641363170679882"
"-0.19344899195635182","-0.1317986295288113","0.07958868121171031","-0.0005225609202510703","-0.07603632206056864","0.058868869203910684","-0.18479484998050716","-0.04007449355923286","0.6327740163267556"
"-0.018319484970800885","-0.04188568025560609","-0.06247752298484108","-0.09099162492329405","-0.08955841632081711","0.21842359469207379","-0.19025792993335175","-0.06504322530476964","0.6435547572955006"
"0.750376036139366","0.37747743842951","-0.11198113019986719","-0.01045550454532744","-0.17704905269341828","0.11874218285931733","-0.2011699367821682","-0.08524366200364197","0.6072583525806604"
"-0.012760972498252846","-0.3663769909859251","-0.13896923639204264","0.022327872771239165","-0.13299030848121787","0.21939059302836567","-0.19570685682932373","-0.09505079365990246","0.6225248516860544"
"0.37633490058010993","0.2009702592591521","-0.19121739677915442","-0.11575403367876612","0.19503241519620076","-0.15532126228474463","-0.19570685682932373","-0.07018351500046484","0.63527335765861"
"0.19326762998890165","-0.10961830813905525","-0.0438247264264072","0.2312461236648642","0.18016706653923883","-0.3226119744632429","-0.18752638995692952","-0.05007325882256981","0.6480778190341178"
"-0.03258460202651764","-0.10430066898437658","0.030644149642849762","-0.014326088211437011","0.2408821652706857","-0.28038638044516334","-0.18479484998050716","-0.0005077899805266721","0.6535148190209502"
"-0.25367833177571814","-0.0029708125140179196","0.0763358774522014","-0.1549728392594667","0.1677195757963611","-0.30786524983479147","-0.1711442266268322","0.054569963206242175","0.6213497882240632"
"-0.0975620543691633","0.1531883883969913","0.07932439090625021","-0.005232548272986814","0.03339413612501848","-0.18280013167437267","-0.165688223202424","0.06961883764429704","0.6133574915024244"
"-0.17997349536402507","0.012187662473897387","-0.01859516726671627","0.09232481352823273","-0.030455222865426377","0.17144359218722574","-0.1711442266268322","0.029781592502659587","0.6394886646809912"
"-0.229896210187564","-0.1086444754263912","-0.0125469852763794","0.00572633319129932","-0.06681264186980311","0.1684620139836591","-0.18479484998050716","0.019410832590292127","0.6310300729347528"
"-0.18790086922674312","-0.04059150783482888","0.018944221120366176","-0.07634869394548192","-0.13388581141236017","0.10866928352294339","-0.18479484998050716","0.014450903936551206","0.6190556167030326"
"-0.17363575217102636","-0.04255198684848149","0.030512004490119714","-0.06580951432450888","-0.08776741045853255","0.12099851231066508","-0.18479484998050716","-0.005456446069145484","0.6106436544592542"
"-0.13243003167359546","-0.07623891055366269","-0.0047402562535580305","-0.003786908590463961","-0.057588961679037584","0.16209594160307075","-0.18479484998050716","-0.0252059801631322","0.6295752324580018"
"0.3517631585285658","0.30756650053089135","-0.14210006001056996","-0.04659649660839873","-0.03654464279719391","0.2945747136750607","-0.19025792993335175","-0.07000315395851064","0.6551655034080331"
"0.27252058913020344","-0.5435761039258076","-0.020292724228709973","0.20219342939996943","-0.16379560931251247","-0.03154547523938173","-0.19570685682932373","-0.09488170518307038","0.6344993079177745"
"0.20674312658122837","-0.1538123742703485","-0.09995592130143273","-0.19675648943819168","0.04369241983315474","0.1228519257885579","-0.19570685682932373","-0.07027369552144198","0.655016289000161"
"0.3501735278588464","0.21551368200749013","-0.20171785391531907","-0.20109340848576024","0.11685500930747936","-0.27393972486988405","-0.18752638995692952","-0.04511333016882881","0.6480778190341178"
"0.11561469126025853","-0.027854801040249146","-0.012963750758066477","0.21422488224161124","0.2639861408941566","-0.2695882323565705","-0.18479484998050716","-0.0252059801631322","0.6686880591214241"
"-0.1451055180595929","-0.06372003476059993","0.015854057548832717","-0.034145341923443845","0.1510632212771146","-0.208022671612653","-0.17933177002766268","0.019591193632246245","0.662570268398676"
"-0.24337170677989076","-0.008788181613353131","0.11270628948821033","-0.07979957576827841","0.034020988176818076","-0.22002956762161074","-0.1738686900748181","0.0445711979429053","0.6360660592004294"
