"AccX","AccY","AccZ","GyroX","GyroY","GyroZ","MagX","MagY","MagZ"
"0.3617269220073948","0.1900530820066552","0.29609326644227324","0.03566506468096612","-0.13388581141236017","0.08924873360241446","0.1350642353414794","-0.061886907070570846","-0.6280970560913133"
"0.20297164989424718","0.24786799252692052","-0.14567814414602975","-0.0009422627635641559","-0.13657232020578702","0.04049590081436463","0.13730041832735876","-0.06995806369802211","-0.6491735912032196"
"0.30695219723118317","-0.02307533259520062","0.0609460496650249","0.13639350707610673","0.32631314490165964","-0.085697382071728","0.13059186936972067","-0.041427201373889534","-0.6141175312538145"
"0.10691847642002922","0.1027284775750044","0.15321386130584466","-0.05569003654684892","0.34762611466284593","-0.29287677562226705","0.11718892451131707","0.02796670951799527","-0.5894411985519986"
"-0.15741736344271332","0.054305927296617276","0.10590589662848703","0.05082096457838311","0.30983589096864156","-0.1545960135325257","0.1149527415254377","0.06079241915366263","-0.5632447440699876"
"-0.23521575857250718","0.03940372407519251","0.07721006846256942","0.032447350548899134","0.2188527931645855","-0.045808700699687226","0.11942510749719644","0.06084878197927327","-0.5386057149701398"
"-0.16615513725470005","0.047668488544512354","0.08228240932505362","0.010343053467743266","0.025692810917194834","0.03727257302672498","0.11718892451131707","0.052642354570356494","-0.541347529714786"
"-0.18837879740195287","-0.06181081010024542","0.0793548859414956","-0.07107910413499541","-0.20248133593785914","0.0031858816724355844","0.11271655853955834","0.06066842093731908","-0.5725613186614896"
"-0.22171948249430176","-0.051201158967537144","0.01719583909963014","-0.022533590925115136","-0.10308051058106561","0.03638615788512407","0.1149527415254377","0.05656520723286069","-0.5783433769665258"
"-0.205843955282987","-0.02839297174987928","0.004184624061594524","0.009177215014095805","-0.04693247679844441","0.06660485589424586","0.1149527415254377","0.04015235241502705","-0.5810385622087121"
"-0.1899684280716722","-0.009403233852930428","-0.02101444006285102","-0.039788000039097556","-0.07102150564617185","0.06273686254907827","0.1149527415254377","0.019703919283467687","-0.5831368898194107"
"-0.07407084558331073","0.05108971662716104","0.08602313364848886","-0.020248547555966112","-0.16666121869216777","0.06563785755795397","0.11942510749719644","-0.004859000117672173","-0.6032808348821175"
"0.5093755589183858","0.20947848190663795","0.3839392979725106","0.03701743728719717","-0.18116836617667278","0.18981656057677182","0.1283556863838413","-0.05379320531287551","-0.6131756153041231"
"0.1990027680914185","0.12109034964405144","-0.18083891978397132","-0.020248547555966112","-0.17812365621078902","0.0794175838501135","0.13282805235560002","-0.061886907070570846","-0.6278732344795055"
"0.272021881469115","0.0934386260397224","0.06315185721444187","0.11545504844859834","-0.03949980246996345","-0.06933899354945672","0.1283556863838413","-0.049689991608417035","-0.6379731847123349"
"0.24979822132186214","0.05351148482049661","0.08096095779775311","-0.1333815110979157","0.2567325671519041","-0.20866733717018093","0.11718892451131707","0.02796670951799527","-0.605798828014956"
"0.006896421142982497","0.18688812569049704","0.12988515934311676","-0.07084593644426591","0.2698964602396957","-0.3184216483393113","0.10600800958192018","0.0769009147131986","-0.5861118520763567"
"-0.19869581214071957","0.034483306158574194","0.029546328374015506","0.030815176713792684","0.24768798754736707","-0.11011409006309841","0.10600800958192018","0.09331376953103217","-0.5588056154357985"
"-0.21536095981542439","-0.0026248456292556972","0.07931422589450174","0.028017164425038776","0.24840438989228086","0.011485950725607702","0.1149527415254377","0.08541170138041314","-0.530538811044565"
"-0.14472109757083723","0.004678899715724635","0.1208992889574734","-0.011947777765996188","-0.02257479707137428","0.007779123769822098","0.11271655853955834","0.08939091686852806","-0.5430728213058048"
"-0.20902321662242565","-0.03987394688865537","0.04771120436852304","-0.08604846987982881","-0.22683901566492928","-0.002857857929388775","0.10377890312447716","0.10140747128872767","-0.5715261437068783"
"-0.22886762563656912","-0.005431021472327085","-0.006844413685490351","0.009177215014095805","-0.10514016732269285","0.06112519865525845","0.10600800958192018","0.08921055582657385","-0.5832208229238386"
"-0.18203066446601482","-0.0017919623881614498","-0.0012638222355828908","0.06345865341592159","-0.047111577384672865","0.11245669367342","0.11048037555367891","0.048291144433210996","-0.5843119532814018"
"-0.17568253153007676","0.016288010737745995","-0.02880083906217545","0.012394929146162796","-0.11212509018560267","0.10343137586802895","0.1149527415254377","0.015600705579009298","-0.5950647165486709"
"0.023561568817687267","-0.08262007753927708","0.11294008475842504","0.01262809683689229","-0.20651109912799942","0.11938684841684526","0.11718892451131707","-0.013065427526588954","-0.6182862087737357"
"0.47603487382603693","0.21607747989376933","0.42364383386201615","-0.20221261340126181","-0.29552409048354245","0.05757953808885483","0.1216542139546395","-0.029354284128079118","-0.6298036958813483"
"0.0870740674058857","0.2017006337936501","-0.18486426443636358","-0.04832193751979697","-0.1014686053050095","0.20367687006362237","0.13282805235560002","-0.061886907070570846","-0.6463758210556213"
"0.385540212824367","-0.02524082902204566","0.09268121634373364","0.22243238495528936","0.21267382293970374","-0.16442716328482662","0.1216542139546395","-0.012941429310245478","-0.6367048622454237"
"0.1926442454125411","0.05852159785538663","0.10331381863262838","-0.08763401017678935","0.26765770291184","-0.2842543737903309","0.10824419256779955","0.06875085012989238","-0.6160946221581173"
"-0.06455384105087333","0.08745468029216834","0.08652121922416366","-0.07313097981341495","0.29720929963953535","-0.28119221239207326","0.09707743069527536","0.14237197294257897","-0.595018087046211"
"-0.25664979825637","0.10818706620125286","0.03591979074030326","0.043452865551331155","0.36768538032043313","-0.11583549688615882","0.10824419256779955","0.15890882597675632","-0.5433059688181047"
"-0.16218625545187135","0.09625761547111833","0.10397454439627862","0.089899869544646","0.04736398185083811","0.07675833842531078","0.10600800958192018","0.12209262828785218","-0.5360690700363174"
"-0.19076843827800155","-0.11042556420350046","0.08127607316195555","0.0781948514700255","-0.13979613075789923","0.04170464873472951","0.10600800958192018","0.10556704781879678","-0.5561011042931203"
"-0.1971165712139396","-0.14663676480861343","-0.022071601284691406","0.07036041706151455","-0.08499135137199147","0.11358485839909388","0.11048037555367891","0.06875085012989238","-0.5641586823182031"
"-0.18758917693856286","-0.06944770874166345","-0.0075457994961344605","-0.01218094545672568","-0.06430523366260471","0.08368849316873606","0.11048037555367891","0.05656520723286069","-0.5631887886670357"
"-0.15344848163988462","-0.04006615071352328","0.09731646170103385","-0.15180175866554563","-0.1336171605330175","-0.03501055261109436","0.10600800958192018","0.08505097929650474","-0.5799567577516408"
"-0.1320144419560218","0.1561995816532551","0.005821190953097443","-0.1490503799149376","-0.18931744285006755","0.07861175190320359","0.10824419256779955","0.052349267877180854","-0.5886671488111631"
"0.06167114591919419","0.19251329096496436","0.08121508309146476","0.20881539181668704","-0.1262740364976508","0.26548418039161276","0.1216542139546395","-0.029354284128079118","-0.6111145912953925"
"0.5585813814791102","0.06878528210333268","0.04493615616119201","0.09083254030756398","0.00017097737963973753","0.07434084258458105","0.1283556863838413","-0.057896419017333896","-0.6068246770690753"
"0.083894806066447","0.12689490515506208","-0.19031271073354097","-0.057975079915997936","-0.22415250687150243","0.1862709000103682","0.13282805235560002","-0.0864385539065886","-0.6213451041351097"
"0.3355239903143741","-0.057428562893257214","0.13650258199136767","-0.012647280838184661","0.21634538495738706","-0.21422757760385935","0.12389039694051887","-0.01698828018909323","-0.6026280218476779"
"0.10611846621369982","0.21724351643130124","0.15303089109437226","-0.13776506368363017","0.23300173947663355","-0.33075087712703305","0.10824419256779955","0.07695727753880924","-0.582623965292351"
"-0.13043520102924178","0.10471458376530608","0.03543187017637694","0.08346444128051202","0.24383732494345522","-0.16611941037333744","0.10600800958192018","0.09331376953103217","-0.5651472277703544"
"-0.2153713495583637","0.002141809227468305","0.049540906483246806","0.1046360675987499","0.2609414309282729","0.047748388336553864","0.1149527415254377","0.06489563285812103","-0.5327117458591997"
"-0.1558381225159333","-0.04191130743225515","0.10906721528225975","0.0542718464011796","0.005454444673379215","0.026957924106278067","0.11271655853955834","0.060600785546586246","-0.5446862020909198"
"-0.21616097002175372","-0.06931957285841817","0.03515741485916837","-0.10857246880429774","-0.22254060159544634","0.009551954053023911","0.10600800958192018","0.0769009147131986","-0.567273533082529"
"-0.20267508368648765","-0.09226870954764584","0.012418283577851437","-0.05107331627040498","-0.13200525525696138","0.002782965698980628","0.10600800958192018","0.0769009147131986","-0.582623965292351"
"-0.17647215199346677","0.023886468614190453","0.020723098176347612","-0.02528496967572314","-0.07352891385337024","0.06289802893846026","0.11048037555367891","0.05649757184212786","-0.5874174781452359"
"-0.21695059048514373","0.12794561939767332","0.03473048436573283","-0.01609816266098115","-0.10916993051283315","0.09867696738126046","0.11048037555367891","0.03190083474562166","-0.5954843820708106"
"-0.030413145752195104","-0.09690722852112457","-0.026412061301286104","-0.06347783741721397","-0.19334720604020786","0.1898971437714628","0.12388332041208253","-0.025183435032887894","-0.6145651744774302"
"0.4546008341421742","0.1648615673606353","0.4609189319436385","0.18493902028598702","-0.2124214184735385","0.0877176529032856","0.12611950339796194","-0.04974635443402776","-0.6380198142147949"
"0.15930356032019233","0.15086912891025192","-0.21187270065203592","-0.277898845812055","-0.2618531802725926","0.12244900981510293","0.13730041832735876","-0.08637091851585584","-0.6361173305144281"
"0.37522319808560034","-0.044256194095643575","-0.003794910160950758","0.10990565740923643","0.12625779008447333","-0.04137662499168269","0.13059186936972067","-0.04963362878280631","-0.631780786785651"
"0.20773015216046586","0.14423169015814702","0.09883104845155517","-0.09458240736052823","0.2753590281196637","-0.3616948238883738","0.11048037555367894","0.048302416998333264","-0.6124108914637796"
"-0.11217003294187833","0.11137764969406007","0.05531463315637511","0.015426109125646193","0.23747925413234502","-0.15926983882460322","0.10154979666703409","0.09730425758426928","-0.5867646651107963"
"-0.25347053691693133","0.004268864889339774","0.08265851475974684","0.049235424281422566","0.26980690994658146","-0.05241652266434852","0.10824419256779955","0.09337013235664296","-0.5587589859333386"
"-0.15741736344271332","5.3194330570424217e-05","0.13684819239081547","0.05567085254555655","0.18509233266052139","0.019786019778779827","0.11048037555367891","0.08522006777333682","-0.5398926892380349"
"-0.18440991559912415","-0.020871395403381992","0.07743369872103566","-0.10787296573210928","-0.15045261563849244","-0.0018908595930968773","0.10600800958192018","0.10556704781879678","-0.5624427166276762"
"-0.21378171888864436","-0.019782240395797207","0.04061602616809425","-0.08856668093970732","-0.13164705408450447","-0.009465679894050075","0.10154979666703409","0.10961389869764453","-0.571936483328526"
"-0.20664396548931632","0.010662845463278689","0.04418394529180558","-0.022347056772531543","-0.0958269368388131","0.03848132094708984","0.10154979666703409","0.10551068499318614","-0.5840601539681181"
"-0.1899684280716722","0.007741347325286561","0.0077932032322997145","0.01701164942260674","-0.10469241585712172","0.09859638418656945","0.10600800958192018","0.07274133818312942","-0.5947849395339111"
"-0.19076843827800155","0.003935711592902066","-0.09887843005609542","0.04667057968339815","-0.07066330447371494","0.12236842662041193","0.11048037555367891","0.027797621041163106","-0.5932368400522401"
"-0.016127249210599676","-0.033979696259373006","0.1101447065275971","0.06574369678507062","-0.05015628735055663","0.1371151512488634","0.11718892451131707","-0.013009064700978313","-0.6000540733118875"
"0.6562241856230475","0.16135064415971492","0.5430623918829868","0.0335665554644007","-0.21439152492205152","0.06491260880573504","0.11942510749719644","-0.017168641231047423","-0.6150594472035059"
"-0.016127249210599676","0.30632358246341224","-0.36570998845331015","-0.25598108288348276","-0.31289684734770284","0.19021947655022675","0.12388332041208253","-0.05390593096409687","-0.631715505482207"
"0.345051384589751","-0.025061438785502287","0.05197034429113002","0.3160258960141075","0.1901966993680324","-0.09464211668242806","0.12388332041208253","-0.029230285911735644","-0.6266515415150542"
"0.24503971905564345","-0.03892574135264039","0.14972726227612104","-0.07616215979289834","0.319417772331864","-0.26249691122376323","0.11048037555367891","0.052394358137669385","-0.5999141848045078"
"-0.08835674212490617","0.08641677963788168","0.09854642812259813","-0.05750874453453896","0.20255463981779595","-0.17715930804600327","0.10377890312447716","0.1095462633069117","-0.57812888125521"
"-0.2487120346507126","0.08519948874705163","0.06297905201471797","0.08808116155695597","0.29873165462247725","-0.019941495203878966","0.11271655853955834","0.1017005579819033","-0.5373373925032285"
"-0.17727216219979613","0.05344741687887397","0.06601839052750909","0.12510819084479932","0.1718388892796156","0.02083360130976272","0.1149527415254377","0.07304569744142725","-0.5267431695443235"
"-0.19552694054422023","-0.06847387602899939","0.10979909612814925","-0.03862216158545009","-0.19236215281595134","0.03098708384082764","0.10824419256779955","0.08106049124326764","-0.555121884741461"
"-0.21616097002175372","-0.09030823053399323","0.049632391588982985","-0.11659343736539228","-0.21573477931876492","-0.021311409513625815","0.10154979666703409","0.09730425758426928","-0.5744544764613644"
"-0.19790619167732956","-0.01032581221229636","0.008657229230919269","-0.041606708026787606","-0.10317006087417982","0.057257205310090854","0.10600800958192018","0.08100412841765699","-0.5828477869041588"
"-0.17488252132374743","0.011495728704372942","-0.008897746058680349","0.013793935290539747","-0.0847227004926488","0.11648585340796956","0.10824419256779955","0.048291144433210996","-0.5878371436673756"
"-0.12407667835036441","0.0342014072154346","0.0019076614299382922","-0.037083254826635444","-0.14275129043066878","0.10971686505392626","0.11048037555367891","0.015487979927787854","-0.6013037439778149"
"0.2553567337944102","0.029652583360227545","0.19705555697697558","0.031048344404522178","-0.24179391461500543","0.12954033094791018","0.11942510749719644","-0.013065427526588954","-0.6304098794133278"
"0.3204484733093887","0.2713040455724802","0.09365705747158636","-0.1410294113538431","-0.15412417765617578","0.028086088831951947","0.12388332041208253","-0.029286648737346287","-0.6297570663788882"
"0.24820859065214282","0.10213905251207617","-0.07805032098348995","0.16283472320483117","0.015842278674629708","0.15242595824015176","0.1283556863838413","-0.053736842487264784","-0.6312119068556393"
"0.30139368475863515","-0.09261467643240806","0.16707893733075135","0.03151467978598116","0.3076866839339001","-0.3102021624808302","0.11048037555367894","0.035992775884957855","-0.6109094214845685"
"-0.019296120807099023","0.24415205191280773","0.1293362487086996","-0.09318340121615126","0.26407569118727087","-0.3061730027462806","0.10154979666703409","0.10961389869764453","-0.5875107371501559"
"-0.1963269507505496","0.039224333838649136","0.07815541455517669","0.06462449186956906","0.21643493525050134","-0.038395046788116005","0.10600800958192018","0.10152019693994903","-0.5622561986178364"
"-0.205843955282987","0.002103368462494723","0.08320742539416395","0.08234523636501045","0.10431796827148739","0.042268731097566445","0.11048037555367891","0.08111685406887835","-0.5518578195692632"
"-0.18362029513573414","-0.03135291065284499","0.079822476481925","-0.00439314458636064","-0.0813197893543081","0.028166672026642938","0.10154979666703409","0.08909783017535257","-0.5679263461169686"
"-0.20426471435620697","-0.0693836408000408","0.035818140622818614","-0.09985199717101474","-0.17516849653801947","-0.01244725809761676","0.09931361368115472","0.10947862791617893","-0.5873615227422839"
"-0.20108545301676828","-0.06655183778032035","0.001531555995245075","-0.05979378790368799","-0.11713990659999945","0.0022188833361436876","0.09931361368115472","0.10537541421172039","-0.6021803786240623"
"-0.19869581214071957","-0.0045981382312328374","0.007061322386410212","-0.004346511048214742","-0.07003645242191534","0.07135926438101436","0.10377890312447716","0.08505097929650474","-0.6015368914901147"
"-0.19948543260410959","0.0811888356014747","0.01387188025788198","0.0011562464530012737","-0.05212639379906965","0.10858870032825241","0.10600800958192018","0.0522252696608373","-0.6000354215109036"
"-0.033582017348694454","-0.08823242922541986","0.0007996751493555731","-0.06464367587086142","-0.1985411230408331","0.15186187587731484","0.11271655853955834","0.003234701640023325","-0.6222310646818492"
"0.5355681008684676","0.2610019205595606","0.5240436549016082","0.1437149725650128","-0.22818227006164274","0.13840448236391925","0.1216542139546395","-0.0293542841280792","-0.6423750097445561"
"0.13153177744333072","0.10562434853634749","-0.2768169607129809","-0.09360310305946436","-0.3325083615397188","0.24928695825872352","0.1350642353414794","-0.07828848932328246","-0.6519620354503257"
"0.322827724442498","0.02268199131168491","0.10338497371486764","0.11293683738871985","0.06572179193925493","-0.2795805484982534","0.11718892451131707","-0.017168641231047423","-0.6642908759007417"
"0.2045508908210272","0.10898150867737352","0.059085852515055735","-0.07476315364852139","0.25771762037616064","-0.20850617078079897","0.10824419256779955","0.04414284046826399","-0.6395772395969578"
"0.014044564285249871","0.13638977410353656","0.12041136839354705","0.03566506468096612","0.3620437118542368","-0.26999114833002547","0.10154979666703409","0.10133983589799483","-0.611599538120976"
"-0.21220247796186437","0.0945790354006053","0.05102499819852274","0.12510819084479932","0.3744912025971145","-0.058943761434318835","0.10824419256779955","0.0892669186521845","-0.5647275622482146"
"-0.19234767920478157","0.020144900823428593","0.0998475496264017","0.1048692352894794","0.2617473835663009","0.03308224690279342","0.1149527415254377","0.06894248373696878","-0.5328982638690395"
"-0.14154183623139852","-0.04488405992354539","0.16780065316489237","0.012628096836892288","-0.03126117550345443","0.05830478684107374","0.11271655853955834","0.05656520723286069","-0.5416086549285618"
"-0.23680538924222655","-0.08259445036262804","0.03644837135122347","-0.10237020823089325","-0.18260117086650043","0.01664327518583116","0.11048037555367891","0.0688072129555031","-0.5575932483718394"
"-0.21060245754920567","-0.03405657778932016","-0.0012841522590798192","-0.0384356274328665","-0.07809597880219589","0.06628252311548191","0.11048037555367891","0.048291144433210996","-0.562769123144896"
"-0.16297587591526136","-0.05145743073402769","0.019930227259967313","-0.022300423234385643","-0.1166026048413141","0.08296324441651712","0.11271655853955834","0.02785398386677383","-0.5774014610168344"
"-0.17489291106668675","0.013264003893157652","-0.054518318785792726","-0.11500789706843174","-0.16997457953739423","0.02317051395580147","0.11271655853955834","0.023750770162315436","-0.5866714061058763"
"0.09580145147493309","0.0017445879894079641","0.12899063830925178","0.07064021829038995","-0.15278092325946235","0.1462210522489454","0.11718892451131707","-0.017168641231047423","-0.5999701402074598"
"0.1990027680914185","0.2028026023895594","-0.39266759961024017","-0.19918143342177844","-0.18439217672878502","0.18143590832890868","0.13059186936972067","-0.061943269896181645","-0.6031129686732616"
"0.31488996083684057","0.040838845967539526","0.02673062011969062","0.3314615971403999","0.14013808551717877","0.04549205888520611","0.12611950339796194","-0.05384956813848615","-0.610135371743733"
"0.25217747245497146","0.008689552861301549","0.18503034807854113","-0.10283654361235224","0.4001921367208981","-0.3236595559942258","0.1149527415254377","0.04432320151021827","-0.5773548315143745"
"-0.055816067238886616","0.1920776289619304","0.10696305785032739","0.028063797963184676","0.26649354910135503","-0.26813773485213266","0.10600800958192018","0.09741698323549064","-0.5588056154357985"
"-0.22171948249430176","0.0678498901556422","0.05514182795665119","0.03888277881303312","0.2428522717191987","-0.08166822233717842","0.1149527415254377","0.10574740886075105","-0.5315180305962244"
"-0.17012401905752872","0.07912584788122588","0.07817574457867363","0.05198680303203057","0.06196067962845734","0.05451737669059714","0.1149527415254377","0.0853553385548025","-0.5215766206717589"
"-0.20425432461326762","-0.09035948488729133","0.10519434580609445","-0.007610858718427633","-0.15439282853551847","0.05008530098259262","0.11048037555367891","0.07701364036441996","-0.5487336429044452"
"-0.20267508368648765","-0.12562247995638934","0.05389153151158996","-0.005978684883321188","-0.1478556571381798","0.01172770030968068","0.10600800958192018","0.08106049124326764","-0.5615101265784768"
"-0.19076843827800155","-0.03609393833291994","0.011228977203280994","-0.016564498042440135","-0.11570710191017182","0.04984355139851964","0.10600800958192018","0.06464763642543399","-0.5728690733777254"
"-0.18362029513573414","-0.017065759670997507","0.013190824470734802","-0.03932166465763857","-0.1153489007377149","0.08135158052269728","0.11048037555367891","0.0441879307287526","-0.58107586581068"
"-0.17727216219979613","0.06870840057338548","-0.05454881382103813","-0.07914670623423584","-0.18295937203895735","0.05749895489416383","0.11048037555367891","0.023694407336704717","-0.6047543271598526"
"0.04261635736844073","-0.060798536622607785","-0.01967265851205359","0.13867855044525576","-0.22648081449247237","0.18667381598382313","0.1216542139546395","-0.02941064695368984","-0.6267634523209582"
"0.22757456117460936","0.21864019755867467","-0.26793274044482224","-0.3466366810391093","-0.2425998672530335","0.10818578435479743","0.1283556863838413","-0.06610284642625075","-0.6218393768611855"
"0.3426721334566415","0.05310144999411175","-0.01431569732061237","0.21940120497580595","0.1122879443586537","0.15685803394815628","0.13730041832735876","-0.08637091851585584","-0.6172510338191244"
"0.2609048565240189","-0.0008693840287955128","0.15243115540121283","-0.011015107003078218","0.3751180546489141","-0.33921211256958717","0.11942510749719644","0.0075070038213138","-0.5915395261626971"
"0.021971938147967895","0.16696299584585772","0.1247111683631479","0.00572633319129932","0.3618646112680083","-0.2886058663036445","0.11048037555367891","0.08111685406887835","-0.5673854438884329"
"-0.21457133935203437","0.10698258889874734","0.048544735331897196","0.008990680861512211","0.2235989586996396","-0.1317103862402841","0.11271655853955834","0.1017005579819033","-0.5408252792872343"
"-0.22012985182458242","0.06410832236488036","0.08931659745499163","0.06070727466531359","0.16154060557147934","0.05282512960208633","0.1149527415254377","0.07310206026703789","-0.5176690683656134"
"-0.1717136497272481","-0.07239483405630462","0.1349676652173494","0.033146853621087616","-0.0680663459734023","0.0859448226200838","0.1149527415254377","0.05662157005847133","-0.5323387098395198"
"-0.1923580689477209","-0.10278866556208242","0.039274244617296825","-0.04393838493408252","-0.22755541800984314","0.009149038079568954","0.10824419256779955","0.06869448730428174","-0.5668631934608813"
"-0.1939373098745009","-0.02849548045647549","-0.026960971935703234","-0.06692871924001045","-0.12161742125571087","0.015756860044230252","0.10600800958192018","0.06048805989536488","-0.5759839241420514"
"-0.16615513725470005","-0.026663137326068145","-0.0175888311036182","-0.04207304340824658","-0.1014686053050095","0.07522725772618195","0.11048037555367891","0.04823478160760043","-0.5843865604853379"
"-0.18917880760828218","0.0981412129548238","0.03434421391929114","-0.059374086060374906","-0.10182680647746639","0.03501624357537721","0.10824419256779955","0.023626771945971882","-0.591847280878933"
"0.18867536360971235","0.05281955105097216","0.13153189124636813","0.12300968162823392","-0.26525609141093326","0.24324321865689918","0.12611950339796194","-0.045643140729569286","-0.6197410492504868"
