"AccX","AccY","AccZ","GyroX","GyroY","GyroZ","MagX","MagY","MagZ"
"-7.8472","-10.144","-5.0779","0.22965","0.10822","-0.19117","0.72274","0.40319","-0.099614"
"-8.4458","-9.9328","-4.8484","0.54775","0.13382","-0.75953","0.718","0.41354","-0.097855"
"-8.3253","-9.4399","-4.9944","0.53835","0.1018","-1.2717","0.70969","0.43048","-0.09515"
"-8.3094","-8.5563","-5.6342","0.4546","0.22509","-1.7158","0.69129","0.46528","-0.092305"
"-9.1645","-8.9385","-6.2771","0.89699","0.21968","-1.9878","0.66534","0.50771","-0.092463"
"-7.7982","-7.2274","-6.1","0.83395","0.29937","-2.1796","0.63199","0.56059","-0.10761"
"-6.8508","-5.8476","-4.6311","0.69236","0.37259","-2.0607","0.59992","0.60613","-0.11353"
"-4.7042","-3.9799","-3.29","0.35811","0.52482","-1.7515","0.57232","0.64254","-0.11219"
"-3.5705","-3.2588","-1.6853","0.28203","0.51153","-1.3576","0.55057","0.67379","-0.10899"
"-2.0619","-1.8116","-0.99103","0.55284","0.41298","-0.8549","0.53415","0.69576","-0.11018"
"-1.1777","-1.8244","-0.65491","0.44338","0.30255","-0.26061","0.51948","0.7057","-0.11843"
"-1.3136","-2.7219","-0.13672","-0.19724","0.15858","0.35425","0.52275","0.70274","-0.11749"
"-1.9958","-3.1599","-2.6e-05","-0.7695","-0.13673","0.82163","0.53024","0.69176","-0.10327"
"-3.7136","-4.2023","-0.82369","-0.96443","-0.40491","1.3023","0.54294","0.67251","-0.087561"
"-5.0191","-4.6989","-2.3112","-1.1535","-0.64656","1.7685","0.56487","0.64007","-0.072102"
"-7.2986","-5.4757","-3.562","-1.303","-0.71405","2.1421","0.59888","0.59665","-0.05173"
"-8.9974","-7.8955","-5.6888","-1.323","-0.79355","2.1714","0.63239","0.54965","-0.040753"
"-10.335","-10.247","-6.5694","-0.91868","-0.813","1.9131","0.65952","0.51002","-0.047299"
"-8.6583","-9.9738","-7.7953","-0.32374","-0.6057","1.4429","0.68368","0.47316","-0.061731"
"-7.3674","-8.4787","-7.7246","0.083096","-0.35904","0.91465","0.70066","0.44733","-0.080659"
"-7.3305","-9.0857","-7.2177","0.18067","-0.14082","0.61378","0.71383","0.42468","-0.097142"
"-7.263","-9.6652","-6.0677","0.090333","0.053719","0.24266","0.71947","0.41397","-0.10097"
"-7.8769","-9.8366","-5.3465","0.30649","0.21372","-0.30643","0.72001","0.41226","-0.097505"
"-8.235","-9.2089","-4.9325","0.37607","0.22298","-0.92326","0.7134","0.42542","-0.092053"
"-8.3696","-8.9307","-5.2776","0.3","0.25145","-1.3615","0.70045","0.451","-0.084668"
"-8.7752","-9.1951","-6.0472","0.53906","0.35767","-1.7854","0.67964","0.49131","-0.074261"
"-8.9995","-8.6997","-6.4231","0.91242","0.35555","-2.0938","0.65284","0.53583","-0.076715"
"-7.9023","-6.8768","-5.8245","0.78224","0.33728","-2.1575","0.62191","0.58102","-0.086921"
"-5.9053","-4.9114","-4.4483","0.5931","0.42369","-1.9837","0.58901","0.62602","-0.091807"
"-4.2844","-3.7276","-3.3719","0.55743","0.58292","-1.6577","0.56029","0.66374","-0.092885"
"-2.7377","-2.3133","-1.8778","0.63235","0.50357","-1.2295","0.53104","0.69525","-0.098851"
"-1.3572","-1.5165","-0.88122","0.7491","0.40441","-0.68573","0.51562","0.71274","-0.10884"
"-0.9081","-2.0662","-0.21774","0.37481","0.2823","-0.00562","0.51234","0.71615","-0.11531"
"-1.2681","-2.4988","0.088752","-0.40253","0.11022","0.57058","0.51772","0.70848","-0.10962"
"-2.1613","-3.2995","-0.46634","-1.0025","-0.13981","1.1045","0.5288","0.69308","-0.090223"
"-4.2688","-4.2413","-1.752","-1.0377","-0.46058","1.6515","0.55141","0.65842","-0.073128"
"-6.4601","-5.676","-3.1285","-1.1397","-0.62324","2.0931","0.58086","0.62009","-0.058263"
"-8.5518","-6.4104","-3.9427","-0.98956","-0.76634","2.3116","0.61245","0.57855","-0.049282"
"-9.0879","-8.0155","-5.6294","-1.0213","-0.86936","2.2624","0.64648","0.52985","-0.053082"
"-10.444","-12.052","-7.1647","-0.65284","-0.74362","1.8326","0.67441","0.48362","-0.06447"
"-8.8381","-9.8623","-7.5873","-0.076845","-0.50406","1.0161","0.69936","0.4459","-0.086343"
"-6.9459","-7.6185","-6.6828","0.19563","-0.30758","0.65585","0.71043","0.42936","-0.10353"
"-7.0799","-7.3203","-6.3108","0.12891","-0.083942","0.55987","0.71674","0.41727","-0.11479"
"-7.609","-10.232","-6.1781","0.12074","0.27487","0.17553","0.72249","0.40665","-0.1135"
"-8.2613","-11.234","-4.9817","0.4704","0.18995","-0.49849","0.72098","0.40738","-0.10883"
"-8.4617","-10.097","-5.1015","0.47749","0.29889","-1.2684","0.70986","0.42807","-0.10615"
"-8.6241","-8.6169","-5.1601","0.20433","0.34903","-1.7503","0.69196","0.4645","-0.094268"
"-9.3064","-8.9869","-5.2323","0.70467","0.40988","-2.0312","0.66965","0.50366","-0.086509"
"-8.4885","-7.9739","-5.5146","0.99318","0.27177","-2.1662","0.6415","0.55029","-0.092587"
"-7.5427","-6.9107","-5.3389","0.67019","0.28451","-2.1721","0.6073","0.59701","-0.10227"
"-4.9443","-3.8818","-3.4566","0.49308","0.4053","-1.8864","0.57004","0.64641","-0.1083"
"-3.5478","-2.6454","-2.1449","0.25423","0.50629","-1.4371","0.54516","0.67894","-0.10443"
"-2.497","-1.8016","-1.3181","0.49016","0.35538","-1.0412","0.52672","0.70299","-0.10769"
"-1.2978","-1.5093","-1.0654","0.32902","0.21988","-0.43177","0.51396","0.71694","-0.11058"
"-0.64116","-2.7207","-1.573","0.092442","0.16324","0.18051","0.51138","0.71603","-0.11367"
"-1.3532","-3.2946","-0.99648","-0.61013","0.039744","0.70456","0.51673","0.70494","-0.10358"
"-2.5829","-4.0283","-1.0118","-1.0447","-0.21512","1.2761","0.53325","0.68671","-0.082384"
"-4.4725","-4.5679","-2.2702","-0.85974","-0.49545","1.8355","0.55368","0.65869","-0.068756"
"-6.7982","-6.0163","-3.6506","-0.98232","-0.52964","2.1658","0.58661","0.61611","-0.057745"
"-8.6359","-7.1853","-4.3944","-0.99589","-0.63784","2.2836","0.62116","0.56654","-0.051016"
"-9.3293","-8.9248","-5.8899","-0.99915","-0.67089","2.1427","0.65684","0.51106","-0.05149"
"-9.8269","-10.383","-6.7688","-0.7449","-0.61608","1.6542","0.68319","0.46918","-0.054872"
"-8.7913","-8.9225","-7.2703","0.13305","-0.46144","1.0484","0.69967","0.4411","-0.072074"
"-7.9661","-8.4874","-6.7621","0.39851","-0.2698","0.74292","0.71311","0.41927","-0.091979"
"-7.2921","-8.9712","-6.005","0.15095","-0.00169","0.4122","0.72091","0.40513","-0.10486"
"-7.8479","-10.264","-5.256","0.13035","0.16371","-0.17968","0.72221","0.40203","-0.10555"
"-8.2362","-9.823","-4.6936","0.32951","0.17759","-0.76963","0.71634","0.41261","-0.1012"
"-8.1295","-8.7253","-4.7337","0.24832","0.21303","-1.3002","0.70883","0.43289","-0.092234"
"-8.7602","-9.0471","-5.8358","0.36412","0.31256","-1.6822","0.68912","0.46831","-0.085636"
"-8.738","-9.0613","-6.0895","0.81029","0.25704","-1.9821","0.66605","0.51024","-0.084251"
"-7.4084","-6.9998","-5.6879","0.9","0.25857","-2.0789","0.63431","0.56416","-0.094907"
"-5.5635","-5.6262","-5.7577","0.17297","0.47371","-1.9174","0.60267","0.60823","-0.095145"
"-5.6526","-5.8394","-4.4898","0.30385","0.67402","-1.6956","0.57692","0.64226","-0.085039"
"-4.3299","-4.0734","-2.879","0.76512","0.55005","-1.4196","0.55387","0.67291","-0.088957"
"-2.4817","-1.5022","-1.5336","0.97421","0.53689","-1.0177","0.53525","0.69431","-0.10227"
"-1.3567","-1.2876","-0.29641","0.66198","0.43339","-0.39224","0.52024","0.70608","-0.11123"
"-0.9222","-1.6357","0.38231","0.047635","0.21671","0.2643","0.51951","0.70596","-0.11401"
"-1.32","-2.3071","0.68752","-0.55195","-0.11849","0.80644","0.52705","0.69574","-0.11175"
"-2.8579","-2.9825","-0.64008","-1.0142","-0.43355","1.499","0.54238","0.67481","-0.096442"
"-5.4952","-6.5322","-3.1145","-1.2286","-0.56718","2.0155","0.56898","0.63757","-0.077462"
"-7.9767","-7.5948","-3.5179","-0.93144","-0.68323","2.1671","0.60431","0.58857","-0.059828"
"-8.2479","-7.7753","-4.9572","-1.0172","-0.66396","2.0644","0.63389","0.54318","-0.059237"
"-9.2825","-7.8947","-5.722","-1.6023","-0.67289","1.8926","0.65998","0.50514","-0.0564"
"-9.6597","-9.1455","-6.4041","-1.0417","-0.69865","1.4861","0.6841","0.46971","-0.054853"
"-8.6422","-8.7172","-8.4923","0.19045","-0.38591","1.0487","0.70176","0.44165","-0.072149"
"-7.3012","-8.4613","-8.6931","0.48417","-0.14576","0.74864","0.71966","0.41776","-0.090825"
"-6.7383","-8.8593","-6.705","0.1566","0.072002","0.42689","0.72484","0.40214","-0.10022"
"-7.592","-9.6906","-4.9662","0.29595","0.26303","0.006769","0.72723","0.39514","-0.10106"
"-8.1157","-9.563","-4.4294","0.57041","0.24379","-0.55277","0.7234","0.40028","-0.096815"
"-8.61","-9.335","-4.8928","0.5495","0.21027","-1.1461","0.71466","0.4167","-0.094638"
"-9.09","-9.3906","-5.424","0.50799","0.27148","-1.6609","0.69626","0.4531","-0.078832"
"-9.4637","-8.9559","-5.3395","0.68258","0.18546","-2.0489","0.6735","0.4966","-0.078253"
"-8.4874","-7.4368","-5.304","0.82289","0.15041","-2.1531","0.64655","0.53823","-0.092206"
"-7.1073","-6.2625","-5.4568","0.45508","0.36335","-2.1279","0.61499","0.58638","-0.097896"
"-5.8225","-4.6448","-4.101","0.25354","0.45989","-1.9049","0.5841","0.63083","-0.095099"
"-3.6679","-2.659","-2.3561","0.46113","0.48027","-1.5228","0.55436","0.67139","-0.093375"
"-2.3011","-1.2055","-1.1563","0.56286","0.39528","-1.072","0.53113","0.69724","-0.098785"
"-1.4026","-1.7046","-0.61205","0.56811","0.23512","-0.43129","0.52241","0.70969","-0.10428"
"-0.80514","-2.6254","-0.85842","0.21304","0.077493","0.17249","0.51719","0.71089","-0.11431"
"-1.2402","-3.1924","-0.47886","-0.65055","-0.042879","0.66245","0.52398","0.70243","-0.10567"
"-3.0023","-4.0113","-1.0487","-1.0053","-0.32825","1.2085","0.53463","0.68","-0.088122"
"-4.6905","-4.9696","-2.4543","-1.0193","-0.51823","1.7544","0.55806","0.64989","-0.069768"
"-6.9104","-5.9937","-3.5329","-0.98648","-0.65987","2.1072","0.58806","0.61546","-0.055981"
"-7.9319","-6.7974","-5.1733","-1.0309","-0.62321","2.2238","0.61961","0.56834","-0.050311"
"-9.3078","-9.1393","-6.5326","-1.0558","-0.55013","2.0966","0.65068","0.52073","-0.047664"
"-9.4373","-9.9122","-7.493","-0.62501","-0.50759","1.6382","0.68344","0.47152","-0.054645"
"-8.2366","-8.8063","-7.0514","0.060784","-0.37041","1.1394","0.70281","0.44252","-0.06662"
"-7.6654","-7.779","-6.8149","0.43729","-0.14808","0.90809","0.71389","0.41958","-0.0812"
"-7.5619","-8.9019","-6.2485","0.18172","0.021002","0.54806","0.724","0.40049","-0.090239"
"-7.9078","-10.203","-5.2643","0.20158","0.1106","0.014282","0.72693","0.39363","-0.09107"
"-8.1528","-9.5491","-4.0789","0.35539","0.072111","-0.58231","0.72306","0.39949","-0.096155"
"-8.2786","-8.4117","-4.4963","0.27398","0.11169","-1.0902","0.71303","0.41876","-0.093153"
"-8.4909","-9.2652","-5.787","0.26865","0.22364","-1.5831","0.70075","0.44615","-0.083417"
"-9.8491","-10.31","-6.5225","0.65161","0.31288","-2.0441","0.67802","0.48987","-0.077067"
"-8.444","-8.0099","-5.9472","1.0054","0.196","-2.2817","0.64603","0.53792","-0.086837"
"-6.6123","-5.8313","-5.5219","0.68033","0.41238","-2.2188","0.60879","0.59427","-0.0985"
"-5.381","-4.8634","-4.124","0.37953","0.51847","-1.8616","0.57745","0.63769","-0.098454"
"-3.5404","-2.5549","-2.391","0.50321","0.58313","-1.4065","0.55537","0.66947","-0.096063"
"-3.0596","-2.2619","-1.3886","0.54418","0.49548","-1.0004","0.53885","0.69028","-0.098806"
"-1.823","-2.3307","-0.44156","0.44573","0.3174","-0.51072","0.52699","0.70387","-0.10389"
"-1.2406","-3.3486","-0.65857","0.27863","0.17359","0.077321","0.52114","0.70385","-0.10828"
"-1.5552","-3.4376","-0.42508","-0.40019","-0.059604","0.49545","0.52536","0.6963","-0.10223"
"-2.4562","-4.3271","-1.1897","-0.89733","-0.27124","0.91537","0.53265","0.68794","-0.09043"
"-3.603","-4.3037","-2.0606","-0.90067","-0.455","1.4664","0.55095","0.66457","-0.074462"
"-5.3051","-4.6946","-3.3753","-1.0426","-0.5253","1.884","0.57624","0.62932","-0.062253"
