"AccX","AccY","AccZ","GyroX","GyroY","GyroZ","MagX","MagY","MagZ"
"-3.0659","-9.2991","-0.71295","-0.009977","-0.009061","-0.010171","0.45531","0.68727","0.078492"
"-3.0734","-9.2993","-0.66825","-0.00464","0.005464","-0.001942","0.45563","0.68647","0.07905"
"-3.0659","-9.3142","-0.6831","0.000683","0.00563","0.005279","0.45353","0.68714","0.076039"
"-3.0734","-9.3292","-0.66833","-0.002877","-0.00887","-0.002041","0.45355","0.687","0.076309"
"-3.0659","-9.3142","-0.69058","0.009784","-0.010653","-0.003897","0.45467","0.68752","0.078866"
"-3.0734","-9.2992","-0.68319","-0.011803","0.007157","-0.005531","0.45416","0.68791","0.079242"
"-3.0434","-9.2693","-0.71996","-0.006511","-0.00523","0.001593","0.45352","0.68792","0.077756"
"-3.0584","-9.3143","-0.67551","-0.000948","0.007155","-0.007373","0.45356","0.68607","0.078058"
"-3.0884","-9.3141","-0.68348","0.006202","9.5e-05","-0.003807","0.45379","0.68739","0.077774"
"-3.0734","-9.3142","-0.66829","-0.00652","-0.003432","0.001621","0.45369","0.68739","0.078171"
"-3.0734","-9.2992","-0.69813","-0.01007","0.006379","-0.000114","0.45407","0.68832","0.078166"
"-3.0584","-9.3142","-0.68298","-0.006308","0.008855","-0.010967","0.45495","0.68741","0.077279"
"-3.0884","-9.3141","-0.68348","0.007934","0.000212","0.001617","0.45507","0.68833","0.077265"
"-3.0734","-9.3142","-0.68323","-0.015449","-0.009007","-0.006534","0.45417","0.68727","0.077523"
"-3.0734","-9.3142","-0.66829","9.1e-05","-0.007454","-0.021034","0.45381","0.68792","0.078165"
"-3.0959","-9.3141","-0.68361","-0.006432","0.00905","-0.001903","0.45358","0.68633","0.07832"
"-3.0734","-9.2992","-0.69066","0.006035","-0.007755","0.006988","0.45413","0.68765","0.078846"
"-3.0734","-9.2992","-0.69813","-0.006438","0.005459","-0.001938","0.4538","0.68766","0.077903"
"-3.0734","-9.3141","-0.69817","-0.00108","-0.001636","0.000715","0.45514","0.6882","0.078069"
"-3.0959","-9.314","-0.69108","-0.008352","-0.001583","0.004362","0.45537","0.68781","0.077551"
"-3.0734","-9.2993","-0.66825","-0.007307","-0.005412","-0.007435","0.45423","0.68766","0.078316"
"-3.0734","-9.2992","-0.69813","-0.002841","0.009094","-0.000114","0.45409","0.68779","0.07831"
"-3.0584","-9.3142","-0.69792","-0.001102","0.002896","0.003452","0.45446","0.6862","0.079417"
"-3.1034","-9.3439","-0.68382","0.004504","0.00353","-0.011007","0.4536","0.68646","0.078585"
"-3.0734","-9.2993","-0.66825","-0.007338","0.012643","-0.000983","0.45345","0.68698","0.07857"
"-3.0884","-9.2992","-0.6685","-0.018093","0.001686","-0.009164","0.45476","0.68647","0.078089"
"-3.0734","-9.3142","-0.68323","-0.006505","-0.016052","-0.002081","0.45509","0.68766","0.079143"
"-3.0734","-9.2992","-0.69813","0.000686","0.005633","0.005281","0.45402","0.68727","0.077251"
"-3.0734","-9.3291","-0.69074","-0.010909","0.003576","-0.005556","0.4555","0.68768","0.077558"
"-3.0734","-9.2992","-0.69813","-0.005649","-0.004268","0.004326","0.45488","0.68727","0.078078"
"-3.0734","-9.3291","-0.68327","-0.00105","0.005515","-0.000141","0.45416","0.687","0.077261"
"-3.1034","-9.3215","-0.68376","0.006026","-0.001436","0.008853","0.45535","0.68687","0.0789"
"-3.0734","-9.2917","-0.69811","-0.006591","0.002991","0.008899","0.45489","0.68807","0.076598"
"-3.0734","-9.3142","-0.68323","-0.001042","0.000101","-0.001987","0.45452","0.68726","0.0786"
"-3.066","-9.3291","-0.68315","-0.001084","0.001965","0.001641","0.45548","0.68661","0.078909"
"-3.1034","-9.2991","-0.6837","0.006169","-0.010656","-0.003872","0.45429","0.68793","0.077381"
"-3.1034","-9.3065","-0.68372","-0.002825","6.6e-05","-0.003778","0.45478","0.68767","0.076735"
"-3.0884","-9.3141","-0.68348","-0.008217","-0.008995","-0.00745","0.45569","0.68582","0.077865"
"-3.1034","-9.3215","-0.67629","-0.002958","-0.003336","0.005245","0.4541","0.68713","0.078322"
"-3.0884","-9.314","-0.69842","0.00619","-0.005282","-0.003843","0.45443","0.68806","0.077516"
"-3.0659","-9.3142","-0.66816","-0.007414","0.007355","0.003501","0.45529","0.68688","0.078099"
"-3.0734","-9.2992","-0.68319","-0.002896","0.000167","0.001636","0.4551","0.68515","0.078791"
"-3.0734","-9.2992","-0.68319","-0.006428","0.001836","-0.003771","0.45516","0.68674","0.078097"
"-3.0884","-9.3141","-0.68348","-0.002883","0.012757","0.003536","0.45531","0.68674","0.078368"
"-3.0884","-9.3141","-0.68348","-0.000843","0.001603","-0.016442","0.45534","0.68794","0.077148"
"-3.0435","-9.2993","-0.71257","-0.002929","0.002027","0.005252","0.45396","0.68912","0.076815"
"-3.0584","-9.3142","-0.69045","-0.010719","0.001485","-0.02005","0.45432","0.68674","0.077671"
"-3.0734","-9.2992","-0.69813","0.00081","0.014448","-0.001896","0.45355","0.68765","0.078161"
"-3.0659","-9.3141","-0.69805","0.000758","0.009124","0.000779","0.45495","0.68647","0.078895"
"-3.1034","-9.3141","-0.66879","-0.003673","-0.000927","-0.008305","0.45469","0.68647","0.078886"
"-3.0659","-9.2993","-0.67559","-0.002838","0.003676","-0.001962","0.45432","0.68806","0.077779"
"-3.0734","-9.3142","-0.66829","-0.006484","-0.003487","-0.001092","0.4542","0.68805","0.078042"
"-3.066","-9.3216","-0.69807","-0.000129","0.001895","-0.00198","0.45446","0.68621","0.077551"
"-3.0734","-9.3142","-0.68323","0.011713","-0.000933","-0.01107","0.45323","0.68633","0.077243"
"-3.0734","-9.3141","-0.6907","0.006317","0.008925","-0.010086","0.45545","0.68727","0.078496"
"-3.0734","-9.2992","-0.68319","0.00436","0.003742","-0.000167","0.45419","0.68725","0.079522"
"-3.0884","-9.2991","-0.69839","-0.008413","-0.010492","0.007012","0.45413","0.68699","0.078725"
"-3.0734","-9.3141","-0.69817","0.004364","0.003743","-0.000167","0.45359","0.68619","0.078456"
"-3.0734","-9.3142","-0.66829","0.003319","0.007544","0.010715","0.45437","0.68752","0.078457"
"-3.0584","-9.2992","-0.69788","-0.012028","-0.008703","0.007923","0.45405","0.68817","0.079633"
"-3.0734","-9.2992","-0.69066","-0.008375","-0.001552","0.00616","0.45545","0.68753","0.078625"
"-3.0734","-9.2916","-0.71305","-0.006307","0.007069","-0.010973","0.45431","0.6874","0.077524"
"-3.0734","-9.2992","-0.69813","-0.015364","0.006175","-0.009147","0.45384","0.68686","0.078319"
"-3.0584","-9.3142","-0.69045","-0.0038","-0.001632","0.00162","0.45419","0.68685","0.079529"
"-3.0884","-9.2917","-0.69089","0.002696","0.001727","-0.011024","0.45432","0.68806","0.077912"
"-3.0884","-9.3141","-0.68348","0.006089","-0.005136","0.003395","0.45548","0.68793","0.079018"
"-3.0734","-9.3216","-0.68325","-0.013578","-0.0073","-0.01105","0.45386","0.68752","0.078707"
"-3.0734","-9.2917","-0.69064","-0.004778","0.014686","0.010782","0.45357","0.68725","0.078436"
"-3.0734","-9.2992","-0.69066","-0.008263","-0.008925","-0.003839","0.45459","0.687","0.077674"
"-3.0959","-9.2916","-0.68355","-0.001022","-0.008929","-0.005656","0.45436","0.68739","0.078326"
"-3.1034","-9.3141","-0.66879","-0.003744","-0.00442","-0.003805","0.45577","0.6878","0.079429"
"-3.0659","-9.3142","-0.66816","-0.008217","-3e-06","-0.005591","0.45438","0.68726","0.078462"
"-3.0584","-9.3142","-0.69045","-0.004652","-0.000813","-0.001991","0.45412","0.68699","0.078592"
"-3.0584","-9.2992","-0.69788","-0.013579","-0.009096","-0.01107","0.45372","0.68686","0.078582"
"-3.0734","-9.3292","-0.66833","-0.000932","0.00533","-0.009187","0.4544","0.68699","0.078734"
"-3.0959","-9.3141","-0.68361","-0.013557","0.01248","-0.008194","0.4541","0.68673","0.078196"
"-3.1034","-9.314","-0.69121","-0.00091","0.003511","-0.010996","0.45427","0.68793","0.077114"
"-3.0884","-9.314","-0.69842","-0.004604","0.007226","-0.003733","0.45559","0.68755","0.076897"
"-3.0884","-9.314","-0.69842","-0.002882","0.003758","0.001667","0.45382","0.68778","0.078301"
"-3.0734","-9.2992","-0.69813","-0.01005","-0.003554","-0.003799","0.45548","0.68647","0.078778"
"-3.0734","-9.2991","-0.71307","-0.004589","0.010808","-0.003716","0.45436","0.68686","0.078202"
"-3.0734","-9.2993","-0.66825","0.011633","-0.00172","-0.005648","0.45592","0.68793","0.079565"
"-3.0734","-9.3142","-0.68323","-0.009976","-0.001872","-0.009214","0.45469","0.68648","0.077154"
"-3.0734","-9.3067","-0.66827","-0.004564","-0.001853","-0.009227","0.45376","0.68753","0.077371"
"-3.0884","-9.329","-0.68352","-0.018158","0.007194","-0.002794","0.45361","0.68779","0.077228"
"-3.0734","-9.3216","-0.69072","-0.007272","0.012552","-0.005506","0.45518","0.68608","0.078243"
"-3.0734","-9.2991","-0.7056","-0.007255","-0.007275","-0.011066","0.45594","0.68741","0.077976"
"-3.0659","-9.2842","-0.71291","-0.00471","0.010989","0.005326","0.45405","0.68726","0.077652"
"-3.0734","-9.2992","-0.68319","-0.004596","0.010806","-0.003716","0.45478","0.68794","0.076864"
"-3.0663","-9.3149","-0.68159","0.00437","-0.008043","-0.00927","0.45456","0.68703","0.077816"
"-3.0738","-9.2999","-0.68168","0.000608","-0.017729","-0.000278","0.45532","0.68731","0.077302"
"-3.0738","-9.3148","-0.68919","-0.00116","0.014623","0.004466","0.45518","0.68677","0.078907"
"-3.0962","-9.2998","-0.66712","0.00431","-0.001651","-0.003787","0.45479","0.68678","0.077295"
"-3.0888","-9.3148","-0.66703","-0.017393","-0.003469","-0.001035","0.45543","0.68756","0.0789"
"-3.0738","-9.3297","-0.6967","-0.013646","0.00265","-0.00915","0.45412","0.68662","0.079009"
"-3.0738","-9.2999","-0.68168","-0.00477","0.002903","0.001682","0.45587","0.6881","0.077705"
"-3.0663","-9.3149","-0.68159","-6.8e-05","0.008933","-0.010954","0.45561","0.68784","0.077701"
"-3.1187","-9.2997","-0.67497","-0.001116","-0.005248","-0.003788","0.45399","0.68716","0.077396"
"-3.0738","-9.2999","-0.68915","-0.001136","-0.014223","-0.003868","0.45482","0.68717","0.077688"
"-3.0588","-9.3149","-0.68894","0.004447","0.008948","-0.010969","0.45418","0.6869","0.078073"
"-3.0664","-9.3297","-0.71152","-0.015649","0.000247","0.005307","0.45423","0.68702","0.078738"
"-3.0738","-9.3148","-0.68172","-0.007531","-0.006929","0.003433","0.45445","0.68729","0.078207"
"-3.0738","-9.3148","-0.69666","-0.000965","0.017933","-0.00908","0.45436","0.68742","0.078735"
"-3.0888","-9.2998","-0.68941","0.00344","0.007308","-0.003729","0.4542","0.68663","0.078345"
"-3.0738","-9.2998","-0.69662","-0.001035","-0.005371","-0.009236","0.4557","0.68704","0.078785"
"-3.0738","-9.2998","-0.69662","-0.002002","0.005529","-0.001925","0.45429","0.68716","0.077805"
"-3.0738","-9.3223","-0.68174","0.008039","0.003588","-0.011006","0.45409","0.6877","0.076989"
"-3.0738","-9.2998","-0.69662","-0.00649","0.009975","-0.002789","0.4551","0.68704","0.077833"
"-3.0734","-9.2992","-0.68319","0.000614","-0.005068","0.007924","0.45489","0.68647","0.078093"
"-3.0734","-9.2992","-0.68319","0.000521","-0.007628","0.014238","0.4557","0.68675","0.078248"
"-3.0734","-9.2992","-0.68319","0.000768","0.010003","-0.000116","0.4553","0.68648","0.07824"
"-3.0734","-9.3291","-0.69074","-0.001072","-0.002551","-0.000195","0.45498","0.68767","0.077674"
"-3.0959","-9.2991","-0.69851","0.004376","0.000128","-0.00199","0.45403","0.68713","0.077387"
"-3.0734","-9.3141","-0.6907","-0.002896","-0.000728","0.00163","0.45568","0.68715","0.077973"
"-3.0734","-9.3142","-0.68323","-0.010051","-0.010761","-0.005655","0.45486","0.68712","0.079546"
"-3.0588","-9.3149","-0.69641","-0.015655","-0.008755","0.003434","0.45427","0.68862","0.077777"
"-3.0738","-9.2999","-0.68915","-0.015516","-0.001765","-0.005558","0.45451","0.68676","0.078885"
"-3.0738","-9.3074","-0.6817","-0.004759","-0.001616","-0.000156","0.45355","0.68702","0.078583"
"-3.0963","-9.3297","-0.6672","0.000754","5.5e-05","-0.007384","0.4538","0.68768","0.078446"
"-3.0588","-9.3149","-0.69641","0.000896","-0.004656","-0.018287","0.45484","0.68703","0.077958"
"-3.0888","-9.2998","-0.68193","-0.002988","0.003847","0.0035","0.45519","0.68691","0.077306"
"-3.0963","-9.2998","-0.68206","-0.006423","0.00537","-0.009141","0.45406","0.68808","0.078447"
"-3.0738","-9.3149","-0.66678","-0.002998","-0.006951","0.001613","0.4551","0.6877","0.077954"
"-3.0888","-9.2848","-0.69683","-0.013726","0.009075","-0.001866","0.45376","0.68742","0.077916"
"-3.0588","-9.2999","-0.70384","-0.01366","0.005371","-0.007331","0.45416","0.68624","0.077685"
