"AccX","AccY","AccZ","GyroX","GyroY","GyroZ","MagX","MagY","MagZ"
"-3.0663","-9.2924","-0.69648","-0.014654","0.000102","-0.001934","0.4548","0.68755","0.07928"
"-3.0738","-9.3147","-0.71908","-0.010028","-0.004543","-0.011017","0.45445","0.68636","0.079824"
"-3.0738","-9.2998","-0.69662","-0.011006","-0.003541","-0.005581","0.45346","0.68767","0.079234"
"-3.0738","-9.3148","-0.69666","0.000576","-0.005069","0.005234","0.45274","0.68739","0.080282"
"-3.0663","-9.2999","-0.6965","0.005868","0.002339","0.016121","0.4537","0.68688","0.078724"
"-3.0589","-9.3148","-0.71135","0.005991","-0.014949","0.003339","0.45369","0.68689","0.07859"
"-3.0738","-9.3147","-0.71161","-0.001168","-0.010563","-0.000225","0.45396","0.68715","0.078727"
"-3.1038","-9.2997","-0.69713","-0.00205","0.014611","0.003576","0.45252","0.68807","0.077464"
"-3.1038","-9.3147","-0.68223","-0.002956","-0.017807","-0.003873","0.45298","0.68715","0.078163"
"-3.0738","-9.3148","-0.69666","0.000746","0.010879","-0.003704","0.45396","0.6861","0.078614"
"-3.0663","-9.3148","-0.71148","0.00338","0.009206","0.001701","0.45333","0.68648","0.079119"
"-3.0738","-9.2999","-0.67421","-0.006486","0.009059","-0.003699","0.45416","0.68584","0.077559"
"-3.0888","-9.2998","-0.68941","-0.004667","0.012656","-0.003673","0.45436","0.68636","0.078622"
"-3.0888","-9.3147","-0.69692","-0.002953","0.002","0.000775","0.45292","0.68649","0.07724"
"-3.0738","-9.2998","-0.71157","-0.015596","0.001968","0.001702","0.4534","0.68702","0.078312"
"-3.0888","-9.3072","-0.6969","0.006078","0.003826","0.000764","0.4532","0.6878","0.079357"
"-3.0738","-9.3147","-0.71161","0.000685","0.005576","-0.000122","0.45381","0.68649","0.078335"
"-3.1038","-9.3147","-0.66729","-0.006511","0.001897","-0.003733","0.45434","0.68755","0.078599"
"-3.0738","-9.2999","-0.66674","-0.006633","-0.006927","0.00343","0.45436","0.6865","0.078619"
"-3.0588","-9.2925","-0.68141","-0.02284","-0.003442","0.001677","0.45401","0.68741","0.079524"
"-3.0888","-9.3147","-0.68945","-0.013908","0.005747","0.010776","0.45472","0.68662","0.079961"
"-3.0738","-9.3148","-0.69666","-0.004754","0.002885","0.000778","0.45485","0.68557","0.079718"
"-3.0738","-9.3148","-0.69666","0.01352","-8.7e-05","-0.016472","0.45321","0.68648","0.079248"
"-3.0738","-9.2924","-0.6966","-0.0038","0.016314","-4e-05","0.45424","0.68438","0.078388"
"-3.0588","-9.3149","-0.68147","0.006116","-0.003446","-0.00382","0.45409","0.68649","0.07861"
"-3.0738","-9.3148","-0.68172","-0.007364","2e-05","-0.007375","0.45366","0.68674","0.080058"
"-3.0738","-9.3148","-0.68172","0.003318","-0.000616","0.003449","0.45358","0.68649","0.07886"
"-3.0588","-9.3149","-0.69641","-0.013721","0.001859","-0.003736","0.45483","0.68664","0.077832"
"-3.0738","-9.3148","-0.68919","-0.006445","0.009005","-0.006413","0.45391","0.68557","0.077822"
"-3.0738","-9.3147","-0.71161","-0.008334","0.003732","-0.001017","0.45381","0.68689","0.078461"
"-3.0738","-9.3148","-0.69666","-0.00097","0.01614","-0.009092","0.45366","0.68636","0.078199"
"-3.0738","-9.3148","-0.69666","-0.006598","-0.014169","-0.000236","0.45431","0.68663","0.077949"
"-3.0738","-9.2998","-0.69662","-0.008194","0.007114","-0.010944","0.45245","0.68688","0.078151"
"-3.0963","-9.3147","-0.69704","-0.003078","-0.011313","0.007021","0.45381","0.68662","0.078466"
"-3.0738","-9.2998","-0.69662","-0.000211","0.009157","-9.6e-05","0.45196","0.68674","0.07867"
"-3.0589","-9.3223","-0.69643","-0.002832","0.009014","-0.006428","0.45431","0.68676","0.077946"
"-3.0738","-9.3148","-0.69666","-0.004648","0.001823","-0.00737","0.45433","0.68756","0.078465"
"-3.0738","-9.3147","-0.71161","-0.004483","-0.005622","-0.020987","0.45363","0.68727","0.07978"
"-3.0738","-9.3148","-0.69666","-0.002926","-0.001645","-0.00197","0.45377","0.68597","0.07781"
"-3.0588","-9.2999","-0.6889","0.006084","0.005609","0.000762","0.45477","0.6869","0.078891"
"-3.0439","-9.3149","-0.69616","0.006219","0.009006","-0.008266","0.45331","0.68794","0.079091"
"-3.0589","-9.3298","-0.68151","0.004416","0.007192","-0.009171","0.45306","0.68808","0.077615"
"-3.0738","-9.2998","-0.71157","-0.006458","0.007232","-0.005521","0.45533","0.6869","0.079176"
"-3.0888","-9.3147","-0.69692","-0.006608","0.007456","0.005342","0.45336","0.6857","0.077536"
"-3.0738","-9.3148","-0.69666","-0.001013","-0.006304","-0.011051","0.45431","0.68728","0.079935"
"-3.0588","-9.2999","-0.71131","-0.00376","0.003652","-0.005558","0.45395","0.68729","0.078591"
"-3.0963","-9.3147","-0.6821","-0.012092","0.002134","0.008942","0.45484","0.68596","0.079577"
"-3.0588","-9.2999","-0.6889","-0.006554","0.017269","0.003585","0.45308","0.68674","0.079373"
"-3.0738","-9.2998","-0.69662","-0.006415","-0.001842","-0.011008","0.45343","0.68503","0.07835"
"-3.0738","-9.2998","-0.69662","0.004459","-0.003669","-0.014665","0.45447","0.6865","0.078356"
"-3.0588","-9.3149","-0.69641","-0.006549","0.010063","0.001728","0.45444","0.68598","0.077832"
"-3.0888","-9.3147","-0.71186","-0.006593","-0.005164","0.00164","0.45535","0.68756","0.079564"
"-3.1038","-9.2997","-0.69713","0.000526","-0.004987","0.008866","0.45338","0.68728","0.078173"
"-3.1037","-9.2923","-0.68964","-0.004666","0.005453","-0.005524","0.45343","0.68622","0.078594"
"-3.0589","-9.3148","-0.71135","-0.0047","-0.000795","-0.003776","0.45393","0.68675","0.080066"
"-3.0588","-9.2999","-0.71131","0.006039","0.009287","0.005309","0.45313","0.68609","0.078187"
"-3.0963","-9.3147","-0.6821","-0.008392","-0.008792","-0.000185","0.454","0.6857","0.079022"
"-3.0738","-9.3148","-0.69666","-0.004925","-0.001357","0.012509","0.45438","0.68623","0.078891"
"-3.0738","-9.2998","-0.71157","-0.017205","0.010667","-0.010898","0.45472","0.6865","0.078097"
"-3.0963","-9.2997","-0.71194","-0.004611","0.005379","-0.009146","0.4545","0.68663","0.078754"
"-3.0738","-9.2998","-0.71157","-0.008287","0.007262","-0.003707","0.45389","0.68648","0.079537"
"-3.0738","-9.3223","-0.69668","0.000763","5.1e-05","-0.007394","0.45348","0.68582","0.07927"
"-3.0738","-9.2998","-0.69662","0.005957","-0.008598","0.007006","0.45394","0.68742","0.078588"
"-3.0888","-9.2923","-0.69686","-0.006639","-0.006903","0.004341","0.45313","0.6866","0.080043"
"-3.0738","-9.3148","-0.69666","-0.001021","-0.008992","-0.011069","0.45436","0.68782","0.078861"
"-3.0738","-9.2999","-0.68168","-0.011778","0.000752","-0.014595","0.45439","0.68597","0.078896"
"-3.0888","-9.3147","-0.69692","-0.008339","0.003736","-0.00101","0.45388","0.68781","0.079645"
"-3.0738","-9.2999","-0.68915","-0.003163","-0.006692","0.014277","0.45404","0.68676","0.077937"
"-3.0738","-9.3148","-0.69666","-0.002799","-3.6e-05","-0.011004","0.45381","0.68623","0.07834"
"-3.0738","-9.3073","-0.69664","0.004397","2.7e-05","-0.009213","0.454","0.68754","0.079387"
"-3.0663","-9.2999","-0.68903","0.000734","0.007292","-0.003732","0.45455","0.68676","0.07942"
"-3.0738","-9.3148","-0.70413","-0.003784","0.012693","-0.001872","0.45392","0.68663","0.078069"
"-3.0738","-9.3149","-0.66678","-0.007421","0.0028","-0.002833","0.45561","0.68703","0.079449"
"-3.0738","-9.2998","-0.71157","-0.010964","0.005404","-0.006426","0.45399","0.68702","0.07913"
"-3.0738","-9.3148","-0.69666","-0.010107","-0.008933","-0.006524","0.45561","0.68598","0.079202"
"-3.0738","-9.3148","-0.69666","-0.008358","-0.007042","-0.001993","0.45465","0.68663","0.078892"
"-3.0588","-9.3","-0.68143","-0.006515","-0.0017","-0.003778","0.45377","0.68675","0.079661"
"-3.0588","-9.3149","-0.68894","-0.012085","0.003019","0.008931","0.45348","0.68661","0.079388"
"-3.0888","-9.3297","-0.69696","-0.01108","-0.003426","-0.000146","0.45323","0.68516","0.079407"
"-3.0963","-9.3296","-0.69708","0.011716","-0.015397","-0.020177","0.45503","0.68703","0.078764"
"-3.1037","-9.2923","-0.68217","0.006077","-0.006982","-0.002015","0.45428","0.68649","0.079416"
"-3.0738","-9.3148","-0.69666","-0.006512","-0.001695","-0.003771","0.45427","0.68675","0.079278"
"-3.0588","-9.2998","-0.71878","-0.01103","0.010907","-6.5e-05","0.45393","0.68729","0.078324"
"-3.0738","-9.2998","-0.69662","-0.017341","-0.000838","-0.003739","0.45341","0.68649","0.078455"
"-3.0738","-9.3298","-0.68176","0.004399","0.001819","-0.0092","0.4534","0.68689","0.078314"
"-3.0738","-9.3147","-0.71161","-0.003841","-0.007025","-0.002004","0.45495","0.68783","0.077814"
"-3.0589","-9.3223","-0.69643","0.009691","0.00383","0.000743","0.45339","0.68781","0.07843"
"-3.0888","-9.3148","-0.68198","0.000573","0.007537","0.008039","0.45403","0.68754","0.079788"
"-3.0738","-9.2999","-0.68168","-0.012018","0.002017","0.003503","0.45368","0.68676","0.078459"
"-3.0888","-9.3147","-0.69692","-0.002827","-0.008995","-0.011058","0.45382","0.68755","0.078715"
"-3.0738","-9.3148","-0.69666","-0.013745","-0.001703","-0.002848","0.45507","0.6865","0.079175"
"-3.0439","-9.3298","-0.71114","0.003398","-0.001629","-0.001999","0.45519","0.68663","0.079043"
"-3.0963","-9.2923","-0.69698","0.00067","-0.001607","-0.001065","0.45407","0.68782","0.078585"
"-3.0588","-9.2999","-0.69637","-0.001891","0.001755","-0.011002","0.45502","0.68677","0.078502"
"-3.0888","-9.3147","-0.69692","-0.008366","0.002876","0.000794","0.45519","0.68703","0.079169"
"-3.1038","-9.2997","-0.68966","-0.006675","0.002156","0.008931","0.45345","0.68596","0.078866"
"-3.1038","-9.3146","-0.71211","-0.002897","-0.000776","-0.00376","0.45433","0.68754","0.080197"
"-3.0738","-9.2998","-0.69662","0.00074","0.009087","-0.003717","0.45435","0.68689","0.078611"
"-3.1038","-9.3146","-0.69717","0.004416","-0.000897","-0.011014","0.4528","0.68689","0.077496"
"-3.0738","-9.2998","-0.69662","0.004294","0.014588","0.001738","0.45342","0.68662","0.078587"
"-3.0738","-9.3148","-0.69666","-0.002964","-0.014193","-0.002054","0.45313","0.68807","0.07855"
"-3.0738","-9.3148","-0.68172","0.000807","-2.4e-05","-0.011013","0.45476","0.68703","0.078755"
"-3.0738","-9.2999","-0.68915","-0.010195","-0.000702","0.001672","0.45402","0.68622","0.079413"
"-3.0963","-9.3297","-0.6672","-0.004713","-0.000787","-0.003758","0.45475","0.68637","0.078501"
"-3.0888","-9.2998","-0.69688","-0.003687","0.005342","-0.01096","0.45353","0.68742","0.078442"
"-3.0589","-9.3148","-0.71135","0.00081","-0.001819","-0.011032","0.45389","0.68662","0.079534"
"-3.0738","-9.3148","-0.68172","-0.001073","-0.00892","-0.00745","0.45437","0.68636","0.078755"
"-3.0888","-9.3148","-0.68198","0.006176","-0.007133","-0.009258","0.45333","0.68859","0.079479"
"-3.0589","-9.3148","-0.71135","-0.011144","-0.01053","0.003411","0.45433","0.68769","0.078463"
"-3.0888","-9.3148","-0.68198","-0.010226","0.010149","0.006274","0.45325","0.68847","0.078413"
"-3.0589","-9.3148","-0.71135","-0.008231","-0.00723","-0.011046","0.45471","0.68781","0.079938"
"-3.0663","-9.3148","-0.71148","-0.008289","0.006364","-0.003716","0.45389","0.68754","0.07965"
"-3.0738","-9.2999","-0.68168","-0.006419","0.00626","-0.009145","0.45328","0.68477","0.078217"
"-3.0888","-9.2998","-0.68193","0.002568","0.009956","-0.005518","0.45297","0.68781","0.07815"
"-3.0738","-9.3223","-0.69668","-0.006447","0.003609","-0.007353","0.45286","0.68767","0.078416"
"-3.0588","-9.3149","-0.68894","0.000664","0.000193","-0.000164","0.4535","0.68715","0.077913"
"-3.0663","-9.3148","-0.69654","-0.002866","0.001865","-0.005568","0.45359","0.68767","0.079238"
"-3.0738","-9.3148","-0.68172","-0.001019","-0.007201","-0.011057","0.45482","0.68742","0.079549"
"-3.0738","-9.2999","-0.68168","-0.013645","-0.003662","-0.011002","0.45436","0.68688","0.080477"
"-3.0738","-9.2998","-0.71157","-0.008238","-0.009018","-0.011052","0.45342","0.68794","0.078828"
"-3.0588","-9.3149","-0.69641","0.000585","0.005718","0.007109","0.45403","0.68807","0.079912"
"-3.0888","-9.2998","-0.69688","-0.001023","0.007218","-0.007336","0.45382","0.68676","0.078597"
"-3.0888","-9.2923","-0.68939","-0.006526","-0.005276","-0.003789","0.45444","0.68609","0.079695"
"-3.0738","-9.3148","-0.69666","-0.011917","0.00187","-0.003733","0.45338","0.68728","0.078173"
"-3.0963","-9.2998","-0.68953","0.000875","-0.00192","-0.016443","0.45423","0.68663","0.078746"
