"AccX","AccY","AccZ","GyroX","GyroY","GyroZ","MagX","MagY","MagZ"
"0.02481132690056557","-0.11536436603226087","-0.03691974266080847","0.027066435307380194","0.0910592846445738","-0.42416810501413577","0.025518435542156156","0.736014780704021","-0.4921566960762653"
"0.024446418373310526","-0.11909336152863896","-0.03386729995826031","0.045444362410896624","0.022613382166731474","-0.5301015743048452","-0.0648996777642717","0.7881389986669601","-0.47687557328512264"
"0.03314741668677701","-0.08691805108412438","-0.04263636065854411","0.07770417598859207","0.03517340511171964","-0.6106741099394741","-0.19117853431426585","0.844761915269576","-0.4872536620256313"
"0.049481646673272414","-0.06676173977292198","-0.03545547887453874","0.011039542725671472","0.05228069246133386","-0.587084801313914","-0.3452933524029725","0.9008967032807901","-0.4957522543800635"
"0.07531216374239699","-0.06147259072903418","-0.028320032638203246","-0.026123554561920205","0.07518454527831876","-0.5202726957108619","-0.4730768555226269","0.9534430865119686","-0.4658437466711963"
"0.08743377030066292","-0.05968391935166286","-0.02139111161854894","-0.007320284685375671","0.1964720534349709","-0.43365721990363576","-0.584392837852112","0.9968469531528367","-0.4304274973787837"
"0.08862901422080646","-0.04049361523032999","0.0056004950503839804","0.013497442453015878","0.1923962685501929","-0.2391400722033","-0.6515446569795362","1.0174934733026721","-0.4044741038040947"
"0.09123969884257965","-0.0333825558520001","0.013447627183402904","0.011668218214099165","0.14509993214797184","-0.07200059843351402","-0.674476585254171","1.0266755678868802","-0.3936547419990291"
"0.09150630351592245","-0.04563215024999081","0.00675724278901539","-0.002982423815224592","0.0144651630130526","0.07208833487067846","-0.6693217775618168","1.0204354375157159","-0.38929104169396495"
"0.0904052233265587","-0.0552298991041784","-0.0033626993535801567","-0.03712585698420454","-0.1099704880898338","0.22359625135062577","-0.6291421413868188","1.009841727815832","-0.38353814840788775"
"0.08549879228687807","-0.053790236776050264","-0.0137166345666755","-0.042422905280267584","-0.19082563579819514","0.3519978090421001","-0.5712132484549038","0.9966094851894521","-0.3840938256002929"
"0.07141274544323364","-0.06346485071846403","-0.031558348035764475","-0.045635600693564995","-0.236563935817568","0.44099163078070985","-0.48639576404665524","0.9676252009918874","-0.39200405386864906"
"0.055828551717243984","-0.06539063279375232","-0.039230759835471106","-0.07499464972817829","-0.20194010732192325","0.5280682144725919","-0.38391261435758217","0.9293400882284226","-0.3963514107268778"
"0.036473957482729955","-0.07955250594072133","-0.04926582011401068","-0.065089881849244","-0.19909926371755945","0.561607745872308","-0.2619805145643841","0.8774401455642358","-0.3961226024711815"
"0.022956936864963435","-0.09778926748108618","-0.05324762629162424","-0.030708168154405156","-0.20720057424895905","0.5645928127045547","-0.15721253119545678","0.8249201476623219","-0.4208502375332121"
"0.023441234989526195","-0.10942290245585903","-0.05853673709082981","0.011337032351895296","-0.1856297878916461","0.5405666650303733","-0.06729596674558219","0.7740096548455713","-0.46362103790157555"
"0.030651788975312462","-0.11070052486826713","-0.058592498899333725","0.020703623204748316","-0.0944044840436823","0.4358951752134592","0.02337292098912245","0.7164236737247843","-0.5166228359889286"
"0.0287781425530478","-0.11194698575842138","-0.0495632164260316","-0.024778593371516704","-0.05996733271833269","0.3025379212037345","0.09707273907710445","0.6748667801324636","-0.5449950596952637"
"0.031775399137071385","-0.1290131127794497","-0.0612711309596889","-0.1317410366177726","-0.15963858187362562","0.15257350269558312","0.14109758315234525","0.6560804256958083","-0.5547684409028607"
"0.0357017763775623","-0.11010845594544386","-0.05717160540856706","0.06486398458099615","-0.00331392281991874","-0.0015219570823654504","0.16074158003401912","0.6502888459221483","-0.5555692697977976"
"0.035467811279612495","-0.07065796877206242","-0.0739393877509138","0.03151048745834839","0.04699868586080244","-0.05500998632574182","0.17261156963911548","0.6425447517828811","-0.5538695513269111"
"0.028694377271065774","-0.06393331226968033","-0.08386912016894593","-0.00909829064560272","0.029032204868419408","-0.06863936464273204","0.16851558731059632","0.648309946227276","-0.5380817816838698"
"0.03154335967778784","-0.09113316632766261","-0.06832809761368555","0.024513223369692236","0.0903915547662103","-0.13494910533986962","0.15277252597989305","0.6604076196952626","-0.5194012219509545"
"0.026738891205485334","-0.12255229049881694","-0.058796958863848114","0.049382008272564726","0.16549560965124724","-0.2526117030860659","0.12042262473220063","0.6778087443455074","-0.5024530675825966"
"0.02737146350734961","-0.09209501864789829","-0.03870825103726767","0.05238386152358699","0.14600938502889702","-0.3686895458392075","0.06965473491885307","0.7105265526340646","-0.4816642032079085"
"0.021805404942543835","-0.10138322971436423","-0.03386729995826031","0.029555143021906365","0.11692125262162073","-0.4626099412928262","0.004620566519098993","0.7569515394757711","-0.45064434111423113"
"0.02965430814619314","-0.10559003521863478","-0.046874258104842366","0.03011642603837397","0.08165602051521816","-0.5718197034481968","-0.10499572246317737","0.8122288042858736","-0.42866240512055553"
"0.03946158587342227","-0.10720004720175066","-0.04467682979935438","0.04940318876375218","0.08651202023994777","-0.6343604939091724","-0.24010741165358407","0.8756195578449532","-0.41967350936105996"
"0.04879900776608555","-0.08676847577730586","-0.04052567294406224","0.04491870112960793","0.09650403544484974","-0.6225415707603578","-0.40503339398355215","0.937875742245639","-0.41856215497624955"
"0.06160450489667139","-0.06341603100026633","-0.030988338437724364","0.02555491843627533","0.12504888942062603","-0.5543461415033374","-0.5447983420097595","0.9828759213070376","-0.40945885508890595"
"0.08243606398820186","-0.03316130904399772","0.0009410796368393993","0.014201212410199103","0.11102895527204738","-0.405796596135999","-0.6486468191416721","1.0184697304854757","-0.39296831723194037"
"0.09385567897068504","-0.022075078143484285","0.018231577302606248","0.03712813137102157","0.05743585431794676","-0.23983658779749095","-0.7280029937785619","1.0396043792267131","-0.39646581485472593"
"0.10264140538546669","-0.0265955763051103","0.0040228489201562835","0.03428705730310408","-0.011644511209193666","-0.04502336029753404","-0.7635850987684873","1.0461479408844248","-0.4165355675686543"
"0.10398453835517853","-0.041015051369377845","-0.007114436439810858","-0.01987530966162047","-0.04510017141226057","0.15066354529966583","-0.751798700639483","1.0387864340194992","-0.42132419749144007"
"0.09955990210979451","-0.05447579026563509","-0.017221367493755486","-0.05877809547538188","-0.07785244161084348","0.2868359842893956","-0.6920307952335392","1.0266755678868802","-0.4071707725319434"
"0.08309655805072681","-0.06578950027860168","-0.02266124170113833","-0.06151326708736209","-0.12950697195034036","0.37978562630163326","-0.6238758783930082","1.0085620393464814","-0.3948805005116876"
"0.07010234833084814","-0.07067043338096396","-0.03380327714108913","-0.06017119414575688","-0.16677060709772332","0.46220259347488624","-0.5227859199721392","0.9805803976609857","-0.3875913232230785"
"0.05257807364860806","-0.06871037363119642","-0.03936500122631389","-0.0594751261853691","-0.18215472056768975","0.5224378445125818","-0.41325322246595475","0.9391686233796223","-0.3837179263230776"
"0.03849491526296301","-0.07863427975164103","-0.04733480933804144","-0.03262981635486714","-0.21268122450506097","0.565248071277487","-0.2797297713213007","0.8858042949412297","-0.3914483766762438"
"0.02520030591114878","-0.09205243123415134","-0.05668420589719943","-0.012491020233993516","-0.184291934837864","0.5762418540011276","-0.174070145540723","0.8304214888140672","-0.42733858592688434"
"0.018757118933864537","-0.107844051994997","-0.056539638245522585","0.0031365238138717113","-0.16144073455609054","0.5511478775414269","-0.07841363306584881","0.7783236561803931","-0.46891631467626016"
"0.029499294233559736","-0.11163537053588281","-0.05061442977893892","0.022692663877170387","-0.09319347573381874","0.4523737148809029","0.011530795209390045","0.7243524651689062","-0.520921162506651"
"0.02818985994050735","-0.11799232107566941","-0.05378252660282855","0.008769860545015598","-0.05631516141230145","0.3190407297072127","0.08648448543875535","0.6782045242844819","-0.5610606679345077"
"0.028185045843841718","-0.12218873940585528","-0.050719757639446326","-0.020624328849976895","-0.0717423542292591","0.17336946829356914","0.14031739604215096","0.6450381653984202","-0.5869813746155258"
"0.029655270965526274","-0.10778172895048928","-0.03732040158116999","0.015030139815308203","-0.028996393517835662","0.012072474110735077","0.16221836277831525","0.6327426019609463","-0.597751706080085"
"0.0319881822096924","-0.08759425611703303","-0.052248044242887225","0.04520656325983744","0.012467477961188725","-0.09390322295467445","0.16832054053304774","0.6305526196319542","-0.6027691442585671"
"0.0321249025549964","-0.0874041708312845","-0.07214468361795416","-0.012818355097799664","0.0031015492658921003","-0.16034401536639845","0.15241029625016014","0.6453284040203349","-0.5967057254826165"
"0.03774102772512476","-0.0987968233672942","-0.05179162351402177","-0.02065609958675808","0.03247615933065987","-0.21853583040998678","0.1224009563330497","0.6727427611266339","-0.5734653440826115"
"0.03399084642259605","-0.09956028066251367","-0.04822699827410423","0.018815671240266375","0.11287179400444847","-0.33541697163587125","0.06968259874421734","0.7083101849758073","-0.541088975901592"
"0.03175710556974198","-0.09776122211105774","-0.049842025468551224","0.005916559557185349","0.12516616097632427","-0.4228090501962023","0.009357416830992078","0.751265501019171","-0.5057871307370275"
"0.03254180332624028","-0.10296208017522626","-0.05169249141001479","-0.01323715117355165","0.07792965700047987","-0.49105301712529165","-0.07011021310735378","0.800896305366571","-0.47122074068005815"
"0.034188224385887034","-0.10971374333022837","-0.055062982946252","0.011105972448032133","0.09641309015675724","-0.5532055062097148","-0.18616304574873205","0.8572817540058021","-0.4383540690939753"
"0.03556505603225829","-0.10592242478934256","-0.0546850417997254","0.04393958478698776","0.1346555837996623","-0.6071793975505023","-0.318153986498362","0.9088518800541769","-0.4216837533218199"
"0.05184055403943297","-0.07965014537711673","-0.037291488050834626","0.06475326837706172","0.15248564685990657","-0.5981756593816928","-0.48051649689483517","0.964524924803254","-0.416486537228148"
"0.0717131450751692","-0.05640988208019108","-0.029195699556931538","0.06358930411135104","0.14677284678946323","-0.511754334262743","-0.6106684251704361","1.0024010649631119","-0.4236939972825797"
"0.08141932677242","-0.03539143531996534","-0.007285026268789529","0.045952694199395586","0.15024791411341953","-0.36927199790403614","-0.703650010410359","1.0267679165393075","-0.42902196095093537"
"0.0944309635222283","-0.02308678889932614","0.017938311494918945","0.04652938120945407","0.09862449663563853","-0.2007686155491097","-0.7688513617622977","1.0414117742813633","-0.4390078069673931"
"0.10719303750089013","-0.027275936207652823","0.025166900603977672","0.02029445462499063","0.02808445923461313","-0.022982403410976803","-0.7928142515754034","1.0486545471645965","-0.451739352052206"
"0.10710927221890808","-0.033006540150136904","0.018961850468790977","-0.016645284755533323","-0.04224975461967656","0.1756483119972112","-0.7693529106188511","1.0385753513853797","-0.455400284143346"
"0.09639525938470685","-0.05090364109793476","-0.009910994398891003","-0.05583111895152712","-0.0980590486467686","0.3464159767541589","-0.699665483383296","1.0211742267351347","-0.4456759332762554"
"0.07613922554955288","-0.08630832396535724","-0.02749806227581206","-0.08715995366657388","-0.13500198198877267","0.4142473734706613","-0.6181637941933725","1.0034300928044455","-0.4273058990332135"
"0.0655530269818242","-0.0799150183162745","-0.014270122147381119","-0.06767486452371313","-0.17854084201453957","0.4446804938579579","-0.5247642515729887","0.9777967454235317","-0.41285829203067875"
"0.050859441138976794","-0.06274190340217457","-0.030757030195041418","-0.03388813008132195","-0.24072109280221826","0.49906695541133245","-0.4255968971022407","0.9405538531660329","-0.4200984389787815"
"0.03823110276568628","-0.06483180282799984","-0.04140753561929097","-0.017269146495963866","-0.22510722281496545","0.5804403626351008","-0.29892794699714925","0.8872950660447003","-0.44721221727878724"
"0.01639628592903773","-0.0943282610760913","-0.06087253729149419","-0.00631267095461239","-0.22608847460754264","0.6460390264364266","-0.1834602546884167","0.826833084034032","-0.49447746552689864"
"0.012585447008522035","-0.13372888981386657","-0.057826290345446466","0.025985267507220477","-0.17850494255871358","0.564374393180244","-0.09226195427179455","0.7703289014131085","-0.554850158137038"
"0.0453607799274899","-0.11762876998270776","-0.04112459607243772","0.048552118117856174","-0.02077757210103234","0.41060704806548226","0.008967323275894928","0.7123075623594497","-0.6149940424914809"
"0.04687433191916516","-0.11622650148128423","-0.047696228467233544","-0.014956621958133364","0.0021722320194098384","0.26953230419677804","0.08768262992941074","0.6692203196697611","-0.6421568511319932"
"0.03366830194599858","-0.12237570853937843","-0.043733009559121294","-0.10337843341856918","-0.0567244152087178","0.11794915432512373","0.12992418918135043","0.655170131836167","-0.6354233510357892"
"0.02604854974363345","-0.11104330161305952","-0.027902851700507218","-0.051287903591817646","-0.031946610797615946","-0.01975877392051061","0.12830808731023394","0.6601833443965104","-0.6089633106092013"
"0.02911705495830842","-0.08349547722324256","-0.035975922420575374","0.04618375410325875","0.004895086078958818","-0.08734335657454186","0.1268313045659381","0.6630461526217591","-0.5962971393117301"
"0.02967452735218881","-0.09114874708878953","-0.0538940502198364","0.04038029951789561","0.03252641856881627","-0.16153561521569368","0.11367957899409388","0.6673337686273161","-0.6001051624243893"
"0.030021142312114436","-0.09796481072311625","-0.06163255008888101","-0.020209383772622633","0.05780920865853711","-0.2951064349825223","0.08336373699797907","0.6893523258989298","-0.5717656256117251"
"0.03145863157647268","-0.1020895575521183","-0.058053468083795794","-0.05045897618670854","0.07691011245502159","-0.38655140916061925","0.017047832631477123","0.7372548911794745","-0.5299754320534884"
"0.03267659803287803","-0.1070650139386506","-0.0575722643289286","-0.011573519865736867","0.14095952824270708","-0.46122661763885814","-0.060859423086480444","0.7906060269532346","-0.47945783788512325"
"0.029711114486847625","-0.10943328962994367","-0.07019095506814998","0.04993077554423973","0.14552593902377364","-0.5199329320063785","-0.15665525468817532","0.8422289236601392","-0.44502219540283744"
"0.03729813083188646","-0.103595697794388","-0.0580039020317923","0.07389361307404872","0.13040987482397462","-0.5542976038312684","-0.2718721725686312","0.8874138000263926","-0.44649310561802763"
"0.05261754924126626","-0.08482088063643986","-0.05580440847413751","0.07751066331910668","0.15696589894699076","-0.5736398661507863","-0.4002129521955671","0.932902107679193","-0.44928783502688896"
"0.06723892363412916","-0.05489023851161137","-0.04184536907865511","0.04269860055332269","0.18451035475374933","-0.49396527744943486","-0.5345723181011435","0.9697096420038197","-0.45481192005726995"
"0.07766529419255878","-0.037856311730245326","-0.007125588801511642","0.02906991722379372","0.15495552942073504","-0.3313398071820708","-0.6215631808877901","0.9989973574879315","-0.44067483854460865"
"0.08862516294347396","-0.043758304045125616","0.008514276722452377","0.04642347875351679","0.16977243148865076","-0.22742065128222705","-0.6774858783934913","1.017414317314877","-0.4376186139863802"
"0.09396659575786126","-0.0398994688726898","0.005025735372360197","0.03327039372610616","0.15634124841561847","-0.07691261084690224","-0.7016159511587815","1.0239183009786912","-0.44297926454840664"
"0.10030098415050218","-0.05261025380003759","0.023084300318964437","0.013327998523516226","0.03183236242284703","0.07859966357874199","-0.6953465904518642","1.0208707954485878","-0.44971276464461063"
"0.0966893525500104","-0.05280241652060303","0.010455180056300637","-0.026333433974595914","-0.013946862976167488","0.20764677230873474","-0.6449130665428859","1.0058839284260874","-0.4514451700091679"
"0.08759744958729446","-0.05539297773730691","0.009031808262933799","-0.0617780232272053","-0.07885523307691628","0.3205696663773879","-0.5817179106171608","0.9897888775744584","-0.43431723772562003"
"0.0730129511748903","-0.06149959738165419","-0.006495273840200616","-0.06735523165670243","-0.15020181158549903","0.4063357329234056","-0.5150955041716541","0.9705935505341962","-0.41705855786738855"
"0.05771375197150617","-0.06622264543793027","-0.012630311926932382","-0.0775266811746788","-0.20163855189298488","0.4925143696820102","-0.4252068035471436","0.9387464581113828","-0.40836384415093097"
"0.03879242643689918","-0.07960963539818673","-0.023107336169169726","-0.07469716010195447","-0.2508567058304242","0.5534048792926379","-0.3166214761033378","0.8977040784397291","-0.4090666123648552"
"0.024129650812711827","-0.08975063345699988","-0.03850379107275328","-0.06507640335485197","-0.3146380723479423","0.5611951756597211","-0.20204542620625568","0.8408436938737286","-0.424216987581314"
"0.015810891774496655","-0.10014715599829462","-0.05907370265420092","-0.010988168109283518","-0.26370871101613047","0.5690097408628387","-0.09265204782689201","0.7853817317587714","-0.4717110440851215"
"0.02284428700298761","-0.11667314996692282","-0.07896414627276742","0.0380870299720537","-0.19429352323098625","0.48042848933681587","-0.002958393979929633","0.7328617338568576","-0.5343718192522234"
"0.03454446753914393","-0.10711694980907373","-0.0747861411393067","0.03003651782162129","-0.08547748602828485","0.353745165236586","0.07238538980453282","0.6780066343149946","-0.5939763698610968"
"0.03439811900050867","-0.11054471725699785","-0.06709514207009878","-0.04917563097066856","-0.07175910730864456","0.21933949751016976","0.12245668398377792","0.6472413403920447","-0.620011480669963"
"0.031368126559158764","-0.11584217604015336","-0.05087878205629086","-0.06558280964415207","-0.05128684429960706","0.07123407184226312","0.1505155561254032","0.6351304742594258","-0.6289513460889524"
"0.030237776662067957","-0.09874904236650496","-0.057925422449453444","-0.0007823484306074969","0.021550758274282013","-0.0698212569576135","0.14965177753911646","0.6399062188563845","-0.6169552561117347"
"0.029529141632886665","-0.08973609141328141","-0.06237604086893333","0.038054296485673086","0.06588179962527589","-0.12332190599572782","0.1433545530068354","0.6515421490622342","-0.5998273238281867"
"0.03184279649039026","-0.08821125425765937","-0.05349132604730806","0.020031623984346277","0.10412907986229111","-0.17434227999111349","0.1252709303455498","0.6626107946888872","-0.5852816561446392"
"0.03241471117426756","-0.09616263601943495","-0.03468927032065149","0.013416571486663772","0.10280797988789449","-0.25748973912900575","0.09593032223717726","0.6910409869718873","-0.5566315938421017"
"0.032132605109661413","-0.09197037255888287","-0.03513949529301651","0.013901797284776416","0.11380278655886926","-0.3296409886596539","0.04226459458596627","0.7237060246019147","-0.5324432925256408"
"0.033995660519261686","-0.09661136193989045","-0.04852026408179153","-0.01239667077324939","0.16617051942077593","-0.4009185600930591","-0.020066782753472946","0.766977964596458","-0.49220572641677157"
"0.03440293309717431","-0.10947483832628216","-0.059992739868432274","0.0014622059855032576","0.11975012974070913","-0.465643545797142","-0.10009168919910028","0.8163581083158408","-0.4477025206838507"
"0.032946187446153526","-0.11862593869483111","-0.06040165979746105","0.03932608870651992","0.10681435915807555","-0.5295919287481201","-0.2069773232956972","0.8655667473950013","-0.42271339047245304"
"0.0383793769429878","-0.10390731301692657","-0.05765693966776788","0.0948237893656537","0.13331773074588024","-0.6002870481166968","-0.33411995843197784","0.9125854041451695","-0.42142225817245266"
"0.05392794635365177","-0.07654541904322423","-0.04796884175325273","0.09201929978251452","0.15929936357568045","-0.5921812568811647","-0.48313569647905846","0.9593797855965858","-0.44333882037878647"
"0.07015337775550384","-0.03997841139573291","-0.01786985667413446","0.06616369654022645","0.12294518130922269","-0.45066967396383906","-0.5994950311994414","0.9930474657386817","-0.4560376785699285"
"0.08692289836250586","-0.02186837337920038","0.004435486303085324","0.04935120028538296","0.11169429185335583","-0.3024598923009839","-0.6797985758987096","1.0144063897786713","-0.46992960838005793"
"0.100415174523411","-0.023366203882202376","0.02343084963255549","0.04105807523589422","0.11025352702620587","-0.1515465623038825","-0.7260525260030765","1.025857622679666","-0.4797029895876549"
"0.10054265180311699","-0.03423014925730497","0.023840182612017632","0.009494137068666676","0.040196935630303895","0.047935989249117385","-0.7352197245478574","1.0256993107040766","-0.4881035212610745"
"0.10045022114713681","-0.04523536019995838","0.01652629858846957","-0.04321621095019778","-0.04175912872338796","0.21981031292923958","-0.6938698077075682","1.0168206474064154","-0.478460887628161"
"0.09164427552635951","-0.04726916888572671","0.006938984979694846","-0.09264377538492631","-0.10753171839072119","0.3492796994062331","-0.6247396569792947","1.0044986986396767","-0.4515759175838515"
"0.07561930310966443","-0.057984577671419256","0.012935238120816843","-0.123239957654807","-0.1738188669248937","0.463804336653165","-0.5512627494942252","0.9861345094712608","-0.42359593660156714"
"0.053683390243037574","-0.060167961664006085","-0.005922992464777007","-0.10173213160354412","-0.27979166722617627","0.5935940717658142","-0.4425659667489632","0.9492610118234716","-0.40189183920409416"
"0.027450414692666007","-0.08355780026775027","-0.043718552793953605","-0.07783668654569521","-0.32844739635567505","0.669361377865607","-0.3073428222571005","0.8960681880253013","-0.40808600555472835"
"0.008072712794156934","-0.10730391894259683","-0.07417276124576357","-0.022521908310453132","-0.28931698950534035","0.6412095280655559","-0.15955309252603908","0.8240098538026807","-0.43611501687751913"
"0.020397763077512527","-0.1059328119634272","-0.09655183372533852","0.027300383460041655","-0.1873553550683489","0.5510022645252197","-0.049045161132112304","0.7592602557864555","-0.4948533648041138"
"0.029929674475467394","-0.09814243139996325","-0.09678107671585465","0.03387692597374696","-0.09288234711666012","0.5139680207365318","0.047252219326135825","0.6968457594101799","-0.5513199736205814"
"0.024583138718614523","-0.1101811661640362","-0.07559365473653021","-0.001588651220129997","-0.04199367183478446","0.3934247121530373","0.12925545737261285","0.6438112475875993","-0.5929140458167929"
"0.028606760711751236","-0.1263851577360412","-0.051467378923832276","-0.023931373724018434","-0.018746620220103042","0.21809450622159854","0.1733081652732173","0.6126237883964102","-0.6138826881066706"
"0.028340059756475123","-0.11896871543962353","-0.028293184360034685","-0.015363865038692193","0.009393527223661517","0.014528965694149878","0.19624009354785238","0.6023335099830737","-0.6132126067864174"
"0.02476896284990799","-0.09504809224015534","-0.03276858580551632","0.026905656124275416","0.014352199392053473","-0.12221524707255339","0.18671066527333832","0.6081382824213661","-0.6083259161826189"
"0.023760891008124275","-0.09504809224015534","-0.029412551034446798","0.008271926452190478","-0.0244919691304953","-0.18974085645502073","0.16606357067855762","0.6210011304380367","-0.6020827194914784"
"0.02998936927412126","-0.07456977853232978","-0.044195626044487187","0.011836699393999388","0.02672506650733545","-0.22375120327380657","0.13803256236229688","0.6443125688436337","-0.584758665845905"
"0.029452116086236525","-0.09005393894027074","-0.06219636393042069","0.04712821146029943","0.1035690483514056","-0.3018046337280517","0.10178172556363327","0.6707110907732317","-0.5672221473914709"
"0.02476896284990799","-0.09215734169240601","-0.04401594910597454","0.02667459622041225","0.06819372458046996","-0.3567250096741858","0.04552466215356322","0.7075450104271234","-0.5448969990142509"
"0.034280655041867204","-0.09709332681741678","-0.0440076880973073","0.01453624927080069","0.1196232849967906","-0.4459615197731408","-0.022936756765972437","0.7526375381409494","-0.5238466394901958"
