"AccX","AccY","AccZ","GyroX","GyroY","GyroZ","MagX","MagY","MagZ"
"0.030306136834719957","0.10615666336594928","-0.04501140065037793","-0.01826751783057262","0.06925156187880929","-0.01231042545315399","-0.012822188158812952","-0.4931589757690257","0.38708805677708547"
"0.02707106387541406","0.0895621140483626","-0.05100269718629958","-0.02659241361684254","0.04448093735887264","0.04353847615966114","-0.028091564458326623","-0.49994000539012173","0.39633844768594817"
"0.03129784074784051","0.09115550655294308","-0.058881634202687404","-0.01855441721120272","0.08572462550883093","0.09865300279407148","-0.04207920479109335","-0.5136207986140063","0.4094785789416472"
"0.02992678601746802","0.09038685567068132","-0.06684111605358091","-0.018621809683162807","0.11695236548333658","0.16054096156571823","-0.07646316529036337","-0.540995577726408","0.43731146890241257"
"0.025306216037792716","0.09302623660558293","-0.07184935255810004","-0.01609170373586116","0.12883508536174096","0.22573918957247446","-0.12007005198514308","-0.5686342101314592","0.4648828637138109"
"0.02899188844500194","0.09200309995824797","-0.059292619383883","-0.008325780367020209","0.11996552647566511","0.2954999587537217","-0.17507324325382967","-0.5971039804083569","0.4940886032087537"
"0.0306277184919843","0.09713955754309186","-0.053654480968486205","-0.009785693859595632","0.13179320052180296","0.3643263777476397","-0.24030245843113265","-0.639900984476131","0.5236865854277474"
"0.03385027479995954","0.1138390173189332","-0.05866684797733896","-0.03393626756129345","0.12680556945904473","0.41148072616272524","-0.3142809147727554","-0.6887006509516844","0.5517809705378798"
"0.033523879046029575","0.12355102508805157","-0.050798237221785184","-0.10086565696405726","0.10560335084821199","0.5152300002103273","-0.42144518712299317","-0.7612471137657068","0.5663756685619336"
"0.04323006074328039","0.10810529722422374","-0.05623398092483441","-0.12724499598843517","0.0727362023909859","0.5789356948009601","-0.5185227546914355","-0.8387408258169103","0.5525981428796523"
"0.05673552752904939","0.08630365753801775","-0.03360294768090837","-0.09485039746681954","0.06951003796075646","0.5567539786654027","-0.6125631652951933","-0.9035563871562979","0.5441976112062327"
"0.06577832670577587","0.06472222594240568","-0.014261861138713871","-0.04993331490541984","0.08608840666120102","0.5133127621635997","-0.7272785343190958","-0.9622373594415808","0.5390657688999024"
"0.0866240392415033","0.041632576669706996","0.0059009892406551275","-0.01646621333003937","0.07616579707089596","0.3662436157943673","-0.8247183316172709","-0.9985303798455408","0.5446388842707898"
"0.09863963939119197","0.04229008478926335","0.013700207523404014","-0.03757642379673771","-0.00932468837371786","0.2043729063276771","-0.9012045322416606","-1.029203325116063","0.5340483307214203"
"0.09710394255485477","0.06130276823374923","0.008479477223441594","-0.04909090900591872","-0.09278661523445746","0.03854880347096242","-0.9153593555266114","-1.043820797528854","0.5058722283771107"
"0.09442441635076303","0.06395149762532697","0.0030897679911906168","-0.005042034033284872","-0.09972478339709479","-0.10795487901866545","-0.881978492740448","-1.0408524479865453","0.49606616027584277"
"0.09673826377213324","0.05899785430437236","-0.00764644539798163","0.04738430285374778","-0.14338570157267008","-0.21364565994902962","-0.817835966752344","-1.0225938001351893","0.49435009835812094"
"0.0901765537349411","0.062244884923224136","-0.009020870714995025","0.09287518417640768","-0.1329724660860764","-0.3081873376051322","-0.7353311798493138","-0.9857334951520327","0.5119356471530613"
"0.08012818604669704","0.06909418751462165","-0.026358043079731833","0.09595116914658604","-0.13039727845482504","-0.40601501566030973","-0.6257148908670372","-0.9359575714936754","0.5276580430087608"
"0.061641092031330204","0.08181847576827944","-0.03988957527668414","0.09646720293188044","-0.14496288433195878","-0.4687984944816305","-0.5240119282881585","-0.8730153685321005","0.545897329677119"
"0.04203231349287071","0.08993085872836656","-0.04757024808505801","0.0832072526989331","-0.16367607400552253","-0.5219715142332787","-0.434095363838284","-0.8103897895217049","0.5603939670201601"
"0.030149197283420297","0.09400263096953705","-0.044371172478666204","0.07050184623525736","-0.19256077616311823","-0.5217288258729335","-0.33166794179993897","-0.7421045573839745","0.5529576987100321"
"0.027196230388720537","0.09268657601301587","-0.054412428513706215","0.014190622164605373","-0.16537292161756456","-0.4979939042311663","-0.23358727651839","-0.6815766120501437","0.5237683026619246"
"0.023414276048198648","0.09954418834368108","-0.06326822980499612","-0.02538127462075979","-0.12726923920385333","-0.4715894106256011","-0.13269236487506947","-0.6224734744966212","0.47369198155811654"
"0.027981890964551975","0.1066542090046025","-0.06370606326436026","-0.008236244654273231","-0.037185538051156174","-0.42894906571293756","-0.07080680874145592","-0.5748611478379911","0.4367067613695011"
"0.026655125923503303","0.11504392951274896","-0.055878757552142735","0.030423543160592093","-0.06564423333295005","-0.2928979709033803","-0.03645071206754955","-0.5337791901724399","0.4146104212479775"
"0.02435591335599661","0.11038008834875522","-0.06696503118358962","0.02351966578308063","-0.03416041057355231","-0.16161327549100418","-0.006942921006992676","-0.5018793270910967","0.4025653009302533"
"0.02767282595861828","0.10929982224395486","-0.06372052002952795","0.0056219581797598145","-0.013019699697034787","-0.06917570591909508","0.0028372816957981765","-0.4864966801296219","0.3955049318973405"
"0.027927973081896876","0.0877807136928505","-0.056843230314043945","-0.02765625192421253","0.033048157326820725","0.007922988525551686","0.003283102901623226","-0.4841879638189375","0.39764592343278393"
"0.029054471701655177","0.09045541101963979","-0.06733884182578259","-0.015656540916918864","0.0401897557391387","0.06708652776396248","-0.0018159771400027501","-0.49278958115931615","0.4031046346758231"
"0.030375459826705087","0.10042813685828213","-0.06482336468660557","-0.005524082757719399","0.06125316312077758","0.13152756808644148","-0.01998319127738048","-0.5088054760231502","0.41572177563278767"
"0.02756306455464183","0.10452068344762187","-0.05348719554297444","-0.0294517799271492","0.07890372890189186","0.2154079460725764","-0.05149717776415069","-0.5341090067882519","0.43634720553912126"
"0.024862356325221283","0.09713748010827494","-0.06444129303574535","-0.039211172616569596","0.08766080282637961","0.2807202376086949","-0.09359941788927031","-0.5731461014357684","0.4574956257441891"
"0.031507735362462146","0.09093737589716612","-0.06600055842168842","-0.042890801585590485","0.10193442646279528","0.3137501234516859","-0.14478526508307865","-0.6194655469604151","0.4832038676163463"
"0.028019440918543918","0.09932709640531256","-0.061830814296894965","-0.04250666449541798","0.15046570414543056","0.3698354035274773","-0.21829003639351224","-0.67098290235026","0.5061827538669841"
"0.032158601231655835","0.10866620462479312","-0.04927614637484474","-0.08951098818838159","0.10302098332579539","0.462469550671266","-0.28560903847312086","-0.7262205891664653","0.5164791253733154"
"0.0354822535696094","0.10880123788789318","-0.034412526530298686","-0.11082048782216192","0.07739834505425512","0.5368049954450216","-0.37416027548015557","-0.8026193100531727","0.5097619687239469"
"0.046358260756609225","0.09355494376649","-0.020738491933836346","-0.09661993123057162","0.08188338373544946","0.5804646314711353","-0.4885691424250532","-0.8786486363301705","0.49570660444546294"
"0.057884170993469604","0.07753065030614888","-0.008431241221370196","-0.04790480149942115","0.08283112936925571","0.5411976547672709","-0.629950192322377","-0.9472768777483456","0.4890221346897653"
"0.07717907042932978","0.061379633321975414","0.005451177318723472","-0.0001826517051226427","0.07397114367140013","0.4573245574319464","-0.74630952704276","-0.9912348363037778","0.5005115778150842"
"0.09351676656542443","0.04461577306680945","0.008670884794261731","-0.0195085020642377","0.029929691264069285","0.31644396425151833","-0.8248576507440913","-1.019493523946556","0.5108569796619219"
"0.10571703546320681","0.04988830263216185","0.008255541930994167","-0.04920547620825089","-0.05955089903075114","0.13765787606876295","-0.8722818815137495","-1.0426334577119307","0.4911958131188798"
"0.09817719726549118","0.06039181306652818","-0.0007695687329309913","-0.010081257986620597","-0.09066854734072374","-0.0569490663249005","-0.8589908368150849","-1.0478313675771287","0.4705867266593817"
"0.09191636826990114","0.06160815115183702","0.0009724714697749411","0.04410710321728856","-0.07628722533683009","-0.1572594463064101","-0.811566606045427","-1.0308787935243884","0.4761271551365981"
"0.08913719026483076","0.06886359224994311","-0.009544825189715235","0.07366736691818271","-0.06460075581694114","-0.24001375030054298","-0.7605200779784389","-1.0021583626194737","0.4950038362315387"
"0.08437518212511914","0.07134301070394158","-0.01285542441311489","0.08568055641986838","-0.09496930214867795","-0.32607346976257845","-0.6917521569798983","-0.9678970125689161","0.5175741363112903"
"0.07631060739084945","0.07402913392222395","-0.010108845556471596","0.11564710045172193","-0.12871479062511337","-0.4010399042732318","-0.6023092775612131","-0.9159179139169342","0.5423671451606626"
"0.05643801635511322","0.07807909309781673","-0.01314249446430176","0.13858942340613525","-0.19641877101588515","-0.4584357014948876","-0.5004391320301499","-0.8487012876144348","0.5651172231556043"
"0.03771792006112972","0.09114511937885848","-0.04094078862959145","0.10583668203353173","-0.22308249350637932","-0.4932614812044336","-0.38636463098962104","-0.7620254809790233","0.5846966724644691"
"0.022966565058294707","0.10196543862280567","-0.06701253198342631","0.021707771036953646","-0.24688383271901407","-0.504109650911867","-0.2704232536496993","-0.6957059558715327","0.5615706951923124"
"0.024262519880683318","0.09741481765633428","-0.08615948482194045","-0.041438012440050846","-0.17338328686087162","-0.4852042276409706","-0.17588129418938808","-0.6471437573593639","0.5145505986467328"
"0.032939447710821634","0.09788535664236747","-0.10748114819210768","-0.03774779322543622","-0.04349905568242119","-0.4316186376767355","-0.09652511955249833","-0.6043863312854874","0.4669257945682417"
"0.02744656341533349","0.12351986356579776","-0.08453000086232577","0.06290864014455412","-0.07190749172605868","-0.3464350231955465","-0.05088417360614133","-0.5584494730351826","0.44384884763659116"
"0.03540811648095863","0.1317049567444772","-0.06777874053731356","-0.031952040636868524","-0.05349107088732316","-0.20709307421970738","-0.014800519759662345","-0.5276446011183354","0.40877581072772295"
"0.033251401174754704","0.09021442858087665","-0.05228728403405664","-0.07487623152744842","0.056229632602193325","-0.17267743783914496","0.002642234918249292","-0.5168266161196996","0.3888694924821492"
"0.023320882572885348","0.07931828296611174","-0.03983174821601341","0.017101976953281244","0.05695719490693349","-0.07889537475092308","0.0031437837748028593","-0.5023674556824986","0.40276142229227874"
"0.023679051364808506","0.10807413570196987","-0.04622989942879702","0.02325490964323742","0.0034964432799780465","0.029646994413498","-0.010314443876046044","-0.4965890685734712","0.4105245595391157"
"0.031601128837775445","0.10539008991850442","-0.048053517092092025","-0.009598920437306244","0.048202514279500806","0.09311000064378556","-0.016110119551773855","-0.5063780257307733","0.42194862887709295"
"0.02865393885907445","0.08918194347686557","-0.05217369516488199","-0.02294262988540398","0.08833810589296338","0.1607690886244428","-0.04971389294084988","-0.5305865653313792","0.4459408088315284"
"0.0251579418604912","0.09727874567582576","-0.056680075392865806","-0.03243341543658345","0.09350762753190667","0.22829955177411707","-0.08055914761888251","-0.5605339140471148","0.46316680179608904"
"0.027578469663971865","0.10289405198597058","-0.05472841209522845","-0.023449998924303512","0.0951853287675082","0.30649374147736236","-0.11708862267118686","-0.5918005292260989","0.48603128391887856"
"0.028682823439068254","0.10852078418760847","-0.0647593418694344","-0.0031076775381104157","0.09894998503512756","0.4387103601934643","-0.18031164242227601","-0.6371701028972069","0.5119356471530613"
"0.03026666124206176","0.10705930879390264","-0.06949083458360071","-0.024894123323448286","0.08094042469575331","0.5432847746662403","-0.26869569647712627","-0.6964843230848492","0.5379544145150921"
"0.034589720047800886","0.10775628817498055","-0.05907989841070136","-0.055665526020425175","0.0831255049070289","0.5867745288401123","-0.38469280146777646","-0.7743210444164973","0.5555563067568681"
"0.043287829903267995","0.09701179530185106","-0.04380529338495971","-0.09099554807070241","0.07723560085451062","0.584735946613212","-0.49171775469119394","-0.8492949575228964","0.5493948272999046"
"0.05805266437676679","0.08053254361660366","-0.03135801857558371","-0.08784446863176851","0.09177966705814879","0.5607826054471341","-0.6025600519894898","-0.9137411242525746","0.5371208987264844"
"0.07611515506622471","0.06763686699054966","-0.011647251895529863","-0.05090376650164513","0.08466200161638149","0.48486968633113425","-0.719337344090334","-0.9737149776718409","0.5297990345442043"
"0.08915423216702711","0.0509955753895822","0.0007275325627910357","-0.029425785687964594","0.053608972326895675","0.3659281209259185","-0.8224613617627808","-1.0133457422278191","0.5294231352669891"
"0.10101115969061647","0.040274973016847335","0.010558979630204609","-0.04131670599052268","0.004955636494451995","0.20320072154720945","-0.8952138097883843","-1.0451928346506323","0.5116741520036941"
"0.10806824027470234","0.03928507532658319","0.014274141100561072","-0.02254886529923717","-0.055544519760570094","0.025455038365254184","-0.9178949636347425","-1.058385499283115","0.4939415121872348"
"0.10745973845616623","0.05654128763336007","-0.0059333187256110686","0.028890845798299765","-0.11309613404375043","-0.13077001177472408","-0.8869661174806177","-1.0528313874728399","0.49435009835812094"
"0.09645434760718082","0.08502291897338426","-0.013596849941000404","0.07356820370944143","-0.08871083034967947","-0.21524983001091183","-0.8307369178959114","-1.0222244055254799","0.511232878939137"
"0.09243523160852314","0.06787161712486205","-0.015901671359162612","0.06673556980228779","-0.11609493525374857","-0.3135992880408317","-0.7552816788099926","-0.9890712393040508","0.5299134386720525"
"0.08255160230817707","0.05820323548689904","-0.029020153122752516","0.08617637246357475","-0.1114495456698648","-0.4185620038901601","-0.6414858160231046","-0.9321712767441528","0.5451945614631949"
"0.06571766908778888","0.06800457295314516","-0.056417788367680674","0.10070522666857064","-0.1080008046135142","-0.5332807918253682","-0.5313679781842747","-0.8691103398008855","0.563466535025224"
"0.04226531577148738","0.08380138730103312","-0.058704022516341575","0.07465225975839945","-0.09418190741756112","-0.5922055257171993","-0.4360179677884052","-0.800033547785206","0.5761653932163661"
"0.01894390588449112","0.10209320086404648","-0.06222734271292287","0.03629535296751475","-0.13336975339721743","-0.5788819347342441","-0.33311686071887114","-0.7322892148974072","0.5642346770264902"
"0.021401983641963725","0.10161539085615402","-0.051892820870195554","0.0007334045387348604","-0.17705939113745353","-0.5095944078556701","-0.24333961539581675","-0.6756135276362616","0.5297009738631916"
"0.028695340090398896","0.10928943506987027","-0.056863882835712073","-0.010110140474603494","-0.07471004257754137","-0.47501131650646944","-0.14821251560286008","-0.6139642058086698","0.4863091225150812"
"0.020818515126088913","0.11671626454037257","-0.05163466434934406","-0.014676461824699278","-0.05708101646992268","-0.3840274502130285","-0.09396164761900352","-0.5697951646191177","0.4552075431872265"
"0.030118387064760242","0.11039047552283981","-0.05881348088118261","0.033435986657208094","-0.06716876355702732","-0.24406907280191248","-0.057153534313058446","-0.536457301092834","0.43128073702013286"
"0.0325100302882471","0.11428566580457179","-0.09094880459677752","0.043437992245684814","-0.037259730259863226","-0.1265132579342681","-0.032187546786846086","-0.5060877871088588","0.42373006458215645"
"0.03154624813578722","0.1080949100501391","-0.0790446911072731","-0.025800070696511773","0.05275935187234712","-0.05909685831395612","-0.02689341996767153","-0.49441227890911155","0.4225533364100044"
"0.0337838402659738","0.09274786034011513","-0.07333839937037148","-0.04342127661487634","0.08442267191087485","0.005723018539021832","-0.03645071206754955","-0.5002038586827714","0.4257403085429165"
"0.02859328124108746","0.09732444924179809","-0.07171717641942407","-0.02164965717336969","0.09124835511192406","0.11113689205023207","-0.06306066529024268","-0.5155337349857164","0.43781811575431145"
"0.030329244498714998","0.09885655741927933","-0.05584158301314013","-0.004174885469078405","0.07395439059201465","0.1943353157437968","-0.10232079522822644","-0.5382646961474841","0.4586560104695058"
"0.026287328938248887","0.10288054865966058","-0.05106465475130394","-0.016254408418164803","0.07787939776232346","0.26378059005659515","-0.14350352911633124","-0.5701513665641949","0.4803110775264724"
"0.02312350460959437","0.10410208033201172","-0.045471951883577014","-0.06259347213792238","0.05787861427313404","0.3246710996672229","-0.18777914761984854","-0.6145314903878667","0.49636034231888077"
"0.025285034012463934","0.10441161811973337","-0.03995566334602212","-0.09514499884424507","0.05084471422829405","0.40599596921892217","-0.2508349844187535","-0.6786478405017325","0.5089447963821746"
"0.031531805845790316","0.10507639726114897","-0.04712621886919343","-0.09508145737068271","0.02679207882487731","0.4771279276361202","-0.30572672038598403","-0.743212741213103","0.5063298448885031"
"0.034663857136451655","0.09767969059549203","-0.04294614848356592","-0.06684882536740232","0.0060498519080283255","0.527704181932074","-0.3743553222577043","-0.8080546878817555","0.4937127039315385"
"0.04689647676382707","0.09825929490941375","-0.03436296047829519","-0.03765536926389096","0.020981153575176225","0.5265150089663823","-0.45825330042893814","-0.8681604679473468","0.495232644487235"
"0.06461042685469312","0.09497279302904045","-0.028322097890370056","-0.05242876186714201","0.061504459311559546","0.576023434476817","-0.5668107640473798","-0.9304034596834002","0.49435009835812094"
"0.0774534739392709","0.06156140886845624","-0.006313738174737841","-0.04299381579272948","0.08698110646274076","0.5122449333780805","-0.7107831497035626","-0.9910501389989232","0.49271575367457626"
"0.09298731221413803","0.03356589727559218","0.001699027182059407","-0.020024535849532097","0.06995997780710894","0.3245982931591193","-0.8051579262116892","-1.0261822049152247","0.4987791724505269"
"0.09896622770898857","0.03226126821056408","0.004903678969301608","-0.029450817177549767","-0.01865304230524995","0.16870742489133653","-0.8625852702870508","-1.0495727993086166","0.4895614684353351"
"0.10092739440863445","0.05741588769128495","0.00958857959458465","0.026975936845033795","-0.029082552211818054","-0.0029543037851232226","-0.8717246050064679","-1.0532139747471816","0.48706092106951177"
"0.09740145372879096","0.07104905367734686","0.001969368690695099","0.050080001732151366","-0.09492622280168676","-0.15025546022684563","-0.8452539709105953","-1.0378445204503395","0.49930216274926115"
"0.10156930605803004","0.0682185487392883","-0.01396033432235932","0.06419294811019355","-0.11722696476079496","-0.27722030282507604","-0.7687956341115696","-1.0043087669545683","0.5105301107252129"
"0.09046616979034562","0.06853328011405224","-0.0383013963604057","0.066471776412044","-0.12076665110523807","-0.3992925480787458","-0.6712165176865742","-0.9587281106493406","0.5222973924467345"
"0.07072818089738052","0.07437814297146714","-0.042574403093539756","0.06590279139878097","-0.11215556830110937","-0.49255768495943225","-0.575281366958059","-0.9109047013565907","0.5387062130695226"
"0.045396404242815595","0.07939618677174638","-0.0349990581456733","0.0518553119935","-0.11519505556104363","-0.5340816634145076","-0.4616248232979915","-0.8527118576627094","0.544246641546739"
"0.03156261606445037","0.0815473705246709","-0.04892711875865351","0.029436724821176492","-0.12254726411420742","-0.5336933620379553","-0.36095282225758346","-0.7919860223593915","0.5301259034809133"
"0.024315474944005287","0.09335343258924839","-0.04709524008669125","0.009111636652813195","-0.14978298460086242","-0.5449783707940101","-0.2549031029219086","-0.7234369369290115","0.5032899637771101"
"0.018512562823250336","0.10870775332113161","-0.024755407398285707","-0.040892133417174126","-0.12553409883893024","-0.5682764533871559","-0.17108871622676694","-0.6694657459175245","0.45873772770368304"
"0.015423838402579713","0.12618936730554473","-0.009120622394652047","-0.09700503107034356","-0.06628803024076291","-0.5150791647994731","-0.09825267672507094","-0.6296634767213243","0.40449382765683606"
"0.0270903202620766","0.12288624594663598","-0.009850275985186731","0.03897275960352917","-0.09200400709745075","-0.28462229781560666","-0.03926495842932145","-0.5852701602330199","0.36829309291632206"
"0.03384257224529453","0.12015441916238132","-0.029697555833466855","0.030973273181866535","-0.07239572432529222","-0.1449041818812325","-0.00265189190092495","-0.5558505181025836","0.3507892613555589"
"0.027677640055283913","0.08199609644512641","-0.04785525288407807","0.027778870010958287","0.03746857698752827","-0.06829232028743831","0.019444121612787614","-0.5335549148736877","0.3479128147125203"
"0.021243118451997813","0.08465832916301416","-0.06750819250346118","0.031990899508463885","0.03545820746127254","0.001511162045229708","0.02253700622820025","-0.5220641039787953","0.35909173234796565"
"0.035710441751560434","0.11167848510933255","-0.06957757517460682","0.0139431955175519","0.08089255875465198","0.06661571234489266","0.009970420989001444","-0.5215232047288635","0.3771675845479695"
"0.035625713650245285","0.10292105863859057","-0.0540654661496818","-0.0005354031583537401","0.11469548636040901","0.14091475386459645","-0.021655020799225187","-0.5371169343244581","0.400979986587215"
"0.02995470777812869","0.10202568423249647","-0.04764459716306325","-0.022955145630196568","0.13045056087391074","0.18085640421022064","-0.06891206861669869","-0.5609824646446193","0.43294776859734846"
"0.026280589202916996","0.10179093409818409","-0.05446612507004332","-0.04071691299007788","0.12847369750642595","0.23694411116961553","-0.11396787423041027","-0.5953493560122368","0.45901556629988544"
"0.023418127325531155","0.1011344646960362","-0.04467063404285394","-0.028710462735588214","0.13358099342193752","0.3226567862763572","-0.1650422661227622","-0.6355737904766766","0.4896431856695123"
"0.026013888247640882","0.10051538912059294","-0.041149379098439465","-0.02728559332843204","0.07060377471492178","0.39971034068597977","-0.22060273389873059","-0.675982922245971","0.5160868826492647"
"0.03568540844889914","0.09238534796456194","-0.045362493518735975","-0.04776135180910611","0.03921329054067162","0.49195618645321604","-0.29427468816134844","-0.7304422418488596","0.5298480648847106"
"0.0351009771136912","0.09641453279198552","-0.035790049725562295","-0.07266672119675692","-0.0032356620062180697","0.5152300002103273","-0.3742995946069759","-0.7954425004931021","0.5241932322796461"
"0.04472628198695937","0.09887006074558935","-0.03584581153406622","-0.052706996501377244","-0.01644809772841732","0.5609767561354103","-0.4751387785995686","-0.8681340826180818","0.5087813619138202"
"0.05953733178844825","0.08568250452775757","-0.031923897669290206","-0.04407016984489205","0.015350204264016136","0.5379941684107135","-0.5794330769373065","-0.9306145423175199","0.5030938424150847"
"0.0728146103922662","0.0646754836590249","-0.017671592466120507","-0.023479844161885834","0.08247931470216098","0.44242349210674686","-0.6760090956491952","-0.9764854372446622","0.5059376021644524"
"0.09159960070930244","0.03836373298527751","0.011087229829431786","-0.017205605022401496","0.07540712190443993","0.29236927890526776","-0.7645324688308659","-1.0096913741246212","0.5087323315733139"
"0.10772836505010859","0.050728625015607494","0.01733401871090975","-0.02582799043489524","-0.025963607489655597","0.13686185824683045","-0.8129319334882666","-1.030403857597619","0.5040417623315406"
"0.10709482992891119","0.06133392975600309","0.011085536322655002","-0.0011297084860817871","-0.10365457716151373","-0.027028018377932415","-0.8230743659207905","-1.0351136388714155","0.4885645181783729"
"0.09820675581901817","0.0524414700221611","-0.0013647744074062123","0.042520491877428165","-0.11517590918460309","-0.20274409880232022","-0.7726687058371762","-1.0191373220014788","0.4868974866011573"
