"AccX","AccY","AccZ","GyroX","GyroY","GyroZ","MagX","MagY","MagZ"
"0.06853102717918526","-0.09057018149227626","0.06455022679899936","-0.0019234955308116992","-0.007858315268078711","-0.001300625297730566","0.5326957848190746","0.3147598063242156","-0.15161156305543358"
"0.06860323862916977","-0.09041541259841547","0.06455435730333298","0.00015402182979797608","-0.005655285328890143","0.000676071397281641","0.5346741164199244","0.31424529240354876","-0.1506897926539144"
"0.0688198729791233","-0.09041645131582393","0.06456055305983341","-0.00018515485408116032","-0.005690706125305125","-0.0008611166771452862","0.5346183887691961","0.3145883016839934","-0.15113596875252208"
"0.06867448725982116","-0.09072598910354554","0.06439946339082207","-0.000898263482378851","-0.006058795212374329","0.0024353193214244877","0.5349806184989291","0.31387589779383923","-0.14849323339923037"
"0.06853102717918526","-0.09057018149227626","0.06470512071151024","-0.00020508377078935829","-0.007338730477423808","0.002423912968488261","0.5336431548814535","0.31373077848288194","-0.15309718237277567"
"0.06853102717918526","-0.09041541259841547","0.06470512071151024","-0.0003748165251688409","-0.0077869950158377345","0.0015439249738763191","0.5309960914718663","0.3145883016839934","-0.15338646138176307"
"0.06831535564856488","-0.09041437388100701","0.064696859702843","0.0011965833710205617","-0.006506102431966227","0.00044770165019674394","0.5347577078960165","0.31408698042795896","-0.1530841076153073"
"0.06831439282923174","-0.09049227768664161","0.064696859702843","0.0010307016150387985","-0.006753090688049075","-0.001089486424230183","0.5339775207858225","0.3149576962937028","-0.15311842885366175"
"0.06853102717918526","-0.09057018149227626","0.06424250422614436","0.0001571026285161517","-0.0063110487219783205","1.4017550259749995e-05","0.5311354105986866","0.31404740243406154","-0.14944278766036984"
"0.06853102717918526","-0.09057122020968472","0.06485794937185434","0.00032837578225472215","-0.003932829438358896","0.0009071107163303359","0.5357886694344873","0.3154722102143696","-0.15047896218973716"
"0.06867545007915428","-0.09041645131582393","0.06471131646801069","8.066031032142148e-05","-0.007001036262953947","-0.0021869231897114847","0.5332809251517203","0.31581521949481417","-0.15271638006150975"
"0.06853102717918526","-0.09041541259841547","0.06501490853653205","-0.0009031735053359432","-0.0045347436477080815","0.0035446478165627082","0.5343397505155554","0.316329733415481","-0.1500899881550535"
"0.0688198729791233","-0.09057225892709321","0.06471544697234431","0.00015575477907694987","-0.009110966946700435","-0.000447090334396259","0.5308289085196817","0.3152743202448824","-0.1514399568636614"
"0.0688198729791233","-0.09041749003323239","0.06502523479736612","-0.001318022307730266","-0.003967771575362864","3.5859502690824056e-05","0.5349806184989291","0.3163429260801135","-0.15073228561568655"
"0.06860323862916977","-0.09041541259841547","0.06470718596367706","-0.0003701953270915777","-0.010821456351956351","-1.4134299540301031e-05","0.5328908315966232","0.3163165407508486","-0.14968140198416735"
"0.06838660427921625","-0.09041333516359855","0.06423630846964393","-0.0005504220521048458","-0.004762106867939384","0.002664417133590421","0.5297143555051187","0.3152743202448824","-0.1514612033445475"
"0.0688198729791233","-0.09057225892709321","0.06471544697234431","-0.001240328415056277","-0.006085360809685565","0.001338125244303532","0.5304388149645848","0.31594714614113895","-0.14840824747568607"
"0.06867545007915428","-0.09057018149227626","0.06440152864298888","-2.1198597298256742e-05","-0.006081770864102965","0.0008930347914303104","0.5284883471890994","0.315973531470404","-0.15215579983505398"
"0.06867545007915428","-0.09049331640405012","0.06424663473047798","0.0004922357640776828","-0.009924687945422993","0.0015223257098055901","0.5364295374178613","0.3149576962937028","-0.1515461892680918"
"0.0688198729791233","-0.09057225892709321","0.06471544697234431","0.0011989902450191363","-0.00479369838906626","0.00045376885920537564","0.5362066268149484","0.3156437148545919","-0.15003768912518006"
"0.0688198729791233","-0.09057122020968472","0.0644056591473225","0.00014391295900396272","-0.005616992576009081","0.00264961314360936","0.5352313929272058","0.3138627051292067","-0.14652548240024266"
"0.06867545007915428","-0.09033750879278082","0.06440152864298888","-0.0006178145240649353","-0.006131312113142839","-0.0012989264792081492","0.5319991891849728","0.3165012380557033","-0.15079275636897774"
"0.06867545007915428","-0.09041541259841547","0.06440152864298888","-1.628857434116452e-05","-0.003945513912750748","0.0004683301608260915","0.5325564656922542","0.3163429260801135","-0.15230615954594004"
"0.0688198729791233","-0.09057122020968472","0.0644056591473225","-4.6518911763261846e-05","-0.003832071632340603","0.006175146954345067","0.5319713253596089","0.3151028156046602","-0.15141544169340823"
"0.06853102717918526","-0.09057018149227626","0.06439533288648844","-0.00046021241463826875","-0.003913204402507352","0.0022292769034913556","0.5301323128855798","0.3163429260801135","-0.15387839913151"
"0.06853102717918526","-0.09057018149227626","0.06470512071151024","0.00034021760232770933","-0.003976866104172117","-0.0012882481913529577","0.5321106444864292","0.3149313109644379","-0.1503171620660662"
"0.06853102717918526","-0.09064704658050245","0.06439533288648844","0.00034060270216748124","-0.007855203981907125","-0.0021925050219994257","0.533587427230725","0.31669912802519057","-0.1529484570065731"
"0.06853102717918526","-0.09041437388100701","0.06424250422614436","0.00016336050091244562","-0.006981171897396897","-0.0013076632601805788","0.5312468659001428","0.3168706326654128","-0.15365122522049732"
"0.0688198729791233","-0.09041645131582393","0.06456055305983341","0.0007625758515975849","-0.00651376098254244","0.0004445467015122554","0.5330858783741721","0.31528751290951484","-0.1513990982465728"
"0.06867545007915428","-0.09041541259841547","0.06440152864298888","0.0005111056562265078","-0.004825289910193135","-0.0008579617284607976","0.5359558523866716","0.31617142143989124","-0.15202014922631973"
"0.06853102717918526","-0.09041541259841547","0.06470512071151024","0.0001606648020340421","-0.004818828008144456","-0.00041505547083068336","0.5354543035301187","0.31441679704377107","-0.15046098439821814"
"0.0685319899985184","-0.09049435512145858","0.06563035368224203","-0.0003676921781330601","-0.00781858653696461","7.2222761700824324e-06","0.5338660654843661","0.31581521949481417","-0.15095945952669926"
"0.06867545007915428","-0.09041645131582393","0.06471131646801069","-0.00036133803077682304","-0.007407418102904213","-0.0008698534581177158","0.5331694698502639","0.31440360437913856","-0.1509398473904967"
"0.06860323862916977","-0.09041541259841547","0.06470718596367706","-0.0015807566734146726","-0.007838211572816153","-0.00042549107032553","0.5328351039458953","0.3147598063242156","-0.1505181864621422"
"0.06881891015979016","-0.09057122020968472","0.06425283048697841","-0.0008897912859038682","-0.008029914666926968","0.0004445467015122554","0.5299929937587595","0.3151028156046602","-0.1523257716821426"
"0.06881891015979016","-0.09057018149227626","0.06378814874944572","-0.0001835181797621296","-0.006985958491507029","-0.0013088767019823055","0.5331694698502639","0.3156305221899594","-0.15053126121961055"
"0.06838660427921625","-0.09072391166872862","0.064389137129988","0.00034310585112599885","-0.005709134512629136","-0.0021762449018562927","0.5336710187068175","0.3156305221899594","-0.14965034943518002"
"0.06867545007915428","-0.0906480852979109","0.06424663473047798","0.0003274130326552923","-0.007374390603544298","0.000443333259710529","0.5348134355467448","0.31526112758024993","-0.1465647066726477"
"0.06853102717918526","-0.09041437388100701","0.06408761031363346","0.0011893627490248378","-0.007338730477423808","0.0017565199775387737","0.5328351039458953","0.316329733415481","-0.15011777201467377"
"0.06845881572920076","-0.09057018149227626","0.06470099020717662","-0.00019603392455471767","-0.004571600422356103","0.0013458912718345806","0.5288784407441962","0.31561732952532695","-0.15214109073290205"
"0.06853102717918526","-0.09057018149227626","0.06470512071151024","0.00040433672564973733","-0.007337533828896276","0.002200639676970614","0.5335038357546332","0.3156305221899594","-0.15096272821606635"
"0.0685319899985184","-0.09033854751018928","0.06501490853653205","-0.00018929467735870865","-0.004598884008783859","2.7608098439085117e-05","0.5312190020747788","0.3165012380557033","-0.15102483331404104"
"0.06867545007915428","-0.09057018149227626","0.06409174081796708","0.0004928134138373406","-0.008633264854509194","0.0017506954568904875","0.5321106444864292","0.31440360437913856","-0.15030572165328138"
"0.06860323862916977","-0.09057018149227626","0.06424456947831117","0.0005062919082293587","-0.006960828872428834","-0.0004322863444151976","0.5341725675633708","0.31755665122630194","-0.1509937807650537"
"0.06867448725982116","-0.0905691427748678","0.0637840182451121","-9.838152024984498e-06","-0.006983325864746457","-0.0013081486369012697","0.5374326351309677","0.31441679704377107","-0.14955065440948379"
"0.06860323862916977","-0.09072598910354554","0.06470718596367706","0.0010218443187240437","-0.00456609583912945","0.0011175215247496834","0.5311911382494149","0.3161450361106263","-0.1514546659658133"
"0.06853102717918526","-0.09057018149227626","0.06439533288648844","0.0011986051451793643","-0.007159711857704846","1.883132242486672e-06","0.5296307640290263","0.31440360437913856","-0.15231596561404132"
"0.06838756709854939","-0.09033750879278082","0.0650087127800316","0.0003311677560930687","-0.009115274881399554","-0.0008824732528556697","0.5340053846111865","0.3163429260801135","-0.15271474571682622"
"0.06838756709854939","-0.09041541259841547","0.0650087127800316","-0.0008896950109439255","-0.006954845629791167","0.0004566811195295188","0.5325564656922542","0.3156437148545919","-0.15250718394201607"
"0.0688198729791233","-0.09041541259841547","0.06409793657446752","0.00023296729695122394","-0.00993258582570471","0.0013026927436931228","0.5335316995799971","0.3135328885133947","-0.15113106571847146"
"0.0688198729791233","-0.09041645131582393","0.06425283048697841","0.0010249251174422192","-0.005438452615701132","0.0004501285338001964","0.5318598700581525","0.31528751290951484","-0.15229471913315523"
"0.0688198729791233","-0.09057122020968472","0.0644056591473225","0.0005077360326285034","-0.004813084095212297","-0.000200761648645812","0.5333366528024486","0.3165144307203358","-0.15207735129024383"
"0.0688198729791233","-0.09064912401531935","0.06471544697234431","0.000503211109511183","-0.004366734194442424","0.0006804397877678557","0.5358165332598512","0.3149445036290703","-0.1504658874322688"
"0.06867545007915428","-0.09041541259841547","0.06440152864298888","0.0007710480480725675","-0.007405742794965666","-0.001315914664432318","0.5334481081039046","0.3163429260801135","-0.1511980738504968"
"0.06867545007915428","-0.09041541259841547","0.06455642255549977","0.001551164048490576","-0.0039445565939287205","-0.000199790895204431","0.534228295214099","0.3149445036290703","-0.15115067785467398"
"0.06881891015979016","-0.090727027820954","0.06471338172017749","6.4774941930829e-05","-0.008665095705341576","0.00043459647873809933","0.5334202442785407","0.31528751290951484","-0.15160992871075005"
"0.06860323862916977","-0.09057122020968472","0.06470718596367706","0.00014920808180082687","-0.005637574930682653","0.0015543605733711655","0.529742219330483","0.3150896229400276","-0.1512389324675854"
"0.06867545007915428","-0.09041645131582393","0.06471131646801069","-0.0005436828049088368","-0.008669642969746202","0.00043969293430535","0.5348412993721087","0.3154722102143696","-0.15202341791568683"
"0.06853102717918526","-0.09064600786309399","0.06377782248861166","-0.0007117788849692886","-0.004808297501102164","0.00046857284918643693","0.5343954781662836","0.3165012380557033","-0.1494378846263192"
"0.06867545007915428","-0.09072598910354554","0.06470925121584387","0.0005068695579890165","-0.008043077800729834","-0.0008793183041711811","0.5319713253596089","0.31545901754973715","-0.15120461122923096"
"0.0688198729791233","-0.09049331640405012","0.06425283048697841","0.0007591099530396374","-0.007791542280242362","0.0008750758527647606","0.5284326195383712","0.3163165407508486","-0.15260197593366162"
"0.06874669870980567","-0.09072598910354554","0.06409380607013389","-0.0002793117649053999","-0.008246986709821486","1.3977555217962822e-06","0.5369032224490505","0.3149576962937028","-0.1506636431389777"
"0.06853102717918526","-0.09057018149227626","0.06439533288648844","-0.0010631824887611845","-0.007386117759114122","0.00045328348248468503","0.5344233419916475","0.3170421373056351","-0.15206754522214253"
"0.06853102717918526","-0.09057018149227626","0.06439533288648844","0.0005019595350319243","-0.00651376098254244","0.00044964315707950604","0.5263985602867935","0.31594714614113895","-0.15110491620353475"
"0.06867545007915428","-0.09057122020968472","0.06470925121584387","-0.001401974072800549","-0.00570099730264191","-0.0008516518310918206","0.5306338617421331","0.316329733415481","-0.15277848515948447"
"0.06853102717918526","-0.09057018149227626","0.06439533288648844","-0.00019218292615699826","-0.005662225890349835","0.000459593379853662","0.531609095629876","0.3166727426959256","-0.1510231989693575"
"0.0688198729791233","-0.09041645131582393","0.06440772439948932","0.00032500615865671767","-0.011245309260408601","-2.3841833954111772e-05","0.5336152910560893","0.3135328885133947","-0.15047569350037004"
"0.06867545007915428","-0.09041541259841547","0.06440152864298888","0.0014488237660711827","-0.0032402092706226965","0.0028787109557752927","0.5359001247359437","0.31545901754973715","-0.1496029534393572"
"0.06867545007915428","-0.09041541259841547","0.06455642255549977","0.00048674809136093266","-0.007320062760394291","0.0030765019694566857","0.5318598700581525","0.3168574400007803","-0.15189430468568682"
"0.06860323862916977","-0.09033854751018928","0.06470925121584387","0.0004886735905597924","-0.009482406649646731","0.0021846222451878264","0.5343118866901911","0.31406059509869405","-0.1506930613432815"
"0.06852717590185275","-0.09042268362027468","0.06489099340652332","0.0004905028147987091","-0.00735069696269914","0.0008886664009440957","0.5317484147566963","0.31553817353753205","-0.1505917319729017"
"0.06859938735183727","-0.09034477981464004","0.06474022999834605","0.000833337947155679","-0.005605504750144763","0.002214472913510294","0.536708175671502","0.3146938430010532","-0.14982358997163572"
"0.06852717590185275","-0.09057745251413551","0.06473609949401243","0.00014853415708122595","-0.007804705414045226","-0.00020974111797858683","0.5361787629895844","0.3146938430010532","-0.15114414047593983"
"0.06852717590185275","-0.09042268362027468","0.06473609949401243","-0.0002754607665076803","-0.009787791353873197","-0.0026351685912691944","0.5333645166278128","0.31466745767178816","-0.149887329414294"
"0.06881602170179078","-0.09042372233768314","0.06474642575484649","0.00013688488692812481","-0.006900517786641161","0.0022076776394206266","0.5310239552972302","0.3153666688973098","-0.15038417019809155"
"0.06859938735183727","-0.09042268362027468","0.06474022999834605","0.0018004199197829641","-0.006069804378827634","1.0377224854571124e-05","0.5332530613263564","0.31642208206790845","-0.15036619240657256"
"0.06881891015979016","-0.090727027820954","0.06471338172017749","-1.1282276424129298e-05","-0.0074141193346583985","-0.0013125170273874842","0.5357329417837594","0.31581521949481417","-0.1509251382883448"
"0.06853102717918526","-0.09041437388100701","0.06439739813865526","0.0004964718623151741","-0.007139608162442288","0.0013233212543224706","0.5319434615342449","0.3170289446410026","-0.1510231989693575"
"0.06824314419858037","-0.09041437388100701","0.06500251702353117","0.000503596209350955","-0.004367212853853437","0.00046735940738471053","0.5329744230727157","0.3137043931536169","-0.14961766254150907"
"0.0685319899985184","-0.09041645131582393","0.06532263110938703","0.0011853192007072325","-0.005605983409555777","0.002646458194924871","0.5311354105986866","0.31545901754973715","-0.15187469254948427"
"0.06867545007915428","-0.09041645131582393","0.06471131646801069","-0.0003644188294949985","-0.006102831878187549","1.6929810583893386e-05","0.5298536746319391","0.31404740243406154","-0.1505574107345473"
"0.06881891015979016","-0.0906480852979109","0.06378814874944572","0.00032413968401723075","-0.008653129220066245","0.0008719209040802722","0.5333087889770843","0.31617142143989124","-0.15228654740973754"
"0.06860323862916977","-0.09057122020968472","0.06470718596367706","0.00034310585112599885","-0.005496370404433738","-0.0021774583436580193","0.5280703898086383","0.3161450361106263","-0.15238624243543375"
"0.06852717590185275","-0.09057849123154398","0.06535360989188922","0.00014400923396390563","-0.008006460355787318","0.00044745896183639853","0.5348412993721087","0.3153798615619423","-0.14965688681391418"
"0.06867159880182178","-0.09065743375458707","0.06535774039622284","-0.002034981934425676","-0.009725804960146979","0.0013259908262862683","0.5307453170435895","0.3172927979336523","-0.15218031500530713"
"0.06859938735183727","-0.09057745251413551","0.06443044217332425","-0.0002883616111400403","-0.0052130040331138825","0.0009071107163303359","0.5362902182910408","0.31363842983045453","-0.1504626187429017"
"0.06881505888245766","-0.09065639503717861","0.06443663792982468","-2.591607033546297e-05","-0.007803748095223198","7.707652890773244e-06","0.5291570789978373","0.3153798615619423","-0.1534747159946745"
"0.06867159880182178","-0.09034374109723159","0.06366216836727018","0.0004933910635969986","-0.008217788485749677","0.0004418771295484575","0.5268165176672547","0.3156964855131219","-0.1513451648720158"
"0.06881602170179078","-0.09057849123154398","0.0642838092694806","-2.235389681757255e-05","-0.006954606300085661","-0.00042573375868587554","0.5319434615342449","0.31588118281797656","-0.1490685227278381"
"0.06852717590185275","-0.09057745251413551","0.06473609949401243","0.0008326640224360782","-0.008187872272561347","0.0017589468611422263","0.5290734875217448","0.31625057742768614","-0.153932332506067"
"0.06867159880182178","-0.09057745251413551","0.06412478485263608","-3.265531753147199e-05","-0.007776225179089937","0.001326476203006959","0.5334202442785407","0.3125698239952235","-0.14983829907378762"
"0.06859938735183727","-0.09057745251413551","0.06473816474617924","0.0001362109622085239","-0.007327960640676009","0.0022074349510602816","0.5336431548814535","0.3153798615619423","-0.1503351398575852"
"0.06867159880182178","-0.0903458185320485","0.06505001782336786","-0.0009102978523717242","-0.008187393613150334","0.0026459728182041805","0.5288784407441962","0.31623738476305363","-0.15262812544859836"
"0.06867159880182178","-0.09042372233768314","0.06505001782336786","0.0005107205563867359","-0.0061353807181364515","-0.0026169669642432994","0.5328908315966232","0.3155513662021645","-0.1503531176491042"
"0.06852717590185275","-0.09057849123154398","0.06504382206686742","-0.0009004778064575395","-0.007792499599064387","0.000894490921592382","0.532054916835701","0.31676509134835296","-0.15083361498606634"
"0.06852717590185275","-0.0906543176023617","0.06411858909613563","-0.001312053260213801","-0.005292222165636578","-0.0025982799604967136","0.5365688565446816","0.3145223383608309","-0.15091369787556003"
"0.06859938735183727","-0.09057745251413551","0.06443044217332425","-0.0007210212811238153","-0.00565480666947913","0.00046784478410540113","0.5330301507234436","0.3148653476412755","-0.15251699001011731"
"0.06859842453250413","-0.09057537507931859","0.06335031529008157","0.0004896363401592222","-0.00863278619509818","0.0010985918326427526","0.5287112577920119","0.3157096781777543","-0.15109020710138282"
"0.06859938735183727","-0.09073222140799633","0.06427554826081334","-1.782897370025232e-05","-0.006970641390354605","-0.0013013533628116023","0.52726233887308","0.31586799015334416","-0.15068488961986376"
"0.06881505888245766","-0.09065535631977015","0.0641289153569697","-2.2931546577230454e-05","-0.005658635944767236","2.2026266151143847e-05","0.5288227130934683","0.3158943754826091","-0.15305632375568706"
"0.06881602170179078","-0.09057849123154398","0.0642838092694806","0.0004884810406399064","-0.006910090974861427","0.0015468372342004623","0.5335038357546332","0.31449595303156586","-0.14878904978695198"
"0.06881602170179078","-0.09034685724945696","0.06505621357986828","0.0013501419321296229","-0.0073097715830575056","0.0026362652837903697","0.532361418914706","0.3157228708423868","-0.15167693684277536"
"0.06852717590185275","-0.09042268362027468","0.06504588731903423","-0.0013337151262009725","-0.004784603860257006","0.001356326871329427","0.5340889760872787","0.3134537325255998","-0.15028120648302823"
"0.06852717590185275","-0.09042268362027468","0.06473609949401243","-0.0012350332922594126","-0.006981411227102404","-0.0012933446469202082","0.5307731808689538","0.3165935867081307","-0.15216233721378813"
"0.06845496445186824","-0.09065535631977015","0.0650417568147006","-0.0007213101060036444","-0.005225209848094721","0.00047269855131230643","0.5328351039458953","0.3138231271353093","-0.15424285799594048"
"0.06852717590185275","-0.09057849123154398","0.06504382206686742","0.0007560291543214618","-0.005212286043997363","0.0004627483285381505","0.5338382016590022","0.31627696275695105","-0.15449781576657343"
"0.06859938735183727","-0.09057745251413551","0.06443044217332425","-0.0005671738951349251","-0.006655204838496861","0.003972264707491069","0.5343118866901911","0.3159075681472415","-0.15098887773100306"
"0.06852717590185275","-0.09042060618545776","0.06381086652328065","-0.00037183200141060856","-0.003930196811598323","0.0006974279729920245","0.5347298440706526","0.31398143911089915","-0.15093657870112964"
"0.06895948178242667","-0.09065535631977015","0.06382532328844834","0.00033935112768822246","-0.003555167163069427","-0.0021626543536769575","0.5295471725529342","0.31588118281797656","-0.15020602662758517"
"0.06867159880182178","-0.0907332601254048","0.06458533608583514","0.0009380851035736467","-0.0056710810894535805","-0.0010797788898163725","0.5300765852348517","0.3158943754826091","-0.15194170068150958"
"0.06838371582121687","-0.09042164490286622","0.0650396915625338","-2.774529457437968e-05","-0.006505384442849708","0.0004603214449346978","0.5263985602867935","0.31448276036693346","-0.15197929060923113"
"0.06852717590185275","-0.09042268362027468","0.06473609949401243","0.0006681301158935165","-0.006285201113783604","0.0004557103660881377","0.5293242619500216","0.31449595303156586","-0.15236009292049701"
"0.06852813872118589","-0.0903458185320485","0.06504588731903423","0.0003298199066538669","-0.006109533109941735","-0.0012969849723253872","0.5357050779583952","0.31329542055001","-0.15221136755429446"
"0.06859938735183727","-0.09057745251413551","0.06473816474617924","0.00031412708818316035","-0.0077728745632128435","0.0013252627612052328","0.5280703898086383","0.3148389623120105","-0.15326388553049722"
"0.06852717590185275","-0.09057641379672705","0.06411858909613563","0.00015257770539883137","-0.008894373563216932","-0.0010953109448784695","0.5305224064406767","0.3153666688973098","-0.1514840841701171"
"0.06867159880182178","-0.0906543176023617","0.06412271960046925","-0.0002053725956691872","-0.006919664163081692","0.0013332714770966266","0.5266214708897061","0.31518197159245503","-0.15286347108302878"
"0.06881505888245766","-0.09057745251413551","0.0641289153569697","-0.00019564882471494568","-0.005664619187404902","-0.00019639325815959722","0.5281261174593666","0.3158943754826091","-0.15263302848264898"
"0.06867159880182178","-0.09057849123154398","0.06474022999834605","0.0010166454708871225","-0.005639728898032212","0.0004564384311691736","0.5302716320124002","0.31448276036693346","-0.1508140028498638"
"0.06867159880182178","-0.09065535631977015","0.06474022999834605","0.0004977234367944329","-0.006515675620186494","-0.00020464466241133637","0.5278753430310894","0.31588118281797656","-0.15176519145568676"
"0.06838371582121687","-0.09042164490286622","0.0647319689896788","0.000503596209350955","-0.004381811965889342","-0.0008458273104435339","0.5303273596631284","0.31448276036693346","-0.15037763281935737"
"0.06838275300188375","-0.09042060618545776","0.064422181164657","-0.0006376471658131904","-0.006501555167561602","0.0009029850142044665","0.5298258108065749","0.31449595303156586","-0.15125854460378793"
"0.06852717590185275","-0.09057745251413551","0.06442631166899063","-1.5614649621563617e-05","-0.003962745651547224","-0.0010608491977094415","0.5305781340914052","0.3158943754826091","-0.1508401523648005"
"0.06867063598248864","-0.0906543176023617","0.06366010311510337","6.361964241151311e-05","-0.008239328159245274","-0.00043325709785657857","0.5315255041537835","0.3122136220501464","-0.15008345077631932"
"0.06867159880182178","-0.09057641379672705","0.06381499702761427","-0.0012436980386542817","-0.00737558725207183","0.0004586226264122809","0.5288505769188323","0.31415294375112135","-0.15323446732619342"
"0.06881505888245766","-0.09057745251413551","0.0641289153569697","0.0004950277379160294","-0.006502991145794642","0.00045207004068295874","0.5298258108065749","0.3151951642570875","-0.15105752020771196"
