"AccX","AccY","AccZ","GyroX","GyroY","GyroZ","MagX","MagY","MagZ"
"-9.6495","10.789","-5.2356","-0.011358","-0.45001","-1.3369","0.60317","0.046764","0.12287"
"-10.002","8.5429","-4.625","-0.26101","-0.005498","-0.67063","0.59667","0.075272","0.10962"
"-9.076","9.6445","-5.3279","0.16811","0.23878","0.30189","0.5948","0.076507","0.11163"
"-8.8513","7.7451","-2.8679","0.24642","0.40981","0.95843","0.59886","0.060424","0.1204"
"-9.1675","5.5519","-2.3991","-0.010302","0.60497","1.2329","0.60046","0.038006","0.14445"
"-9.2655","4.2692","-2.4447","-0.31063","0.61856","1.2027","0.602","0.013623","0.17283"
"-8.8651","4.5063","-3.1722","0.054392","0.62148","1.3492","0.60574","-0.020049","0.2045"
"-9.4558","7.1176","-4.0273","0.15487","0.66939","1.7013","0.6047","-0.051668","0.2312"
"-8.9266","7.627","-3.3869","0.15012","0.47119","1.8059","0.6052","-0.082834","0.24877"
"-8.5986","7.5105","-3.928","-0.18949","0.54461","1.9863","0.60527","-0.12374","0.27227"
"-8.6428","7.0634","-4.6561","-0.65808","0.42561","2.2006","0.60042","-0.17947","0.2882"
"-7.6231","5.1155","-4.1909","-0.85305","0.43057","2.1085","0.58933","-0.24664","0.3023"
"-6.0252","3.98","-3.7599","-0.71406","0.44169","1.6936","0.57643","-0.30439","0.30971"
"-3.9475","3.8376","-3.5979","-0.5546","0.57049","1.2382","0.56041","-0.34261","0.31891"
"-3.1059","3.7577","-1.6151","-0.40918","0.66568","0.82686","0.54289","-0.37512","0.33091"
"-1.4202","2.0776","-0.003791","-0.37312","0.43459","-0.038047","0.53373","-0.38802","0.33497"
"-2.0633","1.8682","-0.76679","0.19628","0.19597","-0.88682","0.53164","-0.37453","0.33958"
"-3.4878","2.7785","-0.97647","0.55149","-0.1827","-1.5669","0.54309","-0.33978","0.34213"
"-5.7536","4.3701","-1.729","0.43428","-0.44499","-2.1384","0.56174","-0.29475","0.33554"
"-8.0955","4.7913","-2.4368","-0.017814","-0.82115","-2.5133","0.58193","-0.23581","0.31112"
"-9.2918","5.1751","-2.0861","-0.011023","-0.78539","-2.587","0.59573","-0.17662","0.28246"
"-10.665","5.3973","-0.91343","-0.24334","-0.8091","-2.7176","0.60344","-0.10681","0.25072"
"-11.441","6.2382","-1.8603","0.33754","-0.79348","-2.4438","0.60438","-0.05163","0.21331"
"-11.571","6.5042","-2.8236","1.2405","-0.71871","-2.1273","0.60082","-0.005959","0.18071"
"-10.607","8.4504","-4.5921","1.4824","-0.63109","-1.4293","0.59728","0.037673","0.14416"
"-9.8527","8.32","-4.9819","0.83067","-0.51676","-0.87272","0.59485","0.067202","0.1127"
"-9.3787","8.8195","-5.6182","-0.009525","-0.13621","-0.29829","0.59591","0.084473","0.091161"
"-8.301","8.2107","-6.0911","-0.099416","0.2828","0.45447","0.59769","0.081803","0.09309"
"-8.6156","7.6108","-4.5962","-0.36711","0.59","1.0063","0.59669","0.065744","0.11319"
"-9.7353","5.3269","-2.9505","-0.62365","0.67993","1.2068","0.59811","0.038932","0.1446"
"-9.4893","4.1116","-2.6441","-0.60222","0.75455","1.1374","0.59847","0.012472","0.17727"
"-9.6117","4.369","-3.3296","-0.36761","0.794","1.3151","0.59965","-0.021089","0.21709"
"-9.622","6.2152","-3.6245","-0.10945","0.64334","1.595","0.59839","-0.053908","0.24497"
"-8.9574","7.7549","-3.5078","-0.12599","0.74529","1.7725","0.59753","-0.086077","0.26577"
"-8.6255","7.0147","-3.7404","-0.31383","0.67594","1.996","0.59291","-0.1315","0.29129"
"-7.8809","7.438","-3.8309","-0.51057","0.55707","2.1169","0.58639","-0.18427","0.3145"
"-7.3009","5.2783","-3.3517","-0.86384","0.51404","2.0262","0.57435","-0.24916","0.33353"
"-6.2554","3.9767","-3.1943","-0.9158","0.47198","1.6444","0.56059","-0.30281","0.34169"
"-4.8101","3.53","-2.5945","-0.89804","0.3988","1.1443","0.54836","-0.34546","0.34397"
"-3.0495","1.8573","-0.87662","-0.63998","0.38146","0.55361","0.5349","-0.3749","0.34472"
"-2.5532","1.6675","0.13896","0.22644","0.29078","-0.22964","0.52836","-0.38124","0.3514"
"-2.537","3.0014","0.43795","0.61335","-0.19863","-0.91747","0.53059","-0.35909","0.35"
"-3.7625","4.2442","-0.21077","0.54509","-0.69654","-1.5507","0.54763","-0.32219","0.34152"
"-6.4137","4.9074","-1.7053","0.39749","-1.0608","-2.102","0.5709","-0.27564","0.32371"
"-8.6443","5.0332","-3.4235","0.087396","-1.0481","-2.3728","0.59359","-0.21814","0.28889"
"-8.7899","3.8965","-4.3405","0.49198","-0.76161","-2.3666","0.6055","-0.16061","0.25725"
"-10.055","4.0174","-2.1602","0.56576","-0.63086","-2.5914","0.61009","-0.090563","0.22695"
"-12.093","7.5013","-3.2328","0.50593","-0.71505","-2.4095","0.60569","-0.03282","0.19519"
"-11.796","8.0418","-3.0699","0.66772","-0.73456","-2.0918","0.59936","0.012526","0.16535"
"-10.544","8.5199","-3.2253","0.9045","-0.60563","-1.3603","0.59799","0.052736","0.12668"
"-9.0357","9.3124","-4.7865","0.93895","-0.34537","-0.45397","0.59572","0.077293","0.10076"
"-8.8984","9.7669","-5.7447","0.72739","0.1852","0.37832","0.59918","0.082569","0.085931"
"-8.6077","8.4928","-5.6774","-0.10798","0.54908","0.90467","0.60106","0.068511","0.10314"
"-8.8985","4.8766","-3.8636","-0.64449","0.5923","1.1125","0.60236","0.048284","0.13058"
"-9.205","3.6215","-3.5532","-0.3773","0.85789","1.0418","0.6029","0.023692","0.16483"
"-9.2005","4.0578","-3.8613","-0.33623","0.98287","1.1257","0.60025","3.8e-05","0.1992"
"-9.2201","6.2195","-4.2617","-0.27088","0.8386","1.3581","0.59528","-0.036171","0.23637"
"-9.0405","7.7041","-4.0121","-0.53418","0.69458","1.4544","0.59508","-0.071618","0.26194"
"-8.8505","7.2978","-3.5051","-0.63749","0.76431","1.6719","0.59022","-0.10375","0.28649"
"-8.6862","7.1276","-3.9143","-0.57359","0.75993","2.0124","0.58379","-0.15356","0.31312"
"-8.1269","6.2191","-3.1293","-0.57397","0.74565","2.111","0.57476","-0.20933","0.33464"
"-7.1131","4.9652","-3.6327","-0.75407","0.58504","1.9384","0.56047","-0.27187","0.35357"
"-5.7065","3.4968","-2.68","-1.0408","0.41899","1.5019","0.54306","-0.32503","0.36378"
"-3.2628","2.176","-1.9617","-0.97213","0.38038","0.87744","0.52959","-0.36322","0.36442"
"-2.1054","1.67","-0.017113","-0.64618","0.36492","0.090215","0.5207","-0.38678","0.36103"
"-2.5697","2.2053","0.65575","0.20145","0.23866","-0.65342","0.51967","-0.38062","0.36531"
"-3.6899","3.6107","0.69174","0.56335","-0.27036","-1.2531","0.52529","-0.34932","0.36576"
"-5.5272","4.5526","-0.29908","0.37785","-0.99846","-1.8616","0.54925","-0.30442","0.34733"
"-7.3352","3.5059","-2.8103","0.28749","-1.1071","-2.4123","0.57519","-0.2535","0.32202"
"-9.7619","4.3699","-3.6928","0.46242","-0.74711","-2.5746","0.59194","-0.18818","0.29348"
"-10.001","5.0526","-2.1602","0.28145","-0.75899","-2.5409","0.59885","-0.12677","0.26277"
"-10.109","5.2661","-3.093","0.62722","-0.76114","-2.488","0.60671","-0.062172","0.21568"
"-11.373","6.9132","-3.6004","0.88087","-0.70435","-2.2225","0.6013","-0.007926","0.17811"
"-11.501","8.4501","-3.5821","1.1692","-0.50272","-1.6622","0.59385","0.035545","0.15058"
"-10.011","8.7828","-4.6105","1.1568","-0.33131","-0.82188","0.59016","0.068023","0.12326"
"-8.9626","8.0093","-5.1738","0.92404","-0.090918","-0.25571","0.58916","0.084047","0.10477"
"-9.184","10.141","-5.6758","0.5406","0.25075","0.42474","0.59075","0.084589","0.0967"
"-9.0912","7.1216","-4.6502","-0.27735","0.44051","1.0828","0.59317","0.068894","0.11617"
"-9.1238","4.7515","-4.6708","-0.56481","0.63982","1.1446","0.59552","0.048191","0.14563"
"-9.564","4.422","-5.197","-0.45045","0.99901","1.1611","0.59427","0.021715","0.17928"
"-9.5534","4.1787","-4.4087","-0.48601","0.9041","1.3087","0.59193","-0.007555","0.21236"
"-8.3018","5.9341","-5.0982","-0.40506","0.77672","1.4475","0.59098","-0.051823","0.25027"
"-8.7002","6.9104","-3.9969","-0.37188","1.034","1.5114","0.58517","-0.086227","0.28424"
"-8.8329","6.7358","-3.6242","-0.50515","1.0167","1.5853","0.5761","-0.12027","0.31649"
"-8.8972","7.8211","-3.1465","-1.0032","0.89254","1.8123","0.56696","-0.16959","0.34456"
"-7.4529","6.2484","-2.3279","-1.0379","0.52942","2.1165","0.55494","-0.23043","0.36543"
"-6.4821","4.9315","-2.1569","-0.79488","0.33921","1.852","0.53933","-0.29022","0.38008"
"-5.0699","2.0044","-2.1179","-1.011","0.12538","1.2569","0.52704","-0.33763","0.37922"
"-2.9913","1.6968","-1.9107","-0.81162","0.24251","0.5199","0.51943","-0.37062","0.37316"
"-2.5193","2.0305","-0.53603","-0.12531","0.098455","-0.17273","0.51697","-0.37949","0.37044"
"-3.559","2.8016","0.59771","0.3962","-0.27878","-0.83157","0.52229","-0.36276","0.37183"
"-4.4472","3.8208","-0.051499","0.75866","-0.64888","-1.4304","0.54033","-0.32211","0.35536"
"-6.0516","4.5756","-0.90989","0.72643","-1.1817","-1.7922","0.56486","-0.27191","0.33275"
"-8.0134","4.7398","-2.6002","0.43957","-1.3216","-2.2062","0.58754","-0.22391","0.30426"
"-8.8891","5.0723","-5.8294","0.57757","-0.97299","-2.39","0.60362","-0.16217","0.26492"
"-10.127","5.183","-4.774","0.68486","-0.63621","-2.3637","0.60684","-0.10073","0.23838"
"-9.6798","5.5428","-4.3002","0.62334","-0.50071","-2.2726","0.60424","-0.040594","0.20395"
"-10.695","8.8493","-3.2137","0.21479","-0.58933","-2.1896","0.59812","0.005565","0.17293"
"-11.484","8.6022","-2.2689","-0.071885","-0.42097","-1.6325","0.59146","0.044113","0.1494"
"-10.108","7.8182","-3.606","0.50038","-0.31978","-0.72316","0.59057","0.069668","0.12721"
"-8.9145","8.6412","-5.5787","1.1","-0.001994","0.20211","0.59173","0.079878","0.11542"
"-8.8234","10.042","-5.0006","0.75001","0.40554","0.8988","0.59195","0.072065","0.11781"
"-9.0095","5.7867","-4.6021","-0.64155","0.49202","1.172","0.59593","0.048443","0.14224"
"-9.0227","2.6807","-4.3739","-0.68536","0.78946","0.99873","0.59593","0.024859","0.17042"
"-9.1864","2.7681","-3.9121","-0.18903","0.92452","1.0721","0.59243","0.001491","0.20434"
"-9.0769","7.1598","-4.815","0.039113","0.83018","1.3247","0.58588","-0.027661","0.23578"
"-8.666","8.7277","-4.5084","-0.54078","0.77011","1.4728","0.58357","-0.068003","0.26901"
"-8.7778","7.807","-3.2491","-0.79836","0.8322","1.5437","0.58055","-0.10831","0.29814"
"-9.2758","7.4588","-2.9586","-1.0194","0.59182","1.999","0.57674","-0.15092","0.32395"
"-8.047","6.1639","-4.223","-1.0238","0.44177","2.4282","0.57006","-0.21674","0.33851"
"-7.7179","4.8731","-3.7123","-0.78266","0.56085","2.15","0.55473","-0.27946","0.35213"
"-5.4119","1.7698","-1.9219","-0.81393","0.45199","1.4638","0.53782","-0.33563","0.36671"
"-2.7954","1.5386","-1.5464","-1.1369","0.30108","0.76292","0.52288","-0.37485","0.36479"
"-2.1055","1.5291","-0.40712","-0.62336","0.33403","0.026421","0.51499","-0.3963","0.36302"
"-2.9738","2.4874","0.96995","0.24959","0.18506","-0.75429","0.51574","-0.38876","0.36409"
"-3.6098","4.016","0.71542","0.89777","-0.20222","-1.3416","0.52673","-0.35396","0.36886"
"-5.5189","4.8186","0.66118","0.81642","-0.91256","-1.5979","0.54686","-0.30042","0.35457"
"-8.3377","4.5003","-1.2334","0.59953","-1.3126","-2.0137","0.57217","-0.2465","0.32501"
"-9.2188","3.6121","-3.1108","0.57015","-1.1206","-2.3267","0.59345","-0.19213","0.29185"
"-9.8595","3.2425","-3.2058","0.84059","-1.0274","-2.4858","0.60452","-0.12647","0.25634"
"-11.369","5.3303","-5.3243","1.3484","-0.91986","-2.2747","0.60428","-0.065497","0.21938"
"-11.319","6.8195","-6.2703","1.7026","-0.87271","-2.0914","0.60573","-0.004442","0.1695"
"-10.065","10.077","-5.5959","0.6426","-0.80483","-1.8309","0.60033","0.042055","0.1259"
"-9.5742","10.61","-5.3765","-0.050167","-0.33724","-1.1729","0.5936","0.072168","0.10094"
"-8.9395","8.9428","-5.9997","0.035357","0.12753","-0.37322","0.59088","0.090046","0.095247"
