"AccX","AccY","AccZ","GyroX","GyroY","GyroZ","MagX","MagY","MagZ"
"0.024070379204566356","0.014714632318375784","-0.12893836174477752","5.589621146408112e-06","-0.005976346015987031","-0.0015400621874920922","-0.270784182838319","-0.3740936244728314","0.12331403774914944"
"0.02407202207032948","0.015548792868261654","-0.12681663671839025","0.0028402905653445677","-0.007334313015705816","0.0012907561699356982","-0.2716333915230839","-0.37345269385136814","0.12261123537834764"
"0.02394716427233164","0.014504376233509506","-0.12788635451132674","0.0003732347026200965","-0.005944982728229614","0.00024402226137262397","-0.2725675210763253","-0.37345269385136814","0.12101707390311442"
"0.024316809069035845","0.01460831361856665","-0.12839996073641213","0.000579817230446162","-0.008547026808992534","-0.002636123801453992","-0.26990666719739553","-0.3718380417088358","0.12192557452878498"
"0.024441666867033716","0.015653430640010565","-0.12785801761614962","-0.000375890997722584","-0.005695977231488926","-0.00153848370091933","-0.2718598471723545","-0.37151757639810407","0.12120563063674415"
"0.023702377273625275","0.014081482749024963","-0.12392627341032347","0.0037976886301417474","-0.004205429060795612","0.0013154200226351109","-0.2742376314896963","-0.37378548475097406","0.12255981081463048"
"0.023948807138094767","0.015132623096018006","-0.128144928679818","0.0005555258289124223","-0.007635907459595304","0.0009426998806415864","-0.2709257176191131","-0.37278711205215626","0.11923435569425142"
"0.0241935941368011","0.01471421208636073","-0.1289348196328804","-0.0011357894065715315","-0.0034216636677466728","-0.001157279193597207","-0.27296381846254897","-0.37185036729771","0.12118848911550507"
"0.023700734407862148","0.013455477123930094","-0.12525456537175123","0.002078068631131523","-0.00534432824754215","0.0016709741231498443","-0.2691140724249481","-0.3716778090534699","0.12216555582613192"
"0.02395045000385789","0.015338536783395373","-0.12576108737304234","0.0024557471175865385","-0.005334190619176117","0.002202332165705991","-0.27372810627883737","-0.37169013464234424","0.12094850781815814"
"0.02395045000385789","0.015548232558908246","-0.1260267457653279","0.0016860265333348177","-0.005749674981740257","0.0030945717009599437","-0.2753699097360495","-0.37234339085268175","0.12273122602702113"
"0.023577519475627404","0.013666993904841539","-0.12658285733317898","-0.0005842689769663607","-0.005656852322013767","0.0007887974397972514","-0.26786856635395984","-0.3713326925649897","0.12036569609602989"
"0.023700734407862148","0.014716173169097657","-0.12895253019236608","0.0007562995433282457","-0.005374107530867373","0.0002481657886261253","-0.26993497415355405","-0.37279943764103063","0.12127419672170045"
"0.023948807138094767","0.014919985696399744","-0.12576462948493947","0.0015055308584602035","-0.007057587441401755","0.0013002270893722728","-0.27007650893434837","-0.3716654834645956","0.12033141305355172"
"0.024195237002564228","0.01491900515503128","-0.12575754526114521","-0.0007849370765929071","-0.005923598668395014","0.0020328421699556272","-0.2705294202328896","-0.37262687939679046","0.11945719547035932"
"0.024195237002564228","0.015549773409630119","-0.12786864395184105","0.0007650655708382474","-0.00582507359271263","-0.001186481195193312","-0.27338842280493153","-0.37361292650673394","0.12033141305355172"
"0.023700734407862148","0.013664752667427909","-0.12525456537175123","0.0007375001108369166","-0.007049509018797573","0.002019819655730337","-0.27279397672559585","-0.37361292650673394","0.12213127278365381"
"0.024195237002564228","0.015130101703927673","-0.12707875299877866","-0.000769517317358446","-0.006384068756833426","-0.00011291301489327643","-0.2725675210763253","-0.37521525306039205","0.12060567739337678"
"0.024073664936092636","0.015547672249554837","-0.1260196615415336","0.0010996532232681942","-0.00400869571031728","0.005609692743835252","-0.2712087871807014","-0.374081298883957","0.11971431828894534"
"0.02395045000385789","0.015233198624954706","-0.1252333127003684","-0.001715192140545865","-0.003129731650893561","-0.00043709469477435666","-0.274294245402014","-0.3739210662285913","0.11896009135442635"
"0.024195237002564228","0.015130521935942725","-0.12734441139106423","0.001136301555147358","-0.006799394718954348","-0.000125146285832185","-0.2739262549719492","-0.3741059500617057","0.1219084330075459"
"0.02382559220586002","0.014921946779136672","-0.12682726305408168","0.0024358915372024383","-0.004716112089734532","0.005242299994024801","-0.2739545619281081","-0.3765094398921928","0.12106849846683163"
"0.023580805207153655","0.015340077634117249","-0.1257752558206309","-0.0004768587362715199","-0.006256714800485135","-0.0011807591813670479","-0.2733601158487725","-0.3753754857157578","0.12014285631992203"
"0.024073664936092636","0.01596776418727234","-0.12707521088688153","-1.0252597245161236e-05","-0.0028070699480559117","0.0013412677402640956","-0.2727090558571194","-0.3744017641946887","0.11945719547035932"
"0.02395045000385789","0.01533755624202691","-0.12496765430808283","0.0015114452866597226","-0.005076156297171929","0.0009596686112987824","-0.27259582803248417","-0.37521525306039205","0.12038283761726892"
"0.023702377273625275","0.01492110631510656","-0.1257752558206309","0.0007561939285389685","-0.0042393267556445355","0.0002578340188842951","-0.27259582803248417","-0.3753631601268836","0.12015999784116106"
"0.02407202207032948","0.01523487955301493","-0.12681663671839025","-1.5216492341186346e-05","-0.003936940309538952","0.0016893240295582073","-0.2710955593560663","-0.37664502136981004","0.11998858262877041"
"0.023700734407862148","0.014293980071304873","-0.126306572605202","0.001522429224744544","-0.00395674036494136","-0.00010008781148958184","-0.27259582803248417","-0.37697781226941596","0.11997144110753133"
"0.0243200948005621","0.01638421411419269","-0.1262711514862306","0.0003636237567958777","-0.0036459586953451564","0.0020448781300729407","-0.27027465762746034","-0.37600409074834684","0.12089708325444093"
"0.023580805207153655","0.015130101703927673","-0.12524748114795695","0.001137885776986515","-0.0025274931657739033","0.0006277918093754853","-0.27723816884253205","-0.3760410675149697","0.12166845171019895"
"0.02357916234139053","0.014293699916628173","-0.12578234004442518","0.0005769656311356796","-0.003695379633629568","-0.0011635931398882569","-0.2746622358320789","-0.37584385809298104","0.11832585506858086"
"0.024443309732796844","0.015965803104535416","-0.12679892615890456","0.0010314260693951682","-0.0036424738855943325","0.002041326535284225","-0.27409609670890217","-0.37633688164795276","0.1199371580650532"
"0.02345759027491891","0.014920546005753153","-0.12472679069907729","0.0016956374791590367","-0.0036336034607740535","0.0022230498019734975","-0.2761625045084966","-0.37859246441194844","0.12084565869072376"
"0.023704020139388403","0.015759189030466282","-0.12656160466179614","-0.0012512263712514344","-0.005377117139288539","0.0007923490345859668","-0.27245429325169","-0.377483161413262","0.12405112316242929"
"0.024441666867033716","0.01533811655138032","-0.1268024682708017","0.0010466345990510749","-0.001252369597858794","0.0006339084448449397","-0.2760492766838613","-0.37796385937935945","0.12195985757126311"
"0.023700734407862148","0.014293980071304873","-0.126306572605202","0.000165912871269091","-0.0033437306496827924","0.0031235763917344533","-0.2786818236066325","-0.37797618496823376","0.12168559323143804"
"0.02444495259855997","0.01722439798962769","-0.12890648273770325","0.0015260201275799665","-0.005673642768995009","-0.0008340840678241033","-0.27350165062956666","-0.37699013785829033","0.12153131954028643"
"0.02395045000385789","0.01575750810240606","-0.12602320365343075","1.7418477545446734e-05","-0.004012655721397762","-0.002951229183541688","-0.27344503671724907","-0.37763106847975353","0.12199414061374127"
"0.02394716427233164","0.01429440030331993","-0.12735857983865279","-0.000373567472358487","-0.0029912896635199207","-0.0011555033962028494","-0.27321858106797836","-0.3778036267239936","0.12381114186508235"
"0.024443309732796844","0.016385895042252914","-0.12785447550425247","-0.0017160370588600814","-0.004550108425240739","-0.000452287628037195","-0.27463392887591986","-0.378111766445851","0.1213256212854176"
"0.02345759027491891","0.014918304768339523","-0.12313638245726109","-0.0001888472059127874","-0.004267838835424004","-0.001164382383174638","-0.27619081146465546","-0.37763106847975353","0.12082851716948469"
"0.02468645386574008","0.015549913486968471","-0.12943779952227435","-0.001121425795229842","-0.004880690150239352","-0.0034926500779991956","-0.27842706100120285","-0.37716269610253034","0.12077709260576748"
"0.024689739597266336","0.016803745742556785","-0.12810596544894948","0.0004023843844605843","-0.0017348573479046851","-0.0025818633255152838","-0.27610589059617885","-0.37716269610253034","0.12171987627391616"
"0.023940592809279106","0.01386366248788768","-0.1251908073576027","0.0007556658545925829","-0.003536345588637423","-0.0006247372861114884","-0.27723816884253205","-0.37710106815815886","0.12219983886861005"
"0.024681525268450674","0.016168074781115628","-0.12911546733963455","-0.0009559274204325799","-0.00483348681816001","-0.0011687232212497344","-0.27398286888426676","-0.37966479064401193","0.12391399099251676"
"0.024681525268450674","0.015956277845527483","-0.12726648492932713","0.002069196988832244","-0.00647419860902519","0.0016595300954973164","-0.2788799722997442","-0.3791840926779145","0.12043426218098613"
"0.023942235675042233","0.014702165435262461","-0.1262428145910535","-0.0005718064318316593","-0.003558046449358463","-0.0015116494291823684","-0.28040854793232095","-0.37904851120029726","0.12331403774914944"
"0.0246831681342138","0.016586906022787964","-0.12937758362002297","-0.0005696941360461168","-0.0037013988504719","-0.0015181606862950136","-0.2794461114229209","-0.3803180468543495","0.1215656025827646"
"0.024187022673748598","0.014597947895528608","-0.12729482182450427","0.0007556658545925829","-0.0023920607868214293","-8.173790508121884e-05","-0.2792196557736502","-0.37936897651102885","0.12379400034384332"
"0.024932883730209545","0.01575792833442112","-0.12916505690619454","0.0002796599993205597","-0.005664138742401853","0.00024066797740550383","-0.27545483060452575","-0.37959083711076613","0.12651950222085495"
"0.02409337932525018","0.014569091963828105","-0.1255733554424939","-0.0021131486665420898","-0.0039031059748673167","-0.0005716212129380333","-0.2131512200989428","-0.3888720055331089","0.14131263505016997"
"0.024336523458193416","0.01579056635425712","-0.126483678200059","-0.0012259844366142004","-0.00810239676487605","0.007808919161336483","-0.27687017841246725","-0.3540398913743563","0.12658806830581126"
"0.023648162703442","0.013880331691151562","-0.12539270773573974","0.0017000310543929652","-0.006748706577124182","-0.0015094790101448203","-0.3003932589804544","-0.38937735467695495","0.13879283142802704"
"0.024073664936092636","0.015124498610393595","-0.12612946701034497","0.0006324662029008112","-0.007196029428775395","-0.004134304869827116","-0.2878249704459344","-0.3850140962154552","0.13154196794390166"
"0.023983307319120472","0.014408563334076772","-0.126483678200059","0.000646343986211826","-0.0080304829636545","0.004071852200321473","-0.2810879148801329","-0.3782719991012167","0.1343360359058696"
"0.024044093352356282","0.01350254310961635","-0.126558062549899","0.0019406637902819773","-0.005104478296419534","-0.0020688551893675","-0.270472806320572","-0.3807740936426983","0.10538400653308515"
"0.024341452055482795","0.015200000295765294","-0.1258886034013394","0.0010434555938938334","-0.008430602483226373","0.004068892537997543","-0.2860416322079281","-0.38617270156963873","0.11481184321457209"
"0.0237319488573616","0.015557477663239476","-0.12549188686885965","0.00010304038721241574","-0.00417278272944812","4.813207769280865e-05","-0.25881034038313455","-0.39916387224314376","0.12525102964916401"
"0.0234181614966038","0.013993654257878291","-0.12601257731773935","0.0007789127258603719","-0.004333289898562204","0.0007587292436943433","-0.21204724880874845","-0.35556826439476863","0.09516765987460118"
"0.023973450124541714","0.014767441474934471","-0.1264305465216019","-0.00029942589028594205","-0.005296982355063911","0.002632469756783748","-0.2816823609594683","-0.36908943538986827","0.13797003840855185"
"0.02368759148175711","0.014788453075687262","-0.12539270773573974","0.000859846395031329","-0.005319126737025964","-0.0019244236679597391","-0.28700406871732814","-0.37522757864926637","0.128319361950957"
"0.023754948978045427","0.015094241905309572","-0.12642700440970478","0.0008587089237508145","-0.002415028851088223","0.003435919422319816","-0.29962897116416604","-0.37436478742806584","0.09869881324984899"
"0.023968521527252307","0.015645025999709444","-0.12674225236855033","0.0005330404402753213","-0.008452144943504191","1.8338143631918106e-05","-0.2776061592725969","-0.3962796844465592","0.10281277834722508"
"0.023787806293308036","0.013770931289898689","-0.12665724168301892","0.0007965947538811489","-0.007585060917321918","-0.003168863019761305","-0.2645566524833766","-0.37320618207388223","0.12754799349519896"
"0.024160736821538523","0.015111751572603565","-0.12848142931004639","-0.0029463437391493647","-0.006528213160162961","0.0012035645178727343","-0.2671325854938302","-0.39700689419014246","0.12475392553323104"
"0.023390232778630598","0.015644325613017682","-0.126306572605202","0.002655887143266699","-0.003946476016220752","0.004173072651799863","-0.3167546796402577","-0.37997293036586927","0.10759526277292483"
"0.02351509057662847","0.01518235055113295","-0.12787927028753246","-0.0005554361394937043","-0.00824685796909202","0.002856022917651225","-0.28638131568183395","-0.36027663934474863","0.13253617617576754"
"0.024219879989011206","0.01510502786036267","-0.1276844541331897","-0.000450138194584406","-0.007647945893279968","0.0015504961354837529","-0.29679827554828314","-0.36917571451198844","0.1272737291553739"
"0.02366787709259954","0.014928950646054272","-0.12290614518394695","0.0009746876922997088","-0.004545118811279332","0.0027988027793885875","-0.31984013786157","-0.3679061788579362","0.09808171848524257"
"0.02375659184380855","0.015484357292619757","-0.1298486845023427","0.0003606454197382627","-0.0023391550387861938","0.0007633048816471383","-0.25278095872130385","-0.3734403682624938","0.11829157202610273"
"0.024170594016117278","0.016099576962661528","-0.1276206961190412","-0.0013736339120236276","-0.007349519458254866","-0.00031588665706836297","-0.3054035902205672","-0.3649480375281058","0.1280279560898929"
"0.023662948495310164","0.015412217463368502","-0.12528290226692834","0.000149722124072907","-0.002371943930532582","-0.004033873661635108","-0.26829317069634223","-0.3811315357200528","0.10807522536761872"
"0.02445316692737563","0.014976016631740524","-0.12988410562131408","0.00011014826253076658","-0.007326551393988072","-0.0022326231712916007","-0.28955169477162285","-0.3568747768154437","0.12273122602702113"
"0.02418866553951172","0.015092420899910997","-0.12752505909781842","0.0003810185125898209","-0.0012656752350892128","0.00035885715954108946","-0.2785119818696794","-0.3616324541209209","0.12627952092350805"
"0.023851878058070097","0.014274229166597248","-0.12632428316468772","0.0012368785189759686","-0.004439513235785046","-0.0021162097865503725","-0.2976757911892068","-0.36756106236945596","0.13956419988378502"
"0.02412130804322341","0.015558318127269587","-0.12513413356724842","-0.0020724869726703944","-0.004633458738462718","0.003763258075346421","-0.2818522026964213","-0.3824257225518536","0.0940534609940618"
"0.0238584495211226","0.014658321228358301","-0.1259736140868708","0.0023408382268530216","-0.0027177320980802445","0.0031888862736824983","-0.2281822138192812","-0.37276246087440773","0.1381071705784644"
"0.023700734407862148","0.014686336696028689","-0.1265509783261047","0.0010910878638578187","-0.004993597986166046","-0.0007033656485172161","-0.25747991344366933","-0.36423315337339685","0.09417345164273529"
"0.023441161617287622","0.015840293809372064","-0.12674579448044743","-0.0007120628719916876","-0.00714312368074016","0.0011799464125277772","-0.340758978462945","-0.3840527002832603","0.10958367923665661"
"0.024116379445934002","0.014059490606903709","-0.12853101887660634","-0.00045256733473778","-0.006820303577459291","0.00031037789067512385","-0.25614948650420427","-0.35085988944478863","0.10181857011535923"
"0.023815735011281234","0.015252529297647277","-0.12533603394538545","-0.0015995439462874077","-0.006462476976226965","0.003571471956755788","-0.3119141901370979","-0.384964793859958","0.12382828338632144"
"0.02357094801257487","0.014758896757295002","-0.1260975880032707","0.0009177824438371912","-0.006411329473111463","-0.0016191838269518078","-0.27885166534358535","-0.36609431729341513","0.14112407831654022"
"0.024160736821538523","0.013450574417087776","-0.1278119701614868","0.0030590187939375027","-0.004649282942740323","-0.002326543122370964","-0.3438444366842573","-0.3999034075756014","0.11153781265791027"
"0.023395161375919977","0.015349883047801884","-0.12566899246371668","0.00055318118059047","-0.0016669035577636193","0.003564171456356762","-0.27825721926425","-0.34917128376901047","0.12513103900049052"
"0.024474524182296325","0.015371454957908082","-0.12717439002000147","0.0022024828528999815","-0.0007158672966751325","0.0036316517573423547","-0.30296919199090794","-0.3924834030732769","0.10620679955256039"
"0.023625162582758177","0.013615585521666375","-0.12618968291259638","0.0021668906689135893","-0.007115720404063227","0.0009473564160312356","-0.27607758364002033","-0.3909920068194874","0.1310448638279687"
"0.02344937594610328","0.014734943532436817","-0.12529707071451693","0.00039200245067464237","-0.00457987186852164","0.0018723100855056896","-0.2954395416526594","-0.3594631504790453","0.1295021269164527"
"0.024443309732796844","0.014782009518123071","-0.12723460592225286","0.001649335955539943","-0.007012284914641045","-0.0035913054887968462","-0.2249552208171746","-0.3826475831515908","0.1290564473642369"
"0.02363173404581068","0.014998569083215186","-0.12683434727787596","-9.454376056723833e-05","-0.0034362523485671676","0.002814193023473021","-0.2729921254187077","-0.4017152691401225","0.1299992310323856"
"0.02351509057662847","0.015544590548111093","-0.12589922973703083","0.0016580597371342336","-0.0036776229439446882","-0.001297803960737381","-0.2136324383536429","-0.37652176548106714","0.10756097973044672"
"0.02453366734976898","0.013506745429766908","-0.12690518951581878","0.0015639886443250945","-0.003786475728524969","-0.004185013750977108","-0.28080484531854466","-0.38389246762789453","0.12043426218098613"
"0.023723734528545974","0.01521680957636753","-0.12488972784634572","-0.0005519508514475591","-0.004367631114652142","0.00468548885548286","-0.28196543052105655","-0.37466060156104886","0.11188064308269162"
"0.02441702388058677","0.015575267485210173","-0.1259842404225622","0.0001566082083337759","-0.0048712873415294134","-9.320166381590572e-05","-0.2545076830469923","-0.3720475767196987","0.10999507574639425"
"0.02402109323167246","0.015377198128780516","-0.12635262005986483","0.0027001397399738164","-0.005316291369092339","0.0006271071408245496","-0.2706709550136837","-0.36192826825390395","0.12869647541821647"
"0.023909378359779652","0.015164420651823898","-0.1256725345756138","-0.002503712157288914","-0.0018869217733951825","-0.0023881040987086977","-0.2604238368841877","-0.38367060702815725","0.13431889438463052"
"0.024206737062906138","0.015186692948621858","-0.12657223099748754","-0.00014022215692959696","-0.0050387896326165044","0.0002582089094453262","-0.26908576546878926","-0.3862589806917588","0.12228554647480543"
"0.023414875765077545","0.015175906993568761","-0.12463823790164875","0.000527199942428296","-0.004418303416437986","0.0004705627080790534","-0.266000307247477","-0.37458664802780317","0.11263487001721058"
"0.024627310698267398","0.015823764683446536","-0.1256441976804367","0.0024369476850952094","-0.004024900075658612","-0.00031930013428196175","-0.29877976247940125","-0.395096427914627","0.10361842984546127"
"0.02458623905418916","0.01522829591811239","-0.12627469359812774","-0.00014190143207910326","-0.004894570781078657","0.0037301098573184104","-0.256404249109634","-0.3524252392318239","0.1313019866465547"
"0.02399480737946238","0.015067627211022703","-0.124694911692003","-0.0007713127687761574","-0.0008207283900862885","0.0014876131766413305","-0.24080711626611906","-0.3665873408483868","0.12991352342619028"
"0.024640453624372435","0.015207984704051358","-0.12590631396082513","-0.0016275318654458471","-0.0031273556442452718","-0.0038146613388427278","-0.2761625045084966","-0.38291874610682536","0.10276135378350791"
"0.02487374056273689","0.01415432296496798","-0.1264340886334991","-0.00039933748094210677","-0.004421392225080762","0.0017414140864593672","-0.2793894975106032","-0.39056061120888713","0.14043841746697752"
"0.02411309371440775","0.016216681617523758","-0.1262640672624363","-0.0025439513920035004","-0.0018538160807623559","0.004025286846424982","-0.2575365273559872","-0.3741182756505799","0.16388801852202134"
"0.024701239657608245","0.014964110057980609","-0.12835037116985218","0.0006467770068478623","-0.00127723846744422","-0.0017158661295335056","-0.283550620065951","-0.37489478774966045","0.13221048727222529"
"0.02418866553951172","0.014421030217190094","-0.12584609805857372","-0.000329420490440647","-0.0026561143256679494","-0.0002575418471226324","-0.2778609218780263","-0.3960824750245705","0.15557438072107377"
"0.024461381256191288","0.015894363661975917","-0.12777654904251537","-0.0024007377377437134","-0.0031859638082364014","0.0020753626520094146","-0.24015605627446582","-0.3881571213783999","0.12235411255976167"
"0.024305309008693935","0.014909339818684994","-0.12880376149268616","0.0026992948216595994","-0.004434982983108975","-0.002325556568262987","-0.30393162850030797","-0.37716269610253034","0.13826144426961595"
"0.024177165479169812","0.015798130530528125","-0.12352955687784373","0.00094769466445626","-0.001674506779038144","-0.0034841657126705975","-0.2557248821618219","-0.3847182820824721","0.13354752592887248"
"0.0236268054485213","0.015206443853329482","-0.12915443057050313","-0.0020825203776517216","-0.0016931980313380176","-0.0015666991484074577","-0.28374876875906285","-0.3762382769369584","0.14983197110598628"
"0.02397180725877856","0.014205731348143144","-0.12821222880586366","0.0005499810524753728","-0.005718200813672589","0.004499030129075301","-0.2836638478905863","-0.38611107362526725","0.08286004762495093"
"0.02373359172312473","0.01736629633337822","-0.125676076687511","-0.0006811177387334884","-0.007903762609079086","-0.0026923573856086525","-0.20666892713857085","-0.3738840894619683","0.10932655641807064"
"0.0242149513917218","0.015826986462228628","-0.1288923142901147","-0.0012652731382252925","-0.0015647352718871912","-0.005890568492846894","-0.27103894544374857","-0.37924572062228595","0.1138862010676625"
"0.02440059522295545","0.01424775454964873","-0.12717439002000147","-0.0015014278070489544","-0.002713296885670105","-0.0036165612739610443","-0.23534387372746476","-0.39221224011804245","0.09101941173474692"
"0.024019450365909332","0.01650117869171657","-0.1260090352058422","0.0005642707334645686","-0.0017486381864647614","-0.00012611310885800217","-0.25767806213678135","-0.3787403714784399","0.15130614193254607"
"0.023224303336554487","0.01486955785459304","-0.12914734634670882","-8.461597037518812e-05","-0.0056910509777048065","-0.0057782986353591675","-0.2720296889093076","-0.34035848772389077","0.14419241061833318"
"0.02375002038075605","0.015881756701524242","-0.12757464866437837","-0.0004292264663075343","-0.0060221237440773985","0.002560845928544654","-0.17439899711750567","-0.4009264314521677","0.09377919665423669"
"0.023679377152941453","0.01694200207551016","-0.1292075622489602","0.0024377926034094264","-0.009169382150401037","-0.0033340121774365736","-0.2706143411013662","-0.3906099135643843","0.09676182134983441"
"0.023822306474333768","0.01379978722159919","-0.12563711345664244","0.0009608489864607264","-0.006965239983004921","-0.0027793714579321806","-0.3165282239909872","-0.3910413091749846","0.11935434634292491"
"0.023835449400438805","0.016156588439370772","-0.12606925110809358","-2.2313806180609447e-05","-0.004996084873124589","-0.0015718292297689357","-0.28578686960249855","-0.3799113024214978","0.11525752276678786"
"0.023664591361073288","0.015991997566807227","-0.12580359271580804","0.0016230801189256487","-0.008451986543060975","-0.002507674456595451","-0.23848594586109495","-0.3993364304873839","0.10881231078089858"
"0.024228094317826836","0.014648515814673663","-0.12559106600197958","-0.0012040165604445575","-0.005007898378179882","-0.00041323981644348485","-0.22206791128897427","-0.39828875543306896","0.1138690595464234"
"0.02343787588576137","0.016583824321344223","-0.1262640672624363","0.0019473175220064366","-0.007797792712565395","0.0036614456914032464","-0.2881646539198402","-0.3715668787536013","0.11414332388624851"
"0.02345430454339266","0.014347769769232025","-0.126784757711316","0.0002472045745756977","-0.004693001465068841","-0.001694556560801213","-0.2575365273559872","-0.3637031530518022","0.11287485131455752"
"0.024155808224249113","0.015680885798327545","-0.12612592489844784","0.0009512390967844005","-0.002992081665736017","-0.008718821809593946","-0.24559099185696112","-0.37573292779311235","0.1527460297166277"
"0.023759877575334803","0.01461447702145414","-0.12509162822448275","0.001749638320916433","-0.005786582285010347","0.004808610808158328","-0.2800405575022563","-0.3787650226561885","0.14935200851129246"
