"AccX","AccY","AccZ","GyroX","GyroY","GyroZ","MagX","MagY","MagZ"
"-0.0011903247693185806","-0.006194852054758329","0.059371180990744774","-0.006317356583296789","-0.0037695110410561855","-0.003933245142621503","-0.003849586260559713","0.32240075163573007","0.20470198059224023"
"-0.0005726072423817576","-0.006408610073083406","0.06285353746018067","-0.008771421826940172","-0.005579236104836325","-0.003252917429760904","-0.003028684531953631","0.3212791230481694","0.20494196188958722"
"-0.0006941793088533476","-0.006618726080611333","0.06258292011123913","-0.0035553186141212938","-0.0055869977265540684","0.0004034494052216275","-0.0005942863022944","0.3218584257252612","0.20658754792853765"
"-0.0011968962323710849","-0.005144412094457046","0.05936802851115631","-0.0010667173343842892","-0.008101604762659951","-0.003967182603935895","-0.0036514375674478678","0.3204533085935917","0.20650184032234226"
"-0.001318468298842704","-0.005564504032174548","0.0590982258479511","-0.004628998561912594","-0.004329773408722737","-0.003936204804945434","-0.003792972348241998","0.3208107506709462","0.20492482036834814"
"-0.001436754633788071","-0.005570247203046978","0.062282194811171886","-0.006701900031054818","-0.00808924952808885","-0.003968169158043871","-0.004104348865989273","0.31986168032762563","0.2053704999205639"
"-0.00119853909813424","-0.005143011321073526","0.05857073454422892","-0.009507451293412489","-0.004181668994312722","-0.004282682607666783","-0.003792972348241998","0.31864144702907066","0.2035877817117009"
"-0.0010671098370838353","-0.005779102514529737","0.062298842737088446","-0.007454088560286535","-0.002511969922338415","-0.0032241100498079903","-0.004359111471418834","0.31731028343064693","0.20626185902499541"
"-0.0014252545734461596","-0.007149058883611821","0.06414711672501645","-0.0005186821928252632","-0.0036385138745138506","-0.0021915825203997776","-0.0038778932167184135","0.3188386564510593","0.20806171875509746"
"-0.001436754633788071","-0.005986977284644032","0.0601572818840772","0.0015577045643631051","-0.005874336130553822","-0.0032531147405824995","0.0008493684618059186","0.31691586458666954","0.20819885092500995"
"-0.0006991079061427549","-0.006194571900081625","0.060189869313530896","-0.0067300991797918115","-0.007255271194539402","-0.0011779968298647136","-0.0030569914881126456","0.3166323760425608","0.20765032224535981"
"-0.0014318260364986637","-0.005889763611827779","0.06494090400116567","-0.005315283462635383","-0.007951124341601647","-0.00222591460335736","-0.0021794758471888487","0.31441377004518806","0.20813028484005366"
"-0.00045103517591013836","-0.006822818762590127","0.059404972738243494","-0.00468286210444393","-0.003913180243056062","0.0009385563533880851","0.0008210615056472181","0.3158312127657318","0.20730749182057848"
"0.0005412557450202985","-0.007980838118745706","0.06290596071625836","-0.003585524443854553","-0.00419719223774821","0.0033708068511933663","0.0005096849878999428","0.313316792635376","0.20708465204447055"
"-0.00044117798133135294","-0.00798321943349769","0.06233178437773186","-0.00018145417066338826","-0.004757929806744419","0.0012775363448888132","0.0022647162697472223","0.31198562903695226","0.2093816158905056"
"-0.00020624817720377395","-0.006716920294796052","0.05941531570498314","-0.0017916572479825064","-0.0047557122005393495","0.002498693019742134","-0.0017831784609654722","0.31332911822425025","0.20747890703296917"
"-0.0009406091733228381","-0.0063056532293947224","0.06336856053002493","0.00018228316360704606","-0.004197667439077867","0.0019841063970215877","-0.0009056628200416753","0.3110981866380032","0.207958869627663"
"-0.0011936105008448327","-0.005566325037573125","0.06043250397848503","0.0027198897055686396","-0.006432856093344961","0.001618292133783899","0.0051803327541065595","0.31283609466927853","0.20677610466216742"
"-0.0004559637731995165","-0.005356909416736957","0.06232399173155814","-0.0031764783649842307","-0.0025213155484883525","0.0002594125054570575","0.004189589288547647","0.3121458616923181","0.20921020067811497"
"-0.0004592495047257978","-0.004937517865711214","0.0628542458825601","-0.002818866688491869","-0.0011267580463859147","0.0018398721864354224","0.00353852929689471","0.31085167486051735","0.21054723933476222"
"-0.001436754633788071","-0.005570667435062034","0.06254785320345745","-0.002081569844548228","-0.0022385707573419583","0.0030476117254202625","0.005689857964965681","0.31215818728119243","0.20813028484005366"
"-0.001558326700259661","-0.005989078444719312","0.0612149564965634","-0.0008653099312328025","-0.00586578250661998","0.0031886889628609037","0.002717627568288628","0.3082263244302929","0.20828455853120528"
"-0.0010638241055575832","-0.006409870769128574","0.06256627218532257","0.00039805417810022197","-0.005314390563773708","-0.00046353434486812715","0.0026893206121296133","0.3091753947736134","0.20828455853120528"
"-0.0009471806363753714","-0.005984455892553698","0.05964696982305614","-0.0016460144535693447","-0.0022447483746275095","-0.0018295171627723994","0.005038797973312429","0.3090028365293733","0.20857596439226947"
"-0.0009438949048490901","-0.005675305206810941","0.06336678947407637","-0.0025902106697068836","-0.003357511488242869","-0.0018374095956362115","0.004217896244706662","0.30807841736380137","0.2076674637665989"
"-0.0009406091733228381","-0.006200595225630758","0.06336820631883522","0.001986711838406806","-0.00029784852701948385","0.0006256213903379369","0.0051803327541065595","0.3078565567640641","0.20993014457015569"
"-0.0014383974995511972","-0.005568426197648403","0.06121920703083997","0.0034907720525024087","-0.002808495552044885","0.00025724208641950916","0.0035951432092121106","0.3094342321399736","0.2103243995586543"
"-0.000942252039085964","-0.006198914297570534","0.0623052185385033","0.003793358423781385","-0.0023939615921400605","-0.0014818554951214781","-0.0001696819599120088","0.30722795173147516","0.21113005105689042"
"-0.000702393637669007","-0.005358030035443772","0.06257902378815228","0.005148184940628404","-0.005044634608971295","0.0026762727591779054","0.005095411885630144","0.3080414405971785","0.2087988041683773"
"-0.0009537520994278756","-0.0047246003114162485","0.060174638232373186","0.002313483996430245","-0.003089339537872648","-0.0035735475148532692","0.002717627568288628","0.3074498123312124","0.20806171875509746"
"-0.0011919676350817066","-0.005568005965633348","0.06149549175881694","2.53395867412315e-05","-0.0022456987772868256","-0.00043472696491521324","0.00353852929689471","0.3086700456297674","0.2094330404542228"
"-0.0011903247693185806","-0.005779522746544793","0.062293529569242743","0.001532357014936594","-0.003085221126348947","-0.0009645065208985977","0.005746471877283396","0.31026004659455125","0.2083702661374006"
"-0.0014334689022617898","-0.006407069222361535","0.06015869872883606","0.0012561743409769","-0.0028053275431804995","-0.0011385346655456536","0.006539066649730463","0.3111844657601232","0.2090559269869633"
"-0.0004559637731995165","-0.005774059730349067","0.060465091407938716","0.0022733503765049352","-0.004484372241304743","-0.00010679637942382203","0.002236409313588522","0.31044493042766563","0.20804457723385833"
"-0.0013151825673164519","-0.005567165501603235","0.06069284920292487","0.004535302318453221","-0.0035089423119604893","-0.0007934380385754712","0.0058596997019185115","0.3103709768944199","0.20994728609139482"
"-0.0014433260968405753","-0.005144272017118695","0.058825872864179965","0.0007757326645552376","-0.004198301040850744","-0.00045090645228602785","0.005803085789600797","0.3093109762512307","0.2085931059135085"
"-0.0004493923101470123","-0.00640734937703824","0.06232717963226557","0.0009869622431094968","-0.0008574772929131587","-0.0021661294244139837","-0.00019798891607070916","0.31034632571667126","0.2066218309710158"
"-0.0010687527028469615","-0.005777841818484571","0.06150151334904208","0.003028707349414967","-2.0964552272203112e-05","-6.73342151047618e-05","0.0037366779900062414","0.309828650983951","0.20718750117190496"
"-0.0007089651007215404","-0.004722078919325913","0.059122241366613724","0.001357775768261499","-0.004482471435986112","-0.0021933583177941355","0.002717627568288628","0.3096314415619623","0.20917591763563684"
"-0.0009504663679016235","-0.0052507307942661775","0.060707726072892855","0.00046575325802686204","-0.004616953412279271","0.0018086970766233647","0.002632706699812213","0.3098163253950767","0.20806171875509746"
"-0.0010703955686100874","-0.005567305578941586","0.0612351465343771","0.0028318413822023968","-0.004203369855033761","0.0002450088154806005","0.006567373605889163","0.30993958128381965","0.2086102474347476"
"-0.001436754633788071","-0.005882759744910181","0.06068859866864829","3.896389455798129e-05","-0.005591749739850647","-0.0018577326102605272","0.003255459735306135","0.30924934830685924","0.20538764144180294"
"-0.0009521092336647496","-0.004726421316814825","0.061237626012705104","-0.0037000108754309618","-0.0027986747245652903","-0.003223518117343205","0.008916850967071979","0.30883027828513326","0.2082331339674881"
"-0.0014334689022617898","-0.005991319682132943","0.06281492844050184","-0.005004142293424958","-0.005304094534964456","-0.004292942770389738","0.008548860537007303","0.3071170214316065","0.20756461463916448"
"-0.0009455377706122162","-0.005361111736887515","0.06389739783626804","-0.004457268914547981","-0.005306470541612745","-0.003072378028001203","0.005746471877283396","0.30731423085359516","0.20658754792853765"
"-0.00046089237048892385","-0.004933175468222304","0.060196599326135455","-0.0013099481940895186","-0.0061499529017553485","0.0009251392175196047","0.004897263192518299","0.30796748706393273","0.2061075853338438"
"-0.0011919676350817066","-0.005256473965138606","0.06362075889710135","0.0005740084170359199","-0.003919041059455175","0.00042278586573796706","0.006708908386683293","0.3052065551560911","0.2084045491798788"
"-0.001436754633788071","-0.0053626525876093855","0.06387614516488518","-0.0005545912211794872","-0.00726208241359783","0.00021935840867321125","0.005067104929471444","0.30541609016695404","0.20701608595951432"
"-0.0010736813001363688","-0.004937798020387918","0.06176469226299963","-0.002335150953602616","-0.005308688147817814","0.00023652445015200253","0.005520016228012535","0.30492306661198226","0.20770174680907696"
"-0.0011886819035554547","-0.005886681910384036","0.06362252995304991","-0.00203953515841593","-0.0005682380835947748","-0.0004207178965819467","0.009482990090248816","0.30502167132297664","0.20893593633828986"
"-0.0013989687212360845","-0.005214310686294669","0.06224996159290791","-0.0025675034900123008","-0.0039515289903594465","0.002057703333476635","0.02720314464567601","0.3174705160860128","0.23516246383406256"
"-0.0014909692039713474","-0.005555118850504968","0.058613629519303295","-0.0024007377377437134","-0.0022514011932427192","0.0011928505402601097","0.01907904822809192","0.3138714441347192","0.19196583031161338"
"-0.0007171794295371706","-0.005486901186727567","0.06179409179174591","-0.0022738943758218804","-0.002832730819857433","0.0017238534233373847","0.012993052653943689","0.31666935280918374","0.2153297237604619"
"-0.0017275418738620524","-0.005117657322831825","0.06411134139485533","0.0007636186482251507","-0.005426506397484306","0.0021809042104807413","-0.03025997635674752","0.30827562678579007","0.17360726106457247"
"-0.0005742501081448836","-0.005778682282514682","0.06020935092896517","-0.0035250071695987584","-0.0038441968500340707","0.004126901919546561","0.03569523149332478","0.3103093489500484","0.1676762947158552"
"0.0005363271477309203","-0.007233525518638047","0.06054337208086553","-0.00242883127169143","-0.0015002662914969489","-0.004194879292056874","-0.0012170393377886365","0.31282376908040427","0.23089422504553486"
"-0.0006218932152756557","-0.006014572520299367","0.06471668831807667","0.003013710049337614","-0.0012311439384674124","0.002121197955866003","0.006708908386683293","0.3207244715488262","0.2056447642603889"
"-0.0005298927325403637","-0.006181824862291598","0.06047430089887129","0.0022692313997231275","0.0013076983654510192","-0.0001094600755153587","0.022645724704104198","0.3142288862120736","0.24253331796686148"
"-0.0009323948445071786","-0.00586468976826278","0.0624713435864792","0.004250881690929911","-0.003353092115877051","0.0009914948468221045","0.04829182698400364","0.30106515729432853","0.22093500120563686"
"-0.0010293239245318488","-0.006823659226620238","0.06280288526005157","0.004660350228957342","-0.004116012010598334","-0.0011232825390363366","0.007614730983766105","0.30613097432166303","0.21671818698082632"
"-0.0008420372275350418","-0.008009273818431153","0.05890000926618712","0.0023660801614902556","-0.002830354813209144","-0.0016051747586185415","-0.021739582552940055","0.32163656512552385","0.2310827817791646"
"-0.000633393275617538","-0.007833476758799455","0.06389633520269888","0.00020369128139352026","-0.0024817154376835355","0.0018005678707736384","0.026891768127928737","0.31669400398693226","0.19201725487533056"
"-0.0011591103198190982","-0.006631052886386305","0.06094965231546757","1.9087191216025366e-05","-0.001250151991653725","-0.004973073172428742","0.0077562657645602355","0.31678028310905243","0.2010851196107971"
"-0.0013151825673164519","-0.006388859168375782","0.06279332155792929","0.0031936776502658436","-0.006043206843069884","-0.00018390544850326588","0.08240170915539283","0.29851376039734984","0.2001766189851266"
"-0.0013973258554729293","-0.005554138309136502","0.06342700537632776","0.0020618039535828447","-0.003549080984272252","-0.003551251392013","-0.02142820603519278","0.309200045951362","0.2162896489498497"
"-0.0008502515563507013","-0.005274263787109305","0.06304162360191884","0.004219197254146771","-0.002722642511820042","0.0018441538312640403","0.029807384612288074","0.30327143770282705","0.2519954376908265"
"-0.0009323948445071786","-0.00496805472547194","0.061604234594059164","0.0014442003503269741","-0.004364209665078606","0.0010597249289297597","0.0009625962864413485","0.31028469777229983","0.23046568701455822"
"-0.0009521092336647496","-0.005647429816478903","0.06191275254030012","0.00028033593397193326","-0.002423899275908502","-0.0029350496961708735","0.06530430763545987","0.2920551518272202","0.2051305186232169"
"-0.0017324704711514304","-0.0059921601461630555","0.059477975664443565","0.00211165413412165","-0.0016456778983722374","-0.0003050148307984621","0.012625062223878698","0.33028912851527775","0.22266629485078268"
"-0.001129538736082771","-0.00623659510158721","0.0633200335970341","0.00142440813881644","0.0007463271946819317","0.0010786075745564303","0.0011324380233941793","0.3042328336350219","0.1936799824355201"
"-0.000536464195592897","-0.006197653601525368","0.06364130314610476","0.0029875175815968864","-0.002006989309355388","-0.005598745787707443","0.020494396036033542","0.3052805086893368","0.21908371691181758"
"-0.001014538132663685","-0.005988798290042609","0.061435984278944984","0.0019799524918930698","-0.004018152216777471","-0.002142649436644143","-0.04563065355099159","0.2910444535395281","0.20257643195859595"
"-0.0009274662472178005","-0.006125653849612465","0.06216140879547939","-0.00031590179741317444","-0.003422091348943364","0.003316546375254658","-0.02493826859888734","0.3121458616923181","0.23139132916146782"
"-0.0013759686005522615","-0.005604005841589799","0.06187768563251842","-0.00264333490871328","-0.004643026125233162","-0.001542035295708045","0.0349026367208774","0.3108270236827687","0.18363505098942676"
"-0.0013841829293678917","-0.006388999245714133","0.06006802066426925","-0.0036381206089145636","-0.004153964756793672","-0.003381958707084232","0.006482452737413062","0.306969114365115","0.19477703979482042"
"3.6895955739435264e-05","-0.0076197187404743755","0.0627660472963213","-0.008193075240858612","-0.0029011598113281574","0.0015078178047726895","-0.04543250485788006","0.305120276033971","0.19954238269928104"
"-0.0010046809380848997","-0.006633574278476641","0.061961633684480655","-0.009114141818144458","-0.005148988820964149","0.0027321117216893755","-0.011407543554967281","0.3209093553819406","0.18879464888238598"
"-0.0013546113456315645","-0.00613531918595875","0.06129465401424907","-0.00752083710710968","-0.008509327503506348","-0.0036130096791723294","0.014295172637249562","0.30397399626866173","0.2113186077905202"
"-0.000513464074909074","-0.005554138309136502","0.0626629718401145","-0.0023141336105364668","-0.006369004874683274","-0.0014650840752858773","0.02304202209032789","0.31562167775486877","0.1732130060760739"
"-0.0006120360206968702","-0.005561142176054101","0.05998265576754816","0.0009756498430300234","-0.007664261138931552","0.0010510432527795666","-0.06516245330058379","0.30409725215740463","0.17581851730441206"
"-0.0014466118283668274","-0.005049859891069479","0.06264384443586996","-0.008237010993197897","-0.0021807545955669252","-0.0005713252467056404","-0.015285596548726832","0.31451237475618243","0.2460987543845874"
"-0.0014548261571824869","-0.005690013327337896","0.06260452699381168","-0.004628153643598376","-0.007261765612711391","-0.0032507470107233562","-0.028561558987217642","0.304195856868399","0.19769109840546184"
"-0.0011919676350817066","-0.006056735799143304","0.06144448534749812","-0.002350465098047799","-0.0046132310018636175","0.003606593282999752","0.02372138903813984","0.31514097978877137","0.2173009987029546"
"-0.000917609052639015","-0.006225669069195758","0.06204947805952975","-0.0019155433958045797","-0.006843746843055744","-0.00419547122452166","-0.008350392289813813","0.3282430807621451","0.21546685593037446"
"-0.0009126804553496369","-0.006100019696694059","0.06297219820873488","-0.0015138903521836557","-0.0060682974732758155","-1.3389436480606373e-05","0.034534646290812404","0.3183826096627105","0.21373556228522866"
"-0.0006005359603549587","-0.005876316187345991","0.05968642894959029","-0.00296894530405467","-0.006663170337785777","-0.004116744206705134","0.0007927545494882035","0.29792213213138374","0.208473115264835"
"-0.001389111526657299","-0.006123412612198834","0.061660199962033986","-0.0009288900343776348","-0.0017237693168793368","-0.0009717675591333046","-0.020041165183410176","0.3111474889935003","0.22996858289862526"
"-0.0008995375292445994","-0.005743522870588342","0.0625393521349043","0.0027754430847284095","-0.004274079812886842","-0.0007248725280711038","0.0481219852470505","0.3104695816054142","0.19662832408863962"
"-0.0004838924911727468","-0.006114307585205957","0.05998300997873788","-0.0029811966196108177","-0.0027424425672224503","0.003473211167601328","0.0034253014722592802","0.31344004852411894","0.22122640706670102"
"-0.0010473954479262937","-0.005492504280261644","0.060426128177070174","-0.0016458032239907907","-0.004162359980284292","-0.0015023758205673892","-0.024400436431869833","0.3038384147910445","0.207958869627663"
"-0.0009931808777429883","-0.004763261656801388","0.060415501841378755","-0.0008313019690855669","-0.004916738923107193","-6.512433390289446e-05","0.018880899534980077","0.3190851682285452","0.1939028222116279"
"-0.0011377530648984304","-0.005536628641842509","0.05824617083109392","-0.0006926297507646956","-0.003893887069071955","0.0016788862870958157","0.004246203200865362","0.31523958449976575","0.18713192132219642"
"-0.0014876834724450953","-0.0058243474948174185","0.06216282564023824","0.0006680795098450593","-0.004348575541332864","-0.0015238827001212774","-0.02527795207279363","0.30137329701618587","0.223009125275564"
"-0.00030317725722844407","-0.006505823745899661","0.06135699518363875","-0.0006873490113008391","4.5405233436670144e-05","0.0028846329867825435","0.011096486591301963","0.2996600401626591","0.19614836149394577"
"-0.0012445393395018568","-0.005456644481643546","0.05913173422649806","-0.002489031701579393","-0.0026738551753085074","0.004848664904942174","-0.00670858883260165","0.30735120762021806","0.21457549682594299"
"-0.0010079666696111518","-0.005683289615097003","0.06105839515070978","0.0010249730057703358","-0.0019227202735627377","-0.00047450482654882596","0.040507414040325526","0.3321256412575474","0.2052162262294122"
"-0.00028346286807090233","-0.005035431925219228","0.06114234320267201","0.0038984451391121293","-0.006747597774021647","-0.0020489267963863748","0.04990532348505679","0.3197137732611341","0.20089656287716737"
"-0.0010457525821631385","-0.00638437669354852","0.06071268502954885","0.002100142122090443","-0.002530185973308631","-0.003943110683701269","-0.0043024975591011184","0.2885546845869209","0.2011365441745143"
"-0.0008042513149830552","-0.0060616385059856235","0.06121566491894283","0.005487419643786545","-0.002148124104263756","-0.0022336097253995765","-0.034392791955936634","0.2800007259081614","0.2539324295908411"
"-0.000961966428243535","-0.004759059336650828","0.06320562338275647","0.005233627305153602","-0.0052432846048125785","0.0029017990282613347","0.018909206491138777","0.31022306982792835","0.176298479899106"
"-0.0009800379516379507","-0.005078435668093278","0.06376456864012525","0.0014610353477377484","-0.00405727712625263","-0.0010615242518770074","0.0030290040860355893","0.31347702529074173","0.18438927792394563"
"-0.0014055401842885888","-0.005564784186851252","0.059913584585553924","0.0009229924213922321","-0.0038337899409145644","0.0021741364493000227","0.0022647162697472223","0.33015354703766053","0.236276662714602"
"-0.0006218932152756557","-0.005852643117164511","0.0635591261500911","-0.00037726398998318676","-0.003704725259779505","0.002356708152522155","0.03569523149332478","0.2975893412317778","0.22211776617113255"
"-0.0012116820242392776","-0.004820413210848984","0.06365440896012418","0.004116645293758679","-0.00404913534347116","-0.00104208913594987","0.007388275334495559","0.33338285132272527","0.19349142570189037"
"-0.0009504663679016235","-0.005869172243090043","0.06158723245695289","0.0035416783809339857","-0.002349134266709008","0.000645236059112726","-0.01571020089110922","0.3012746923051915","0.22780875122250283"
"-0.00022267683483509276","-0.0053174076073217065","0.0641460540914473","0.0011747770228810164","-0.0010207881498722243","-0.0014266084650747936","0.021428525589274425","0.314537025933931","0.2076331807241208"
"-0.000986609414690484","-0.00486173602566281","0.06201334851817891","-0.0002599259590962955","-0.003009664114933356","0.0011037449732276717","0.008548860537007303","0.2939532925138613","0.19146872619568042"
"-0.0012166106215286557","-0.005646309197772087","0.05839490410965486","0.002380549387621222","-0.005944238246146484","0.0025351955217372646","0.027967432461964065","0.3185058655514534","0.21346129794540358"
"-0.0009537520994278756","-0.005271322163003914","0.061731750622356224","0.0008352296999466156","-0.005871484922575874","0.005390480421042872","0.07161675885887865","0.30460260130125066","0.19607979540898948"
"-0.001177181843213543","-0.0049809418406003185","0.06486758228489486","0.0006014999466847568","-0.007176070972929768","-0.0009989569903491372","-0.02239064254459268","0.31951656383914545","0.19402281286030146"
"-0.0013168254330795778","-0.005857685901345182","0.06006058222928525","0.002880952259216262","-0.0032138422862429926","0.0003849673005627957","0.026495470741705048","0.3182716793628419","0.20245644130992246"
"-0.0018014708332028994","-0.0051074316771321316","0.06079415360318309","0.0009478784341896022","-0.0034030674557127306","-7.802846163522712e-05","0.011492783977525655","0.3108763260382659","0.19645690887624895"
"-0.0006136788864599962","-0.0055098738702172865","0.06507019108541132","-0.004051813738513081","-0.007914375438774776","0.0006830092427989305","0.023919537731251685","0.32866215078387107","0.20255929043735682"
"-0.0019181143023851114","-0.005404395634438269","0.061419336353028424","-0.004828821743224923","-0.006045171008565802","-0.001332471472091675","0.02612748031164037","0.31718702754190403","0.24080202432171569"
"-0.00033439170672792647","-0.004880926621017027","0.06252022473065974","-0.00499780540606833","-0.003852021831929102","-0.0028509952861712744","0.03798809494218956","0.31996028503861995","0.1821608801628669"
"0.0006595420799656656","-0.005772098647612141","0.06222764628795592","-0.0026138683825049605","-0.006700077641055868","0.001569694478424976","-0.011209394861855435","0.30118841318307144","0.2314256122039459"
"-0.0007122508322477925","-0.0072924980780842185","0.05923548268396531","1.7452428167207068e-06","-0.002784735485561995","-0.002218811413779929","-0.05879338816484729","0.2841791005365468","0.18632626982396028"
"-0.0007368938186947415","-0.006068782450241573","0.06399941065890567","-0.0001596869625933718","0.00013205027587760967","0.003943008233819741","0.08443980999882837","0.32470563675522285","0.16381945243706508"
"-0.0008453229590612939","-0.006104782326198024","0.06053274574517411","-0.0015015334218382317","-0.005637416587630762","-0.002939193223424374","-0.0009056628200416753","0.3327172695235135","0.197742522969179"
"-0.0009406091733228381","-0.006132937871206767","0.06280784421670756","-0.000816515898586769","-0.0012015230555854092","0.003063791212791077","-0.044215305743050284","0.2991546910188131","0.20182220502407702"
"-0.0008814660058501545","-0.006766647749910993","0.06297715716539089","-0.002298713851302006","-0.0035623391013697046","0.0001581131296500296","0.017550472595514875","0.34297215946692544","0.23716802181903343"
"-0.0007073222349583851","-0.008066145217802047","0.06363705261182818","-0.0011176236628158654","-0.004624144792401425","0.0024836579351365717","0.08834616994874694","0.3311272685587297","0.2318884332774008"
"-0.001223182084581189","-0.007881523285854173","0.06143102532228898","-0.0025173364651056643","-0.005329105964948778","0.0008051347758253422","0.005633244052647966","0.2986000395194699","0.2245861452295581"
"-0.0013808971978416396","-0.0068904761170141176","0.06178807020152076","0.0011955514519318277","-0.001016986539234962","-0.0008248893835377622","-0.019276877367121498","0.3181854002407218","0.23804223940222588"
"-0.0016453985857055459","-0.006624749406160467","0.059189116439231734","-0.0023316656655564707","-0.002302881337288981","-0.007328964382276641","0.025193350758398857","0.30116376200532285","0.20406774430639477"
