"AccX","AccY","AccZ","GyroX","GyroY","GyroZ","MagX","MagY","MagZ"
"-0.08820729487985231","-0.03929181918873962","-0.0035884314154127073","-0.048445866774300725","0.03472585856242224","-0.7737606880914942","0.2985839241101051","0.44479990160659766","-0.024546166943887702"
"-0.19228806479085453","0.10909207876226248","-0.07352220681321776","0.07897019171184232","-0.02130314013432491","-0.9582766484620013","0.06781572244482435","0.5732172991391844","-0.005738128325655865"
"-0.07321619786306875","0.10939330681071643","-0.058714348777175636","-0.025645068011003573","0.012994481972714337","-0.8902511010572228","-0.18482558213125644","0.6564762056347827","0.02208822425637534"
"-0.009342763303439828","0.13339806612027003","-0.036523214244780555","-0.08248869261014026","0.05797673945239175","-0.6304532113076134","-0.3900983835884073","0.7097086074268504","0.06354010846511829"
"0.09779832785790579","0.14876069659142097","0.006937539303178077","0.056874125655327824","-0.07464781685410964","-0.2328326017179265","-0.4748322765205636","0.7293392923999849","0.05806668811992727"
"0.1540794505661637","-0.028652236773864786","0.04613437322753663","0.056905896392109","-0.15181489380061375","0.3652243246809172","-0.447971548869594","0.724154575199419","-0.02591247909933102"
"0.12107881792324418","-0.11946729979568521","-0.060924168595664484","0.08960857478554218","0.6480417350819436","0.02975863105925682","-0.3979281185157127","0.7141941134018946","-0.021952461931102337"
"0.05488787722877914","-0.023963466392067947","0.1352871787644776","0.11779403205845049","-0.39603410519074855","-0.28850531158113096","-0.4376897973102499","0.7311862654485324","-0.039227485236169285"
"-0.28619183435070694","0.03660310697793466","0.028522522324613827","-0.1774427601027076","0.0803085942732158","-0.0403734513133187","-0.531479433485731","0.756727264177019","0.019788701286628022"
"0.008893034865980932","0.360046204646648","-0.04668218965332885","-0.27126270856714657","0.32511416344184185","0.46174148559023026","-0.5619624584340306","0.7513314643423334","0.16679473688210214"
"-0.10192747037690861","-0.08340199265648099","-0.38477223036912256","0.272007262895124","-0.09049862324981402","0.9701736005135666","-0.2526182692420543","0.6764762852176265","0.1587864479327334"
"-0.02780000991947972","0.0514339141359531","-0.23326533141179331","0.05393388837866905","-0.0367212384224733","0.9825749757272096","-0.03876340957276788","0.6079799704457763","0.05885607660207931"
"-0.08901606311967881","-0.08872022578780571","0.13281094141647","0.09158702521237051","-0.29120769417884274","1.014876796489165","0.2681844906378975","0.46140946637889346","-0.028506184112116383"
"-0.022966656867183403","-0.07528649354416847","0.06985999011987302","0.10833020349605504","0.14864919168063523","0.8023060616627447","0.4371507276456569","0.3093112358310003","-0.05545979663313475"
"0.05378833755034839","-0.2047148375081501","0.07626846759349071","0.003024170935618248","0.01905454944584782","0.4905000562911445","0.5166740852347309","0.19611817328429862","-0.0591403408604773"
"0.10330786892785704","-0.13454947656655145","0.09633652289840305","-0.002441839915144731","-0.10297727409492993","-0.010956709779148087","0.48574523908060613","0.16039243745953538","-0.07612118212250621"
"0.050644732427689534","-0.056803555977998126","0.11397377640297762","-0.17969559416537345","-0.25573903182275953","-0.41822224018567666","0.4369556808681083","0.22803122903027429","-0.0955829586141559"
"-0.04666164065543283","0.003438896011868048","0.022214003055869853","-0.1928274987015966","-0.054120508012805615","-0.7050313444417143","0.38702370581568324","0.33436410596808497","-0.04771136848844956"
"-0.057127486806520675","-0.0388700999209041","-0.023751694845215072","-0.12612820645309653","-0.1218173085124122","-0.7373817028757385","0.23165501558559348","0.45374452822742095","0.010165679789917116"
"-0.250423096125048","0.06801599884463823","-0.11164263130823389","0.11299953905328983","0.12074574131561674","-0.9498068246859516","-0.017754085248254302","0.5800774847480754","0.0708652413367654"
"-0.08343171098754362","0.12839144821148385","-0.06762384662480266","0.03989988746778011","0.04490933753172952","-0.9368958039155834","-0.3433986122782153","0.7120569017314324","0.10826885376436826"
"-0.017035689775122577","0.1514717490275064","-0.053984921315176126","-0.0512060698758661","0.16028061536825763","-0.6373455607414191","-0.5831389657107287","0.7731521316444598","0.13448374248842446"
"0.07093326141533653","0.1542243501599303","0.07017390844922845","0.03872051920847854","0.15306003815312247","-0.11738089493447566","-0.6551112266261379","0.7750254900222724","0.138896473133995"
"0.15108411962080637","-0.02034145878876144","0.09420518266225306","0.11472286083626926","-0.17820817372388537","0.4560383091221164","-0.542457780679177","0.7566085301953266","0.0320724359281496"
"0.118373295597158","-0.1376552416178524","-0.08117603134342308","0.07893842097506114","0.40435622893508855","0.07233830388183408","-0.4828570582254176","0.7445504347212373","-0.006148348841225573"
"0.05278315416656406","-0.04514083691578835","0.1826144974191417","0.03733127153650127","-0.17870837280839422","-0.2469570642900211","-0.5149004573941055","0.7640623857126791","0.018639756974096117"
"-0.25255092685125813","0.05833307516295677","0.01782410305009424","-0.22093978700494826","-0.08977345424212894","0.001581784358090181","-0.5919996621765048","0.7852629977770791","0.095502987441201"
"-0.03396205365149096","0.37018408655323576","0.04623970108804404","-0.2458364916462042","0.08393683260869639","0.6459419510922886","-0.6108913357733488","0.7679542217792616","0.22664443919350724"
"-0.12427450709878057","-0.07815750846115704","-0.39080276669621367","0.30804298040178335","-0.026733531152270437","0.8742631605051167","-0.24462135136256447","0.6660540801579652","0.20307718885679335"
"-0.020318903701084825","-0.011943428541347301","-0.219283574242476","0.10944699303139369","0.012338239920215143","0.8824417582487522","-0.011373269239880768","0.5929139474354811","0.06272457046802951"
"-0.0771252443555634","-0.043147538208950044","0.12762302797343822","0.13028089436305565","-0.1672420866175714","0.9582333331845793","0.2482897193279472","0.4414093867960496","0.010973046063588177"
"-0.013434745469228525","-0.06578222925674244","0.06470305545934343","0.06047384640759603","0.08980998358182918","0.8025244811870554","0.41753459458934694","0.290036752802943","-0.02223520356135556"
"0.03543507542228618","-0.17784321815124177","0.06648949858363583","-0.07214202266506764","-0.04463347848652263","0.5082891131044527","0.49864619022417356","0.18181732482268734","-0.04752505319452547"
"0.12929262965414853","-0.20094429331543354","0.0518716437469404","0.035676304975081355","-0.09103232849309383","0.06064557868039907","0.515253030141163","0.14812325935132648","-0.07529093502326553"
"0.04786218455495322","-0.0004396332426321995","0.14796369656436975","-0.11074346785420752","-0.18704422645119032","-0.4041463152856512","0.4761322193299996","0.2189282904338612","-0.072471690444151"
"-0.1302343587708352","0.046475077227956185","0.056444112044262196","-0.19913350857786213","0.004471472500212075","-0.7170686871148396","0.36799271309201936","0.3305382332246649","0.023273124151945206"
"-0.06390573491173304","-0.04798172902793154","0.01452506923882873","-0.16698729945289942","0.01713033861357448","-0.7424538896069546","0.23354975571035072","0.43976030371698926","0.09339631714411196"
"-0.23360264237532358","0.10926866072170101","-0.055426467327610904","0.003387416359483131","-0.051921068019199636","-1.0093382794786459","0.03585591475222878","0.5682040865788409","0.13240812474032276"
"-0.07246519878322988","0.11506470386091817","-0.022863636413485905","-0.032095490327183576","0.021306641974665252","-0.9735902839997878","-0.220017593566085","0.6607242436464422","0.19268275666944942"
"-0.02539296158666283","0.15193917186131423","-0.03268597571884384","-0.03370328215823142","0.0997924255985109","-0.6478539667443691","-0.4469127235057591","0.7138511041214501","0.2346036978023697"
"0.107268137408874","0.14549912392885067","0.07051880556108606","0.008323337280800033","-0.005298923397390764","-0.23325487946492726","-0.5820801403468937","0.7290094757841726","0.24550477684161248"
"0.17407431965720702","-0.013061088472852263","-0.14081844866878718","-0.024510948982875203","-0.03162112239812692","0.3539635847608968","-0.4848632536516311","0.707122845158884","0.18238638516311814"
"0.08776199541132582","-0.19624929062918595","0.058259468698889955","0.11025570269491475","0.7956363644678849","-0.10302102465284617","-0.47107066009641324","0.7080595243477901","0.20780044499223746"
"0.06334046815429893","0.12747737689203742","0.12221000204422394","-0.004556038035492683","-0.568949817419292","-0.294863746622177","-0.5854516632159469","0.7549594471162661","0.17403488383020496"
"-0.22719989381003067","-0.25488488833685796","-0.2856401263621459","0.02723395373768099","0.3644838999976832","-0.5006877450309988","-0.5932813981432525","0.7479145642025204","0.24550477684161248"
"-0.031420210612036314","0.42506991441636044","0.06776169391839203","-0.22413611567505537","0.17466672396626143","0.3717283727381704","-0.651823295233177","0.6965423281236328","0.44363638282773044"
"-0.10816653965556995","-0.03584431611005471","-0.319345041724518","0.23242862686256285","-0.12676186022817926","0.8066744521489595","-0.299513087329795","0.6135604675853166","0.36513880767708085"
"-0.06186455792550432","0.021881365147804716","-0.1852833278202498","0.1757130479601503","-0.11351256773133199","0.95845175270889","-0.10780996882494927","0.5771355205350317","0.21842368543527763"
"-0.05969821442596911","-0.06341914715249171","0.13339127727534417","0.17410525612910246","-0.1111360237556511","0.9186508616122661","0.13276629936848627","0.47369183715173474","0.10387083222094962"
"-0.010315210829897841","-0.05018173249905376","0.05301992395168788","0.04405511473891935","0.09754033306969347","0.789880417613067","0.29961488564857586","0.3442849897717119","0.059138818232332545"
"0.0545335597141885","-0.2408414289744536","0.09584912338703541","0.014665257717124288","-0.07314961289763812","0.4015790410606383","0.4509433212008747","0.2433479126685867","-0.0272183205014832"
"0.10435493495263237","-0.11573830429930715","0.11529760304190415","0.048451992159515476","-0.11880175422302862","-0.03094258163030159","0.4570733627809715","0.23111831255427517","-0.05157986235439975"
"0.04017310936060294","-0.01786204033476298","0.10547319848437939","-0.08492637459589662","-0.21501708243080572","-0.40351532554875347","0.38075434510876616","0.26691001170220074","0.008173413620676192"
"-0.06350135079181979","0.029295730009405475","0.015571119461319016","-0.07741981596914209","-0.15877460163674667","-0.6356224733829677","0.2770173232783101","0.36167292175732413","0.046910651310051496"
"-0.05165867299436071","-0.04548776853021461","-0.02682892057376497","-0.1218054607516565","-0.07135703340339343","-0.6387774220674561","0.1392864345036802","0.445327608191897","0.12337019864032085"
"-0.23193696492901428","0.07591959960562453","-0.07050900390183903","0.12112514567247777","-0.12708016873650307","-0.940341978632486","-0.08370775988502337","0.5914495616612755","0.18174899073653572"
"-0.06989447116378142","0.1246728398891904","-0.10803670102498011","0.06754139121701057","-0.00923087112915926","-0.9083799215750143","-0.30642331602008605","0.696713832763855","0.21564529947325176"
"-0.021686107154124827","0.13820732772144845","-0.08785712210305993","-0.12800556817198475","0.25046722829432266","-0.5141569490301611","-0.5076837266248098","0.7321625226313362","0.2913808321087108"
"0.06646192843229586","0.1333045815535085","-0.021742204486906985","-0.12234460052733723","-0.03593623698841154","-0.14658358533482174","-0.5950925467919175","0.7361467073503458","0.30515835779099215"
"0.12497245930640877","-0.036591153926738784","0.14423798165544088","0.17333505644955857","-0.10386997389646968","0.4494614545567597","-0.5348509563547842","0.729589953028002","0.1906234823681832"
"0.13113354021908688","-0.17488287353712545","-0.12688832280364015","0.06709660090207398","0.4189074750298919","-0.0696271062693373","-0.4893771933606115","0.7302627789242585","0.11869597284538312"
"0.06861094118383478","-0.013026810798373022","0.14263121546966112","-0.01542933201145342","-0.14165534780185712","-0.27425950482886374","-0.5831668295360927","0.7618592107190546","0.17606147123780033"
"-0.13389307223671687","-0.08921569399164202","0.10202216211363652","-0.16820036394818105","-0.15542637905670886","-0.32153519742412195","-0.6707706964807489","0.7786798581254701","0.2829639569884559"
"-0.01558183258210118","0.4120132365919948","0.0361757272791691","-0.18033100890099715","-0.13635419482488517","0.5674079976845599","-0.7095571413875431","0.7327034218812678","0.4339774057479816"
"-0.13314207315687798","-0.047028186446963556","-0.3294028197768925","0.16883901582022118","0.03218657038699684","0.7746395885833841","-0.355686559263773","0.629668711101578","0.363716927802397"
"-0.03678311429755234","0.030709424402322067","-0.24757752892780055","0.10910040317559892","-0.14109770958802664","0.9463173346916267","-0.1516119022972774","0.6058163734460491","0.2040414522200847"
"-0.07141572571012174","-0.08540879468962927","0.1405618327985155","0.1616376488164859","-0.13109372789784934","0.9518748981435333","0.09166715695647348","0.5038370758369577","0.07895361317562787"
"-0.015851421995376674","-0.04434933425054041","0.06195420482531665","0.10855163590392392","0.13948286395973114","0.7753433848283854","0.30850344593971635","0.3815410746938431","-0.017964660903253393"
"0.036064759266151075","-0.1419035958184614","0.05714010202447785","0.025292087795630986","0.01196536423903581","0.4518155316521088","0.41076368502587657","0.2764746935607508","-0.035182482144396274"
"0.11186656254388737","-0.1925306823068925","0.08461002109524443","0.022703254122764114","-0.09467971320501493","0.13640803101298482","0.43843246361240445","0.2414349762968767","-0.06012748504933827"
"0.0628754264163987","-0.04126434354740869","0.15553904151223621","-0.08173485967378667","-0.19719898585583678","-0.25591226478676155","0.3671289345057329","0.2646144880561488","-0.018935461645278914"
"-0.005087101851019551","0.026591948595179254","0.01798209484085536","-0.11064719289426454","-0.219102440503804","-0.6028838135723911","0.2783547868957855","0.3643246473484531","0.010927284412448925"
"-0.12273399616577776","-0.022185182188781245","-0.013695982045007382","-0.21058060131508305","-0.15979414618220494","-0.5618694806740407","0.166983076915572","0.4862908318757558","0.047608516489925055"
"-0.21491431911933329","0.033009144744656625","-0.07351601105671733","0.031542258195129576","-0.10261588623961493","-0.8502075216002536","-0.039097775477136824","0.5928875621062161","0.15326236290235248"
"-0.07531514400928507","0.13811384315468686","-0.0165191817570394","0.05893537254770713","-0.09606064560578821","-0.997325205641555","-0.29246353951268356","0.7045766608848147","0.18171630384286483"
"-0.03378874617152812","0.14787778679422836","-0.08052960741521092","-0.04604669477252154","0.17152193163590426","-0.6208670210739754","-0.5742504054195882","0.7895638064472683","0.21541649121755546"
"0.07024099431481838","0.14753501004943595","-0.0070274893235880735","-0.18680068620916573","-0.014719897924953918","-0.11580342059223142","-0.636163825378566","0.7832577127529416","0.23981725734287712"
"0.15709018662085106","0.016717900910340807","0.005601321151250707","-0.08250698485252943","-0.1961028558046164","0.4025740633380539","-0.5588695738186181","0.7506058677875468","0.17375704523400237"
"0.12819116433705152","-0.23405860429719766","-0.04338398194293006","-0.0678414202044145","1.0648822831628484","0.013831236658157232","-0.4912440696600046","0.7239566852299317","0.2117882460200864"
"0.05410799356894647","0.02738448997783565","0.14772206206085273","0.11732228475472985","-0.35690369834041386","-0.35674927851022037","-0.6181359303680086","0.7707246813520829","0.21933891845806264"
"-0.0498485726480824","-0.1491226818072713","-0.1333091917902587","-0.018249225588183454","-0.12401674850601814","-0.002697539499877928","-0.5723278014694669","0.754787942476044","0.2646919834264267"
"0.009565082760503397","0.29619624554849733","-0.09760304707824581","-0.3470503570342644","0.15048245722481604","-0.4894027362749438","-0.699275389828199","0.7667536892977057","0.34685049066821627"
"-0.05524036091359224","0.09908611396654939","-0.16117770452922","-0.1605176221447308","-0.5487025243334306","1.1692751313408243","-0.546804537435973","0.7208959870351958","0.3528975659973315"
"-0.12549728765185153","-0.03750522524618522","-0.030077562232160265","0.058164210118563826","-0.36429898624056883","0.8748941502420143","-0.25295263514642313","0.6557769944092612","0.2401931566200924"
"-0.16121788491085418","-0.055352467758376905","0.1612288112318033","0.24788075793341197","0.13282471155253658","1.0368886307724805","0.03017169437795708","0.5481776216667321","0.13253887231500633"
"-0.01859545709478793","-0.05581885187477628","0.10560743987522216","0.10719415896872782","0.11474335230151035","0.8687541347252791","0.33068305092952105","0.3743906504630374","0.037504997656252016"
"0.02428851600267774","-0.16120296526768277","0.08098756879465616","0.040406293757080214","-0.02797637031296639","0.5350333704145012","0.4522807848183505","0.25119754812491385","0.012020661005740289"
"0.11320391859760046","-0.16833895386381575","0.08664016397522063","-0.007462386526251518","-0.14041561992733273","0.09498112790204757","0.439714199579152","0.2170549320560486","-0.022736947379203773"
"0.07271447718162101","-0.05082677600970858","0.09351538843853784","-0.04882037636847894","-0.2342328644859334","-0.1811885186364535","0.42257794698024503","0.24421862853433057","-0.024323896066925622"
"0.02430199547334152","-0.005268942089793925","0.049424319929268164","-0.17827072475821726","-0.21838684468433914","-0.4717350236418083","0.3505499584141074","0.3256173693167489","-0.00277179272502233"
"-0.19036242612460108","-0.01495778646070362","-0.0026859162185158586","-0.12200763816753679","-0.1469325678082784","-0.722019529665883","0.21591195425489018","0.44231968065569094","0.08504318146651525"
"-0.11893085979992708","0.0034583823504507924","-0.00231293167718961","-0.006060334284601825","0.05335049624494852","-0.8692828267233916","0.04059276506412156","0.5382963158570027","0.1755875112795724"
"-0.15740512035167223","0.13321109698674688","-0.03541004332686888","0.195988554524143","-0.12208296448552454","-0.9333040161824733","-0.20246338358671678","0.6545632692630727","0.1991874485099571"
"-0.054123490487165186","0.1538919605892225","-0.09296036020725243","0.06082525001138792","-0.001035504023495581","-0.7901906900868688","-0.4540458627989627","0.7459224718430155","0.17539138991754702"
"0.02764201573995823","0.15185607446863728","-0.13644630983164616","-0.21250610051394275","-0.006818427697652386","-0.3065370567547844","-0.5841977910745635","0.7627299265847985","0.20056029804413464"
"0.09036786593643338","0.06945254502054099","0.1244218871148796","0.00881896077458652","-0.102474681713366","0.20910290247080635","-0.5948139085382766","0.7441414621176303","0.18787778329982813"
"0.18044914646183927","-0.10453054346200367","-0.07720455142664359","0.055322173301046905","0.2876829975006043","0.34030023007345817","-0.4504235655016327","0.704748165525037","0.12171951050994072"
"0.03322155377542778","-0.13120480651130423","0.11664621270683238","0.012847586473400731","0.8581014176051165","-0.09374304863684657","-0.46338024429592817","0.7013972287083863","0.20293009783527438"
"0.06999836384287043","0.0638310064059454","0.07027304055323544","-0.07706744961575077","-0.4168797225403764","-0.09101523146656575","-0.5299469230907068","0.7263445575284112","0.2144685713010996"
"-0.23754057344781204","-0.08260945127382457","0.21617277987767008","0.02525839155965094","0.27822947413309224","-0.3471388194405477","-0.5833340124882772","0.7462786737880925","0.23927792359730735"
"-0.010786992303129945","0.48337312255332465","-0.14177052991768752","-0.1457971807694484","0.3475632898183642","0.46560023051972","-0.6933403950256508","0.7395636074901588","0.37084267062265164"
"-0.14820056752698044","0.00508270785945528","-0.3131699377457501","-0.062325827749280874","-0.04162271079124918","0.7897348045968599","-0.33634906446110385","0.6442861835143687","0.33016383144922534"
"-0.03367320785155292","-0.03383647535949793","-0.1740690085544606","0.08768596383548077","-0.1595619963678635","1.0012377106377608","-0.09761180874169731","0.5742067489866206","0.22600704476692487"
"-0.043985002909340466","-0.06680952077371122","0.11913071106350724","0.15956773717771172","-0.1921443424755367","1.0400435794569691","0.15817810810052402","0.4580981075561402","0.10944558193652042"
"0.01148109323342564","-0.09026272113937156","0.059767102780662724","0.15281886248570845","-0.027349805143950023","0.6375692026603769","0.3248873752537929","0.33044588457223756","0.03151185570169379"
"0.028787770746379063","-0.13651265246854435","0.05582660164638541","0.08675209672403382","-0.11907459008730616","0.43174520425155516","0.4560424012425007","0.24101281102863722","-0.063448473446301"
"0.09956221287619402","-0.16431911749306838","0.04605382839303096","0.0703227748097634","0.008629108144273326","0.08423731418956257","0.4789186018664072","0.20501002924659192","-0.07683865943858231"
"0.08787637834810128","-0.05035000471922458","0.132019949836581","-0.08171271643299981","-0.15797045382624436","-0.3237436615032639","0.4112373700570659","0.24322917868689434","-0.0387192040395869"
"0.016810298242282223","0.013164656399474476","0.0014243486438734096","-0.3691647153331681","-0.030033887791206925","-0.5991464128230739","0.3228254521768514","0.3416332641805829","0.03229470680511167"
"-0.13171710054385036","-0.050850666510103205","-0.012942165004120994","-0.1303739321865822","-0.26210520198923604","-0.5065122656792852","0.17790569645829002","0.45379729888595083","0.12217712702133322"
"-0.22562087010370277","0.03824012561367055","-0.01725441152842448","0.1506623033829856","0.0965638678712264","-0.9631789533409758","-0.036952260924103114","0.6038770517450741","0.18771434883147367"
"-0.1112186769415818","0.1459977082849124","-0.025028020684304896","0.12121179313642647","-0.032250559523609376","-0.9479138554752584","-0.3212468711137745","0.7243260798396414","0.20031514634160297"
"-0.06700601316440118","0.15841038131603163","-0.061929946400901936","0.054584707107883636","0.07764006805681682","-0.6858589639744381","-0.5713525675817243","0.778706243454735","0.192045362242867"
"0.05457110966818044","0.17925743970386113","-0.00017395000802240723","-0.16551429256577174","0.06465643153308191","-0.21490278565561813","-0.6545260862934923","0.7809753817715221","0.207015959544136"
"0.1862944226332518","0.010808637573601284","0.01696475162348376","-0.028013432025601002","-0.21208290024129436","0.446573463068651","-0.544631159057575","0.7477958302208282","0.13986073649728634"
"0.10889530208185823","-0.21324270743162196","-0.044588023956181465","-0.026936115223839","0.5178463752863345","0.0671423460868419","-0.4643554781836709","0.7259487775894367","0.11194612930234372"
"0.054021339828965065","0.015653215566667402","0.15644981771780028","-0.023933299223217297","-0.13960429222566526","-0.15156597737271008","-0.5024174636309993","0.7355662301065166","0.16891938497071018"
"0.02506936248184354","-0.11242479576631383","-0.13101469663293056","0.0596959447312567","-0.21693172007485878","0.14544817243584607","-0.47134929835005396","0.7322021006252334","0.17818611932640835"
"0.02298582144495724","0.17971447536358437","0.0057807915645466685","-0.2513723018429258","-0.10438931935741909","-0.550778622606262","-0.5686497765214089","0.7511995376960087","0.23427682886566076"
"-0.06202823721213586","0.12867190191176858","-0.10881117058753462","-0.1994897259296512","-0.5401105879057424","1.1022446062134612","-0.4370767931522401","0.6992204390440268","0.2925902471745339"
"-0.17786503118061578","-0.028011348132843818","-0.07249990699064582","0.14585818288183064","0.0495116477686221","0.6595324992716236","-0.16317538982336907","0.6349721622838359","0.19132625058210737"
"-0.15121419203966716","-0.0011008807448590202","0.07980417930307288","0.22655585430604078","0.3663267387300843","1.0660840405220164","0.09587459458644905","0.5263305690353408","0.12049375199728223"
"-0.017026061581791315","-0.06683133383928892","0.09820144560503428","0.1338623228729347","0.07249926598253432","0.9104237261965615","0.34857162681325804","0.371290374274404","0.050609173328913036"
"0.002718474482639042","-0.16512931707166864","0.07987439787674448","0.006967304470003088","-0.06256645332013473","0.6357733087938219","0.47479475571252416","0.2389679480106024","0.02757308501435118"
"0.10133408929494718","-0.19379791754521594","0.08144398952352161","0.026069026722370874","-0.1480550241271045","0.07907533276501871","0.5081198908479594","0.18344002257248265","0.0023404374451053327"
