"AccX","AccY","AccZ","GyroX","GyroY","GyroZ","MagX","MagY","MagZ"
"-0.07881017818853518","-0.03205299756916891","-0.10398467627369494","0.26425712861971373","0.31065864922924114","1.0163814643233056","0.0649178846069603","0.562056304860104","0.07892092628195699"
"-0.017988880914918067","-0.029321170784914224","0.11037197662405748","0.11936331390552114","0.03221050335754751","0.8738020526204607","0.28913808731168317","0.41936444419517094","0.0027702700968775746"
"-0.02399687355362904","-0.08075014711267785","0.0748579003635581","0.0072358153332840736","0.04229346385054202","0.7618499119931886","0.45420338876847166","0.29193649651002046","-0.04811668596996863"
"0.10338932344343955","-0.2538150094061422","0.0819396500435565","-0.04090272366276784","-0.07888155934452201","0.3800768523340476","0.52575769230342","0.18374345385902977","-0.04732239445376593"
"0.08115551427514328","-0.08456535615395826","0.08975456424277316","-0.024952851049013507","-0.14842119857652963","-0.15884662818306813","0.5245595478127646","0.18745059262075736","-0.062082161290857675"
"0.05094802051762447","-0.01978366754041742","0.0482781049766875","-0.23811523985877678","-0.1701714822129726","-0.41817370251360764","0.4501074064399525","0.2390075260044999","-0.030606317030471255"
"-0.20429442187494518","0.03733124788126642","-0.018212688533825253","-0.09464822005093929","-0.05339533900512052","-0.6555714566033487","0.3573208679775781","0.34333511791817317","0.04284276739270884"
"-0.038525817290511764","-0.04348512136670015","0.02019150160891085","-0.0269168602318504","0.08910635424763967","-0.8254290400090017","0.2617200831534318","0.44830915039883806","0.022706006546755225"
"-0.24265314410671512","0.14016011644935678","-0.050711496630779083","0.1539163970290585","-0.010579972679100156","-0.8832374074432445","0.047781632008053035","0.5667792787985327","0.033667556339289174"
"-0.04770148553520973","0.10941408115888565","-0.06787993789348734","-0.007741198810246402","0.08319491052162581","-0.792496229510149","-0.17078221414776196","0.6470170650932927","0.028614162577769123"
"0.0036610746097701444","0.11442069906767181","-0.05920174828854327","-0.09842027298150544","0.054925285707182164","-0.4105290191627317","-0.3547670530267585","0.6885475733563482","0.088640374114997"
"0.08791219522729359","0.09424776827793406","0.05065934072502175","0.013992295747122825","-0.01869037773930898","-0.14353784641248865","-0.41397768192542084","0.7020964399339079","0.10983782466057111"
"0.15314551581303074","-0.04498087443488523","-0.03180617829578192","0.13005946195518678","0.008439798347217578","0.2539274426265773","-0.36964633577117517","0.7009354854462495","0.027978402495870264"
"0.09358551186580967","-0.09692920946687979","0.02518693354999575","0.07040268302651609","0.47598760979322413","0.027283209783735086","-0.3537918191390158","0.7023998712204551","0.029540836013338935"
"0.03309349880412192","0.06514810007987504","-0.19197681009288758","-0.026459554172121223","-0.08843081459423671","-0.21953085268740236","-0.42216964658245915","0.7287324298268906","0.042097506217012484"
"-0.1734649468282265","0.14531215479532758","0.1724782397844283","-0.1612300568483089","-0.8522443898274948","0.8470335264743776","-0.371401756769112","0.705236294116439","0.1370986939820959"
"-0.02579734570657605","0.1406898623276723","-0.22302168066440575","-0.17887725700585808","0.04033096026538761","0.6543146995242003","-0.13689980250504505","0.6351172815947933","0.1596689940618475"
"-0.1392559759222329","-0.0734064150348525","-0.15298897968781036","0.11832354433813691","-0.2044243496650821","0.7972096060954941","0.029168596664850256","0.5691803437616446","0.15113771481374444"
"-0.0635591199518074","-0.022468752041291333","0.09471736519962243","0.1785050217984969","0.14907998515054718","0.9039439469753429","0.23850951662515602","0.449456912221864","0.08797029279474372"
"0.0020281330207871594","-0.039121469533751875","0.06614873197611185","0.15835467268243011","0.008529068327371553","0.8354330228498738","0.4031568607014837","0.30522150979493057","0.02108473662067892"
"0.0033000173598475976","-0.0705686390749347","0.11940745485386005","0.02442079940814697","0.0499735541002499","0.5819207616332069","0.5524512370022052","0.15316285724093484","-0.02307035369464688"
"0.0717131450751692","-0.24101801093389214","-0.001988893612216803","0.002098487195766446","-0.10851057688624333","0.29127718128371405","0.5922686434474702","0.07962694457947625","-0.0417607194956635"
"0.0950100608383307","-0.09591438255881254","0.1503676500865389","-0.07816017041110365","-0.09831273813460563","-0.15260711043859132","0.5540394750479575","0.08924439709655611","-0.009729198042871904"
"0.029919083462803007","0.013155411814539164","-0.0024494448454158817","-0.21294896532968047","-0.15744632177118487","-0.49925588370496166","0.5074232952138577","0.17512864385401858","-0.010191717588315038"
"-0.14707406890722213","0.0020934869013837392","0.0004879633114408422","-0.26931795437629824","-0.3682957923225297","-0.4614450371631689","0.4139680249427453","0.29563044260711563","0.043697529662202694"
"-0.18954402969144332","0.0167916498463416","-0.029360919730276498","0.05764721358367","0.028728256142425978","-0.9032834660077637","0.28833003637612464","0.4220029771216675","0.07379889004372805"
"-0.1378021187292115","0.12697879253597574","-0.004060548060745933","0.17517390818446962","0.0384187159183896","-1.0424895095018094","0.05134820165465498","0.551423017166323","0.08580478608904704"
"-0.068007345270853","0.11967660915448887","-0.025174653588148545","0.1356915471118514","0.12377565538733071","-0.808901962669489","-0.20009495843077024","0.6395764022405724","0.09072906662056708"
"0.026363391665565894","0.14684945655985113","-0.03595733515107406","-0.01136075220426287","0.01690225740422666","-0.4559602802193659","-0.3676401403449617","0.6816478097535598","0.07931316900600771"
"0.12522279233302175","0.14455389108715042","0.10245379981650023","0.0624946578167993","-0.3956033117208366","-0.048292372511384796","-0.42133373182153694","0.6948932450445725","0.04741239512789968"
"0.15639406824300045","-0.08253362490300685","-0.04574456516959619","0.17045643514726333","0.2613327969243238","0.20446755478821177","-0.3960055145655915","0.697426236654009","-0.0857621814107361"
"0.041187920937718545","-0.1042189282394651","0.1310926516136824","0.15227972271002777","0.7885043392437873","-0.1625573332127473","-0.4114420738172898","0.7074790471039608","-0.024225835385912945"
"0.022499597681728226","0.07861610999799153","-0.05436079720953592","-0.16402203068665547","-0.4579487000053149","-0.05751938397171188","-0.4514266632147394","0.7251440250468553","-0.010294681303378352"
"-0.0626348133920057","0.13385510177999324","0.015054393369182649","-0.4254759394038201","0.08564325340895867","-0.2679496074598868","-0.517268882550052","0.7450121779833743","0.07162357726993011"
"-0.018345124068174973","0.15563700583543846","-0.050800302473952","-0.15691693864286316","-0.29776532810972456","0.8193185157229479","-0.3868383160208103","0.7023866785558226","0.13968095858209645"
"-0.21985358229827354","0.04137393603499998","-0.1549860785331176","0.17885161165429161","0.04701065234607777","0.7348144286507257","-0.1662125467880535","0.6465685144957882","0.10132942623803769"
"-0.10561506842278404","-0.06354275452409867","0.05471136547630692","0.20737788228539814","0.14382669811467655","1.1143062177226213","0.11312230248681242","0.5226234302736132","0.022547475112451382"
"0.0044428839082690606","-0.06943332094748587","0.08860008828152523","0.14908339403992063","0.13117094328748571","0.8073539795579263","0.3719215124683539","0.37031411709160034","-0.061787979247819626"
"0.006904812943074182","-0.1555731169138195","0.08760876724145547","-0.009961877036291297","-0.001495256387773826","0.6402145057881402","0.48814152806191663","0.2393901132788419","-0.0620102501247817"
"0.12452185985850545","-0.20299056661010342","0.06770386685772128","0.007688789019815819","-0.0857790414572232","0.053913403564421335","0.5165904937586385","0.18958780429121966","-0.07822294938554462"
"0.07467670298253334","-0.034747430526718984","0.10614234018642647","-0.1859438390656732","-0.2403740647292336","-0.22210092242345875","0.4528659251509959","0.20971981052038827","-0.08870727053048356"
"0.03315223078344265","-0.00274039230237522","0.026433106707450117","-0.3403303648302441","0.017407961071962175","-0.4143392264201524","0.39490916839371687","0.28576232946201857","-0.043480050102752466"
"-0.19860415961616604","-0.014397917777542676","-0.004553110702530599","-0.11517211601158484","-0.28077291901875345","-0.5599765114633477","0.3343610758775791","0.3809605974500138","0.023454536411818664"
"-0.14045950008864133","-0.005980567386331147","-0.015978085689334655","0.11790956201038208","0.10676409991991917","-0.8404514495143738","0.17759919437928534","0.4871747404061322","0.05343332094207818"
"-0.13373902114341654","0.13960959622287195","-0.009708393161326746","0.10421926270648958","-0.003383089104810157","-0.9115591390955373","-0.06024641892847108","0.5983361325994314","0.060456100047269534"
"-0.03195938943858729","0.10300727218349293","-0.0017420959782827672","0.01686417780222207","0.07531139002223729","-0.7618932272706106","-0.31926853951292494","0.688455224703921","0.07596603109410825"
"0.02237731962642113","0.13320070981266227","-0.0321634669206404","-0.01880184385825619","-0.056497051988486494","-0.3496627783881385","-0.46246073805891386","0.7226769967605811","0.06906255915081567"
"0.09050901525066977","0.08827410446186988","0.08299912440513106","-0.008055440279500305","-0.08644437803853165","0.007586137081392455","-0.4779808887867043","0.7285213471927708","0.034595864119542546"
"0.166303404819541","-0.0938805738730442","-0.107774413999795","-0.006016914277667539","0.11508559378038483","0.33066550216775104","-0.3853336694511503","0.7035872110373786","0.010178754547385475"
"0.08617989068313194","-0.11088749400179028","0.1308344950928309","0.09818282271806443","0.7367612569132529","-0.028081285861830882","-0.36580112787093266","0.7047877435189345","0.05188559652676139"
"0.03365097119800231","-0.03067669700295695","0.11516749215539497","-0.036062018676834555","-0.4378210717722069","-0.2902041301035479","-0.4325349896178957","0.7275846680038646","0.00012916908826942163"
"-0.09076839430596949","0.21794966316906544","0.017262560985938053","-0.4576221485287828","-0.03423460278225937","-0.40045745220840306","-0.4893493295352475","0.7379936803988935","0.1078602675934821"
"-0.015302614975494422","0.06634781868664849","-0.029259722374102706","-0.2625016872123349","-0.40505683508834867","0.9095015104272496","-0.4070953170604939","0.7172811969258955","0.16955677939729263"
"-0.23490244847504474","-0.013805848854719418","-0.06048220463196672","0.23887904917874284","0.1164689194782132","0.5542542885538464","-0.1543704210083211","0.6553680218056542","0.08303457185043889"
"-0.09377239062532494","-0.0069129201321665125","-0.10531676392128868","0.2495848247244028","0.3712329976929703","1.107899245009506","0.08564857067783314","0.5479797316972449","0.02942643188549082"
"0.012625885420513351","-0.09352325508453334","0.08583471563016395","0.19756746386720794","0.045775711065663555","0.8393160366153981","0.3817853066472372","0.367490886860249","-0.01866089173844341"
"-0.00303629667145957","-0.06073406265161779","0.10472970770432706","0.04684227482926877","0.04198712182749351","0.6303128206860533","0.49669572244868815","0.24737167538149388","-0.03596043021376353"
"0.0401317081292785","-0.15807642586821258","0.04930453530359307","0.030231955990305547","-0.13655523177751075","0.3682336603491985","0.5153644854426195","0.17433708397606962","-0.09448794767618099"
"0.11895002437770093","-0.13203578043807374","0.10352153518674202","0.0038599338628833016","-0.07502356449175507","0.014280938189877017","0.5168134043615513","0.15726577594163701","-0.12208222331314884"
"0.055898837528562235","-0.0004792083758945968","0.08743941656377689","-0.1444974688102181","-0.2029309323027207","-0.32728691156430484","0.4808412058165287","0.21504964703191126","-0.12019618954833831"
"-0.15760731241162884","0.008161258514654542","-0.02238656316295233","-0.17249422716163818","0.09493163927967115","-0.8747675836671946","0.391593373175392","0.3321477383098278","-0.042233045109207897"
"-0.0333843620516149","-0.029545533745141985","0.016781150705854172","-0.10230015386720774","0.06070509809516739","-0.6447718245679843","0.26439501038838337","0.44431177301519575","0.022637364070046337"
"-0.23732875319452412","0.08782226238918898","-0.04367105199411693","0.06427189357734679","0.020531213728823754","-0.9467974890176702","0.0596516216131497","0.5688373344812002","0.04096163666194895"
"-0.07472782421607775","0.11579180604684149","-0.0428738646577275","0.06597788586753649","0.009532817112266377","-1.021642579348151","-0.2288504262064971","0.6820567823571668","0.037941367686758445"
"-0.021195069294230165","0.126127044261037","-0.029769839659305276","0.02349463429349545","0.20728257623270557","-0.5346641154793362","-0.4362408783913177","0.739761497459646","0.03511885441827682"
"0.07497228851780326","0.16666818471330339","-0.10968890275842973","-0.11465223122789273","0.021383227480427373","-0.16063038763160584","-0.5432936954400994","0.7587985125243186","0.054876447297648095"
"0.1651980882251115","0.028496956322298303","0.2402763379165331","0.2854761297911476","-0.2580365969956232","0.44725299047761774","-0.4735226767284521","0.7395504148255264","-0.012975006584391581"
"0.15059789585757735","-0.207685569296351","0.011076924221119396","0.09299745337553525","0.654551503071724","0.21175548624938012","-0.34863701144666176","0.7071624231527814","-0.11720533877745161"
"0.014376290968137799","-0.030491805304250736","0.24190788712831457","0.1047776574741589","-0.08057122706539883","-0.38147922242940313","-0.4121108056260277","0.7408169106302447","-0.08425368126782438"
"-0.10294805887002295","-0.08934968853733358","-0.015372966804458736","-0.28290235122425345","-0.05696374491422443","-0.27440511784507093","-0.5726064397231078","0.7887590539046869","-0.037928181212751294"
"-0.04761483179522834","0.3836978000373245","0.15023753920002977","-0.20399539405498288","0.2300954837615979","0.16985534083576964","-0.6297272817194643","0.7805268311740177","0.17859470549729453"
"-0.054431592673765745","0.11466999124570267","-0.30472305638348895","-0.038513179156982956","-0.17135616425523043","0.9710958162828784","-0.3318629885774877","0.7029803484642843","0.19390851518210792"
"-0.07389017139625748","-0.014464395691684236","-0.1481438981044694","-0.00184223946461982","-0.3311757549984507","0.9828662017596241","-0.13982550416827305","0.6454735233312922","0.12964608222513227"
"-0.1247366603786814","-0.06121810496396103","0.1996734803170089","0.14445256846666304","-0.07544239147639166","0.9354206273121242","0.12574461537673912","0.5100903988727546","0.07391983155031037"
"-0.02089659530096088","-0.1265409653473105","0.07534116937059211","0.10997650531108011","0.09054951237184468","0.7687907990990632","0.31351893450525015","0.3643378400130856","0.017842196768526337"
"0.05482336833345965","-0.17766663619180326","0.07287319303125175","0.019410650492714024","-0.07440609385154794","0.29132571895578313","0.4894232640286642","0.2477278773265709","-0.09729738618719423"
"0.10226975712287976","-0.060381937450149234","0.13199723206274605","-0.11654884793876952","-0.10933865766729628","-0.04127382513019964","0.4962220374174988","0.23832150744361075","-0.10384947402352473"
"0.07860115458435799","-0.04724320095051516","0.05283611650884161","-0.1992394110337994","-0.21092215116958718","-0.20254266746323363","0.40794943866410466","0.2739417019513141","-0.021419665564266784"
"-0.021368376774192968","-0.03217660494077588","-0.02136839384471401","-0.11790632487396562","-0.12382049814750272","-0.55344819457006","0.33929297296702077","0.3513826433439876","0.012156311614474506"
"-0.12723999064481095","-0.035670850302841575","-0.025224219640152035","0.03968230605830897","-0.20384995837186615","-0.6112565620043028","0.18657134614651794","0.4696548817741951","0.021251439778400473"
"-0.1940789087504703","0.03599234114175909","-0.0806431962843856","0.19527611982056492","0.09990969715420915","-0.8750830785356435","0.011614386685482203","0.5960801869472769","0.007336629142701334"
"-0.07275404458316788","0.13763603314679443","-0.0719980507141105","0.03370459379544902","-0.1939632482373871","-0.8771216607625438","-0.22879469855576903","0.6891676285940749","-0.022120799433507435"
"-0.023014797833839747","0.12676066188019874","-0.0795114380969726","-0.12499216192576933","0.0312723309119615","-0.5825465289754576","-0.457779615397749","0.7369118818990299","0.03305794577232702"
"0.05905207084455236","0.1451147984877198","0.014433165517405595","-0.12753382086826412","-0.07570565415244897","-0.1098405675785482","-0.5082131393067271","0.740196855392518","0.07513414965018404"
"0.16050241833745227","0.019017621252675365","0.08454599827807326","0.14782219206466754","-0.28680402759752066","0.39480803580700535","-0.43236780666571123","0.723824758583607","-0.005383475529326672"
"0.13540171832283776","-0.11881290782835426","-0.26825070311758886","-0.10492846027365124","0.7670125316892915","0.35602643582383153","-0.29441400728816886","0.684576581301971","-0.02690452632224263"
"0.021608989798585984","-0.048742070170925626","0.18637532161490636","0.12168354044014708","-0.1613521825650531","-0.36376297212419856","-0.3520363981410789","0.7038642569946608","0.04397536825840529"
"-0.05986189371260065","-0.1871812876533139","-0.09980873639240104","-0.028782668955545456","-0.10720862328828723","-0.1055110072299886","-0.39603337839095565","0.7261202822296591","0.06526924514030853"
"-0.08821692307318359","0.6288039469120696","0.09731545242547195","-0.2670266103296552","0.7401358057608964","-0.11275282790269141","-0.5146218191404648","0.7374527811489617","0.22698765157705164"
"-0.026038050539857742","0.062271891575844146","-0.3283701936934865","-0.14312073688303342","-0.49885014667639865","0.9854872360513529","-0.2203519594704538","0.6439959448924542","0.24539037271376438"
"-0.0873215010933757","-0.025254592130786038","-0.15054165587013815","0.11201753446187138","-0.4575179065354029","0.8822476075604759","-0.011624043668157552","0.5898928272346425","0.12080427748715572"
"-0.11949892320647189","-0.035036193966271376","0.20956810344820528","0.15069118587096847","-0.011640203274494547","0.950661456341807","0.20273236485768203","0.4695493404571352","0.05042776106903956"
"0.003934515300378139","-0.05660619967039037","0.03187380701569968","0.10265960835541323","0.05269473285186035","0.838248207829879","0.4205438877286674","0.3232294970182695","-0.003997551237680818"
"0.025557511883738806","-0.2146138144107916","0.07285047525741682","0.02898712075824275","-0.039813378217619017","0.4395840382907073","0.510153950099537","0.21190979284938039","-0.012706974056290251"
"0.10925635933178075","-0.18598676263358277","0.06122517081043201","0.03197453276527358","-0.12689588486326298","0.018958028270451018","0.5247267307649491","0.1901946668643138","-0.03348439801819339"
"0.06393549050217126","-0.03861561415583095","0.13072503672798988","-0.11309257687681637","-0.23846182038223562","-0.3980062997689159","0.42987826922563294","0.23614471777925114","-0.030918476865028285"
"-0.056790500039926306","0.0796049689708472","0.05200381988561637","-0.2987010721508973","-0.10364500397329345","-0.6919261729830698","0.33990597712503046","0.3444301090826692","0.021375649974349865"
"-0.07945526714173011","-0.0645388845188136","0.01615827065234367","-0.14098343277229913","-0.04158441803836811","-0.6532416483440342","0.24004202702018035","0.45544638196501125","0.0688991246824612"
"-0.23823380336766328","0.0828218767848536","-0.10976325183643496","0.14909302153591494","0.0016962052351571432","-0.8267152883188317","0.049369870053805893","0.5446024095513293","0.09799046004955596"
"-0.07653792456235604","0.12606472121652929","-0.10398054576936133","0.05322434192388925","0.04515824042545643","-0.8255261153531398","-0.15593079522870923","0.6214892590294385","0.09261510038537761"
"-0.00011317717608674748","0.14677674634125878","-0.05543266308411135","-0.0757013079341598","0.16410510406225365","-0.6246044218232926","-0.3928011746487228","0.6800646899976619","0.14589146837956612"
"0.0708215743726938","0.15710159738136967","0.0027357837697990378","0.06527892965835042","0.007413791899710635","-0.07154919808327183","-0.4746650935683791","0.7011465680803692","0.13482695487196883"
"0.16766386853724907","-0.03172995645513728","0.15365140103177002","0.26967740886450375","-0.11537215954311852","0.46455667057023536","-0.3760271517795489","0.6875581235089121","-0.013197277461353648"
"0.11240189009310585","-0.17058258346609337","-0.060306658197787695","0.04454900528342687","0.267435704414743","-0.005297945280977475","-0.32924378899326434","0.6759090006384297","-0.07195687186883444"
"0.047373072333724814","0.05564799066208287","0.18416550179641752","-0.13024877473865631","-0.17504423501708766","-0.34337714985519613","-0.37794975572967004","0.70242625654972","-0.01960717731021577"
"-0.17689258365415775","-0.13045692997721173","-0.07875142529958577","-0.12924751515524927","0.12742064680219675","-0.03528670328048188","-0.34298065489775414","0.6931254279838197","0.03146282536118744"
"-0.013117015089296701","0.4396638940052496","-0.0018773699952089552","-0.2837977083517232","0.6085044677322475","-0.12389222364253921","-0.4089343295345229","0.6995106776659414","0.16862520292767216"
"-0.06914347208394256","0.018971917686703043","-0.29065868912749915","-0.011895078231946438","-0.48666826466611096","1.037082781460757","-0.22698354990710395","0.6491806620930198","0.1874038233416002"
"-0.11018846025513614","0.008133836375071148","-0.09873480526565881","0.1383583635022721","-0.16651931090694136","0.947069668608697","-0.006887193356264777","0.5829798709672216","0.07171510057220863"
"-0.1240338022654989","-0.0721506056880221","0.19285195241002884","0.17501024075256652","-0.03716878497177071","1.0327386598105766","0.22831135654190438","0.4516468945508562","0.009515210605866341"
"0.0014369619502473414","-0.04780514706849302","0.06392032488812169","0.08540617278403087","0.18537194169357318","0.7892494278761693","0.4789464656917715","0.27626361092663104","-0.06280944467503503"
"0.03691107745996951","-0.19308120253337727","0.0665886306876428","0.0026648727851110274","-0.07071323649558058","0.4334682916100065","0.5560178066488065","0.1667117238184946","-0.059295603605414034"
"0.11332041973690879","-0.1644126020598299","0.04266474958729245","0.050425628838346684","-0.09876507127801318","0.023794079227051172","0.517844365900022","0.14515490980901785","-0.06317880657351613"
"0.04797579723626217","-0.014382337016415751","0.16267655300073852","-0.10783596406392937","-0.16970000269312452","-0.334203529834145","0.4802839293092473","0.20314986353341183","-0.06822239426693491"
"-0.06925901040391777","0.04731643832881029","0.00571036646565838","-0.16670810206906478","-0.15745350166235006","-0.5976660138249678","0.4044107328428673","0.29997082927120244","-0.0468598749083228"
"-0.048221407975098184","-0.05581158085291704","-0.006114028290207118","-0.1192445468171731","-0.1003207143638063","-0.6943045189144536","0.294627260908406","0.42466789537742905","-0.040557841808574635"
"-0.2367799461746419","0.047305012437317204","-0.1259465678155739","0.10617364439333218","-0.009510408225191008","-0.8739424432420208","0.09097056132237165","0.5429005558137391","-0.008926734803251478"
"-0.07375537668961973","0.1461639030702663","-0.06489151800811037","0.06340830718665821","-0.044185931937225226","-1.004460243435706","-0.15409178275468036","0.6318850787598349","0.006225274757890972"
"-0.012308246849470215","0.15000715748157517","-0.08979845913986323","-0.04562404769837184","0.18426384515707747","-0.6653517975252631","-0.3751076455425342","0.699114897726967","0.014349602179791419"
"0.08624054830111891","0.15209497947258352","-0.013857071714018716","-0.07800805597439373","0.015555309821635324","-0.19326226456363058","-0.45970221934787014","0.7241018045408891","0.0384856044663788"
"0.1650873640018019","-0.00258894730422148","0.09169383602740963","0.15652544844351338","-0.08889032762880945","0.42264439073860754","-0.4211944126947166","0.7135080948410055","-0.08336786644934319"
"0.11827797648317845","-0.15271664404054935","-0.04595935139494465","0.051251667994657496","0.38789034519623206","0.033590680269108594","-0.35529646570867585","0.6996294116476338","-0.10422864199010709"
"0.054918687447439204","0.06900901268712778","0.2420524547799914","-0.1594971075693352","-0.21356435111838043","-0.2888936129576834","-0.36652558733039875","0.7160938571089721","-0.01647413855186067"
"0.030195412611410382","-0.07967403587751136","-0.030862358055548832","-0.23704658780340968","-0.03594581017663181","0.17699765928073088","-0.3999621777672903","0.7261334748942915","0.0602387322043581"
"-0.07333173618304396","0.3718771959290285","0.1063509306552745","-0.37805089413590565","0.23285256196903437","-0.4554506346626408","-0.4986558472068489","0.7474528209403836","0.15939115546564492"
