"AccX","AccY","AccZ","GyroX","GyroY","GyroZ","MagX","MagY","MagZ"
"-0.010854389656448834","-0.04741251188809444","-0.1705291663405448","-0.031273302169270475","-0.15236056552916885","-0.7916225514129058","-0.683253690243855","-0.9086223703751712","0.15332773668969427"
"-0.13064837108407967","-0.03262325342641448","-0.149071196327368","-0.056470384685548526","-0.19844828691858143","-0.8196287881967499","-0.39491882537639256","-0.821432049819093","0.12428543166310584"
"-0.0981532185910517","0.05787188463359971","0.11523771072906658","-0.16218317895174444","-0.14676743031147885","-0.8923867586282611","-0.09435174117410036","-0.6837797870437683","0.12956436499095506"
"-0.04864504848167396","0.07382346787534849","0.07642955726250204","-0.10888536112730791","-0.06645077444050741","-0.9110737623748467","0.06352469333875632","-0.5415628623056047","0.12962973877829684"
"0.01737547319082763","0.18858512203184863","0.05795381137820178","-0.024408897525335642","-0.09225769658528779","-0.7736878815833905","0.16060226090719876","-0.4016018832195956","0.15022248179095943"
"0.10197792658300904","0.23095440512300794","0.007740096295201226","-0.03169209824502246","0.045828363600875","0.021860095683459733","0.1500975987449418","-0.363923633029225","0.11528019245677482"
"0.0634117167849503","0.03968290409402408","0.20312245143558497","0.13532570226406807","-0.16133542948566765","0.31047383058702477","0.15299543658280587","-0.4180399433516691","0.06049368997499105"
"-0.014089462615754715","-0.08531531012286774","0.06679722115649082","0.24983513962025458","-0.020115107476189976","0.3811204122835322","0.16241340955586353","-0.48964972697678527","0.05307049642233127"
"-0.15475736718557367","0.10650567241519247","-0.011577033321858258","0.10567301460162865","-0.10874990659174996","0.6936787515722027","0.04925841475234917","-0.6168665920278161","0.054606780424863235"
"-0.1770177501674642","-0.09435007414166897","-0.08089928755307027","-0.16548541007778886","0.2791149940434668","0.7986171985854966","-0.17947572766135383","-0.766906766893042","0.021053684071691576"
"-0.08010035609492504","-0.14901881006642512","-0.0772252039483117","0.018649115559565013","-0.04453774660431997","0.8307005998231412","-0.559231803548351","-0.9071711772655981","0.00231265358548508"
"-0.005664793450895609","-0.13766562879193703","-0.0280205710740155","0.09629775900238079","0.060441835419110086","0.6970035821089329","-0.865594563426371","-0.9561687337106389","0.10303895077702538"
"0.07560967491633316","-0.14497819934750852","-0.04944962755685695","0.17508726072052092","0.05860138998376407","0.3987881249166677","-1.0301861798519705","-0.946881097809371","0.24159869304794077"
"0.15125357582343668","0.05507254121779499","0.10150997957626715","-0.16865285625991305","0.1989586890751848","-0.0659236818904685","-1.0185669646751505","-0.9289126885799296","0.2742855867188338"
"0.08291458519676585","0.11939615545420415","-0.029563314442624077","-0.25528106521661104","0.062437845163035424","0.2642416979412512","-1.0877807068795162","-0.95723733954587","0.15027151213146578"
"0.09295496148454498","-0.06272840007586457","0.0643870718778212","0.11495392074013241","-0.32492924968472753","0.06929499184310442","-1.0821243503306088","-0.9594273218748622","0.07685511460195656"
"-0.06783403779089017","0.31746917807379627","-0.3597207215856929","-0.18628080142547365","0.3346634186915566","-0.07428429590436297","-1.0099013149869227","-0.9723297478854303","0.020862465743716852"
"0.05117524588024238","-0.5351620066621217","-0.11194828862892206","0.30146740063767746","-0.0103506948212248","-0.28882080644957986","-1.1111305925346122","-0.9948100484191809","0.09407783887715006"
"-0.03041887850558448","-0.03269180877537296","-0.17233213148217172","-0.10541946256936045","-0.12264299599641007","-0.859672367653719","-0.752913253654046","-0.9367491313716243","0.09476753233360591"
"-0.10692450271583642","-0.024855724645936685","-0.1273034384891694","-0.048590279214215194","-0.24213553136176244","-0.8100425979631118","-0.4556062370193508","-0.8511683159007091","0.056599046594104155"
"-0.0831332369942743","0.04454825643525943","0.10987012034752217","-0.11900385941731564","-0.17928037080455508","-0.816231151151916","-0.18228997402312558","-0.7076585100285621","0.08499578547069245"
"-0.040210751123483573","0.04936375034088861","0.055927799002559196","-0.055959164648251285","-0.0680016309321904","-0.9043512947932829","-0.02112560811730767","-0.5723677342224518","0.0962678607530999"
"0.012349556271905983","0.14843869419479777","0.019395966474254865","-0.04565389293595416","-0.027685345391070322","-0.7479629153867922","0.11512849791302607","-0.4427102262144118","0.07083092009841095"
"0.08689526544764511","0.23455875453037056","0.042255829658263674","-0.045450752770474466","0.04226235098882616","-0.0074556874928072515","0.1511285602834126","-0.4012720666037836","0.07446897136398138"
"0.06749407075740775","0.02755587835023186","0.19945043308299323","0.12128881310438085","-0.19885275412088765","0.30049933897683423","0.16603570685319366","-0.45255195403024384","0.017871614972830137"
"0.0044197762442740205","-0.053689481187429465","0.03126662287865695","0.27168955552731217","0.02177094160334812","0.467396124386275","0.10086221932661861","-0.5203358649119401","0.02204246260523609"
"-0.1769888655874704","0.09518261394554973","-0.0070875881616423025","0.10387267285069483","-0.03346874772463814","0.7132394334160314","-0.028676704790972347","-0.6614314131563427","0.03447492261296024"
"-0.1675628643161595","-0.09290937309613238","-0.04284288587522532","-0.14221575225956937","0.29469535787194867","0.7349357728308984","-0.19886895011475106","-0.8003897497302831","-0.03163105114705375"
"-0.08608909234697346","-0.15322561557069567","-0.05392089849800495","0.06766847416413531","-0.04986043925478753","0.8600173537528494","-0.5549965020930114","-0.9102186827957017","-0.014836525178948934"
"-0.01081587688312375","-0.1202255635038624","0.006582522455703093","0.0772083599448857","0.04777411410664394","0.7552487885917972","-0.8927060655056174","-0.9553639811680574","0.08757968441537654"
"0.06250281533447866","-0.14160236777000745","-0.05157064153217289","0.13473842500841585","0.012089815685899258","0.34838175247295555","-1.1469077443020863","-0.9559180730826217","0.2354535570378129"
"0.14158012998351216","0.041782151976525496","0.14156348009941933","-0.14301483442709614","0.021596230918328276","-0.12009900457034267","-1.1411956601024507","-0.9265116236168178","0.28713153593149476"
"0.08791883868069217","0.1770034229274989","0.0002781336912927428","-0.3347079071695737","0.29089001555439314","0.044703380289318424","-1.1141956133246609","-0.9259839170315185","0.19743869969856434"
"0.09366099690152681","-0.018432296192008542","0.11716046049636857","-0.011266402743518745","-0.36743420538270577","0.1313164292129411","-1.169031621641163","-0.9500077593272694","0.07892419497132408"
"-0.05026258496132692","0.2006861798404293","-0.05841075670865427","0.09012075757243886","0.10580438780083755","0.0338163804442297","-1.1710099532420124","-0.9674220766421467","0.042238059859797325"
"0.026538624784194963","-0.4194696617076397","-0.16702856391779847","0.4643935153491911","-0.11545831823710094","-0.2782881316105952","-1.1975363149886133","-0.9646780023985903","0.16818392986311512"
"-0.07029885528369467","-0.003952679389791058","-0.21348021565373426","-0.17129079016235085","0.055442237871076494","-0.818439615231058","-0.8458391112432408","-0.9200208326176363","0.13461449006310802"
"-0.07757776944213295","-0.0632996946505186","-0.1600438810896402","-0.020470288914068123","-0.2240996447547825","-0.8572454840502663","-0.6052628430498053","-0.8411682761092871","0.1516443616656433"
"-0.09112463745922639","0.09371802239961849","0.12382915974300457","-0.15004290650293403","-0.2532260699149399","-0.8321515075905657","-0.3346493711138953","-0.7094263270893147","0.12454692681247295"
"-0.027742240759492096","0.06001371992984807","0.054736148502308665","-0.1122453572293181","-0.03465103646984091","-0.8484116277336986","-0.19042621102943583","-0.5854548575378747","0.12899234435171442"
"0.03230206131229172","0.15624984910643094","0.017139885007229422","-0.030609967695263307","0.013386264700628698","-0.6343847627452068","-0.006970784832356935","-0.45467597303607354","0.09012599343233911"
"0.09400135353578713","0.20912056519713962","0.11637359942081318","0.009147932312711701","-0.023708882334077596","-0.027484272495381518","0.014707271300894529","-0.43300042504490455","0.10430556790677249"
"0.07343081476546733","0.03472718333825254","0.1350765230434628","0.16508429238244476","-0.19279292597745964","0.2634893640241809","-0.02396771830444352","-0.45697149668212556","0.11952948863399092"
"0.010405624038323062","-0.01399801157528486","0.0243118862069175","0.24557978639077463","-0.0224717870863138","0.4242218650808518","-0.04051883057070475","-0.5277765277646603","0.07961061973841282"
"-0.18910113279820495","0.03581472046491211","-0.027778936570498496","0.08913971573061985","-0.0977048406826188","0.828346522727792","-0.1509153066631754","-0.6543733375779645","0.06586578094980232"
"-0.14929818156674493","-0.05722943011546748","-0.08071548011022402","-0.15455820212426005","0.3043882109449673","0.6743122204166504","-0.34025000001207456","-0.8123291112226799","-0.019901359353253798"
"-0.10303471261000437","-0.16656274709534596","-0.08065352254521965","-0.024268336083818884","-0.08138973465823153","0.8871256436034158","-0.7086654989758929","-0.910416572765189","-0.01009038821793527"
"0.00041926191513235573","-0.12493095336419463","0.004598021648613429","0.04139118659729696","0.04119254720521149","0.7114920772215455","-1.0695856289167744","-0.9204166125566108","0.1103608149593054"
"0.0647394446453321","-0.13774872618461398","-0.02731012432863217","0.11621512271538553","-0.02968015848646812","0.1742164506711741","-1.2263196465897042","-0.89049564917014","0.24458954381882747"
"0.15398413145218415","0.028571743975707557","0.11439095734067366","-0.09020127965117278","-0.052478706233030095","-0.12927019770779033","-1.1783381393127645","-0.8589651806985064","0.29530325934921803"
"0.08805074492933053","0.16531785208230299","0.003718017700334831","-0.28426945565544387","0.12016656342829068","0.16851084731945684","-1.2169574012673745","-0.8635694206552428","0.17717282562261066"
"0.0722927623137115","-0.007253619442142002","0.09173307581857906","-0.011660167329685554","-0.11564978200150623","0.1408613624253205","-1.2711135322449933","-0.8852449686464118","0.08084128128512194"
"0.046083857246668095","0.0783907083203553","-0.08870181023928604","0.008185375263201735","-0.14390504703361948","-0.2335461054973416","-1.2303320374421312","-0.9112081326431378","0.023173429126248986"
"-0.07122316184349639","-0.48900140503007655","0.10239597275582948","0.630939568554561","0.01774541595672653","-0.031352724959285094","-1.2676500587522386","-0.9218150350076539","0.10835057099854549"
"0.035313760186312215","-0.004201971567821905","-0.17622513181661234","0.011176253168790512","-0.4235570213240115","-0.846906959899558","-0.9460931549031877","-0.8743346349953488","0.14857179366057932"
"-0.14989512955328352","-0.0661426641974787","-0.14053137861760032","-0.0140805198226522","-0.29989536248873355","-0.7934912517875645","-0.6326251195573283","-0.8075137886318237","0.1032301691050001"
"-0.13377753391674163","0.10649840139333322","0.108949017881124","-0.23080797039910422","0.025119164183385938","-0.971430357592715","-0.3591416736089184","-0.6762203902093556","0.0845365346146164"
"-0.011191376423043199","0.05773373521827428","0.06134289018394029","-0.15931418514544352","0.03060460103359799","-0.8524645233514646","-0.19307327443902308","-0.557037857919507","0.07061028356613246"
"0.0269824844967664","0.12839144821148385","0.028437227410124496","-0.0285198383149011","-0.1695037523346091","-0.7782018850858126","-0.10454990125735232","-0.42959671756972395","0.10017557889145516"
"0.06902591631641242","0.2548968413880538","-0.032314230328817674","-0.15018731894284854","0.05116302273661789","-0.08250657755286066","-0.07629598233817875","-0.38406883192302615","0.1153128793504457"
"0.09198501728835308","0.034112262632443116","0.1318485339067356","0.08977224221744524","-0.1717127655164353","0.2653095267267704","-0.08181301976026613","-0.40590269188978495","0.09177177852866857"
"0.052728273464575835","-0.03353940218067784","0.10489286262550522","0.22463998260317536","-0.15528996112457005","0.24245799071666","-0.04506063410504926","-0.4589899743708955","0.023835338723084572"
"-0.14660228743399006","-0.0051515670226377356","-0.019972283379949086","0.17725344731923806","0.17054785973449227","0.8874168696358302","-0.010676673605778935","-0.5529085538895399","-0.003098661661731258"
"-0.0646567339915719","0.026723865706053906","-0.04532944948406698","-0.11368948162846287","0.1477780315525911","0.6153146800167157","-0.12923725052992394","-0.676748096794655","-0.028591170035660706"
"-0.21481803718602063","-0.16018502220739014","-0.0775824925731702","-0.13797002652608373","0.011127231610351574","0.898143695163091","-0.3868940436715387","-0.7992551805718895","-0.05832643720807207"
"-0.03623430727767009","-0.11719250867115376","-0.0069151396057135","-0.021840281594056796","0.016397989714724177","0.8064317637886143","-0.7608544438828079","-0.8724480839529036","-0.0011815753479333829"
"0.026553067074191868","-0.14577801175202415","0.004529661801891952","0.0869706408831044","-0.09779099937660118","0.5304950980760447","-1.0109322765253936","-0.8868017030730448","0.10632398359095013"
"0.10118100102098003","-0.09020559168190614","0.03365611963565845","0.07369336115736731","0.01843468550858564","0.03408576452421295","-1.076328674654881","-0.8725668179345959","0.18382460848463741"
"0.1240991821712628","0.09219214652658804","0.02743248223097045","-0.2928764370743467","0.21398620128394638","-0.0586163353604725","-1.0399663825547614","-0.8596907772532929","0.15747897218589765"
"0.08731900223615419","0.0887010173167477","-0.017221367493755486","-0.1322609214014647","0.2628645070395663","0.09636202467241216","-1.0737930665467499","-0.878529902348478","0.04122966919005027"
"0.0867447767858774","-0.07571756126868014","0.11636533841214594","0.17042755265928045","-0.35575491575398205","0.07976699459200272","-1.0138858420139856","-0.8753768555013148","0.013859298774728022"
"-0.2371843302945551","-0.09086517723627945","0.02899319329343029","0.38713285999494557","0.3725971770143581","0.2127408009923819","-1.0023780821386221","-0.8957331370292356","0.01615228436574117"
"0.0235962489021596","-0.11988278675906995","-0.08831354283192538","0.10112883649231977","-0.14911286142544383","-0.6749865254309702","-0.910483186087898","-0.8907199244688923","0.09266086203651686"
"-0.2321199006023084","-0.05931621338906736","0.0028020783643537034","-0.19503219528429094","0.4243881252859938","-0.7220437985019177","-0.555916008330026","-0.8287275933608559","0.020514350326121845"
"-0.11560913310063979","-0.04451552903589431","-0.13135339798828774","-0.17648963799927203","0.031686371302487984","-1.0140221648333094","-0.272903134107102","-0.706946106138408","0.007867791164853343"
"-0.04076918633669709","0.06029105747790738","0.11894483836849415","-0.1639546382146954","0.046062906712271506","-1.0383880762119744","-0.001091517680536658","-0.5223939205946074","0.060841805392586074"
"-0.083373941827556","0.11814969456404992","0.07901938347968432","-0.020068822331105872","-0.1502688239030409","-1.1276731239829985","0.07857115903535747","-0.3681189003823545","0.09626949509778344"
"0.045167253241531424","0.25315179614183786","0.043515633480019","0.0260796169679646","-0.12093178860203764","-0.3635202837638533","0.0665897141288047","-0.27860667085095936","0.08032319402043829"
"0.08728048946282913","0.16544249817131843","0.09076653780451105","-0.018649729421546274","-0.15022813785310474","0.24443832773707735","0.09032969333899803","-0.3036991189819414","0.058440953052458985"
"0.053171170357814136","-0.047188148927866685","0.1883042671387088","0.1492663164638123","-0.16172075031153335","0.30918758227719484","0.12490870061581662","-0.3769447930214855","-0.02229077128059608"
"-0.028425842486012105","-0.06067277832451855","-0.049311255661680535","0.2766669709563645","0.07209958537433823","0.5750041433633668","0.10813467774664286","-0.46507179276647004","-0.012682458886037086"
"-0.09278068671220441","0.07889656369827622","-0.01876411086236406","0.004476382431398236","-0.054838497129325516","0.6912761368047847","-0.00019987526888624955","-0.6060486070291802","-0.019716678404013255"
"-0.23041571038267405","-0.13351075915808958","-0.0893131248806624","-0.11508546854763615","0.1899072396129239","0.9246209952767597","-0.19087203223526117","-0.7406401716097688","-0.07594630724136693"
"-0.05407534952050886","-0.13915099468603745","-0.04730383055553926","-0.01544377325544487","-0.0025629062040389205","0.8798692616290924","-0.5445475675814828","-0.8490311042302467","-0.05119906004313384"
"0.004692254115548891","-0.14648433958977822","0.002969363789865476","0.10023347936485","-0.028132413280956715","0.7464392011112639","-0.8467028898295272","-0.8954033204134235","0.05091479578473587"
"0.0969580754258861","-0.12851452842338804","0.014344153149016","0.10817616356014627","0.055588228991435555","0.3012031352218355","-1.0536753846338867","-0.917606574989892","0.19224148360489235"
"0.1656737209756761","0.03762208875563574","0.05692325054696259","-0.26557285843451617","0.28392552112415015","-0.1211377107526204","-1.0455670114529405","-0.9085564070520089","0.17537504647071156"
"0.07750835464125913","0.1625756381239637","-0.048483089542788925","-0.21672294375944545","0.22751550953623642","0.205224742472489","-1.0554029418064597","-0.9143875648195662","0.053142407588407235"
"0.08768121486927648","-0.059061727623994205","0.12566723417146725","0.20134144229697296","-0.44559928720117253","0.11391324689258193","-1.0827373544886185","-0.9380683978348725","-0.004906246881731645"
"-0.19833457020289055","0.03676306945883778","-0.05312577641378233","0.22419711778743762","0.002945506297901773","0.5922350169478808","-1.1435362214330331","-0.9675803886177363","-0.019069477909329575"
"0.00989436697243275","-0.15099237314250266","0.005062496860929451","0.15650619345152478","-0.24793688342324324","-0.7496374650731745","-1.041387437648329","-0.9660764248496334","0.07670965792512106"
"-0.20993654316706795","-0.11189504988799825","-0.1402319170534126","-0.16543727259781735","0.24718841132888178","-0.6872422876284062","-0.6888543191420345","-0.9078440031618548","0.03970972863435376"
"-0.10181193205693335","0.06212023883420872","-0.06095308212599986","-0.09869947036534009","0.02759144004126947","-0.9558740336945832","-0.39277331082335865","-0.7898092326950319","0.10911871299981149"
"-0.019664186554558635","0.038722090491196855","0.12021083794674992","-0.12398127484636799","-0.04775673114338421","-0.8627059721580348","-0.17894631497943647","-0.6594657061261027","0.09497019107436544"
"-0.03710084467748417","0.08973454113816728","0.053649825862565545","-0.027161398630105586","0.018276727902951262","-0.87270473260426","-0.06311639294097088","-0.5342409334345768","0.1310516186529807"
"0.052214127940686146","0.18940570878453353","-0.04312376016991175","0.10142728886814303","0.02715585997724739","-0.43113326095604493","0.05430176714324725","-0.4019316998354077","0.13281671091120892"
"0.10271400196318445","0.1512328440235602","0.13453749222792485","0.1325337284257215","-0.19145028632956745","0.034037226852143894","0.06645039500198434","-0.39665463398241463","0.1452867608466546"
"0.0639730404561632","0.017642359403871863","0.09039066191015126","0.19104002158307354","-0.19320217977387602","0.28266174449145703","0.04574757275647574","-0.43852815152591473","0.16339529994032928"
"0.02914112544163659","0.019055015079379994","-0.06017448205911173","0.1856004863462949","0.06428068389543651","0.46431398220989006","0.012896122652229452","-0.5222356086190175","0.11923530659095286"
"-0.23133038874914447","0.0376750633434673","-0.03518080033635275","-0.05633559974162835","0.009395441861305568","0.7563166173773165","-0.12594931913696306","-0.6738457105755088","0.09177177852866857"
"-0.1986523005828224","-0.0904663097514301","-0.045271622423396246","-0.2529319561940022","0.240487179574696","0.8056551610355094","-0.35306735967954966","-0.842395193920108","-0.020378588000848845"
"-0.07754888486213914","-0.1723691774086478","-0.08078156817956199","-0.10032651718837654","-0.07240529751351246","0.8762046673878788","-0.7188636590591446","-0.946142308589952","-0.0633683905568073"
"0.023473970846852505","-0.13964957904209918","-0.022886354187320837","0.15225084022204485","0.022809632525246915","0.6457478004040124","-0.9922913773568264","-0.9689524257395146","0.061430169478662144"
"0.06237187190517341","-0.11857400282440803","-0.0032825675695078486","0.13874346334204404","0.009837483827376321","0.0662492529207713","-1.0469602027211444","-0.9541238706926041","0.1946766571833739"
"0.12401060279261514","0.05124279013279612","0.16356254618030086","-0.15707097857877195","0.05440115365212263","-0.320661519326879","-0.9307680509529457","-0.9255881370925441","0.22997850234793835"
"0.08407574531251671","0.15362189406302243","-0.00045668302965897134","-0.2268799520334304","0.14238832658458167","0.21937590076422153","-0.9324120166494263","-0.9252187424828345","0.10730459040107694"
"0.06809487002127884","-0.016619734314242594","0.09219156179961134","0.1770608973993521","-0.15033344292352765","0.12990398295573163","-0.9743470738223612","-0.9423032431818995","0.07911868198866588"
"0.008681214612693043","0.1748740522401521","-0.3319430799420713","-0.09305198121508457","-0.09389949836506331","-0.19838056208331228","-0.9482943971069498","-0.965601488922864","0.030849946104858195"
"-0.08502036288720276","-0.4013128814077263","0.23517516506450745","0.2484391527010813","0.05492289241012709","-0.22316875120897792","-0.9500776819302508","-0.9838997147681177","0.0681751099876509"
"0.003491618407139837","-0.11126143226883652","-0.15365812138985746","0.03296905310148462","0.015323877996410407","-0.846858422227489","-0.684256787956962","-0.9268018622387325","0.09192867561828885"
"-0.09427305667855089","-0.02050661485670688","-0.24390138007087517","-0.07236345507293651","-0.18774306919126965","-0.8692585578873571","-0.36320979211207377","-0.817118048484271","0.13686988572639963"
"-0.09515885046502749","0.0727639761187174","0.15252170809652385","-0.15257493794943455","-0.10487515865959755","-0.872292162391673","-0.09315359668344496","-0.6786742258309976","0.10504919473778529"
"-0.03486710382463008","0.05908302913186624","0.11253842614704328","-0.10183803405948141","0.026945249836401557","-0.8479262510130081","0.09456499479433754","-0.5479481119877264","0.09488847384018823"
"0.014523602326106192","0.1451771215322275","0.01980653860501709","0.08869685091488212","-0.19158670426170624","-0.6996436628420494","0.19086237525258537","-0.41478135518744585","0.12315773383146002"
"0.09537744381127188","0.22418196761983664","-0.00802459306972491","-0.050363663976364985","0.02988900521413316","-0.07294465615525711","0.21936706860003571","-0.3693722035224404","0.1252987253669035"
"0.08128838334311478","0.05076186397267828","0.15738331169719932","0.07366929241738157","-0.13304665829478346","0.12200447682649317","0.19576640851666308","-0.39153588010501134","0.0942183925199349"
"0.010836004280230712","-0.032795680516219144","0.07349070342912856","0.19843393850669483","-0.14500357038189493","0.27979802183938285","0.20256518190549772","-0.44921420987822575","0.02803397021511078"
"-0.11534917188069553","0.016158032227179864","-0.013712504062341877","0.11784216953842197","-0.009412043716227782","0.7461722439148842","0.1714691527991886","-0.5709033484482463","-0.01383630623261961"
"-0.1499047577466148","-0.040807307887685475","-0.0373906201548416","-0.10023024222843355","0.11486062385720858","0.6782195030182092","0.019862078993248714","-0.7052706377300827","-0.04084385212819495"
"-0.13286285555027122","-0.14843712831768652","-0.051917603896197304","0.034118576123203855","-0.030408917439735825","0.9096713922794912","-0.28326847714253844","-0.8456010114258014","-0.05705818573364142"
"-0.03486710382463008","-0.11842858238722337","-0.010262500317682407","0.095382184133323","0.07055112217971032","0.7759986434013176","-0.6903589657116944","-0.9430684177305836","0.040410862503594394"
"0.0375118767238406","-0.13739556226573693","-0.06613686506469801","0.1021397235717211","-0.08007342127794503","0.5691796227150803","-0.9780250987704192","-0.9604299643869307","0.1554196978846314"
"0.12284174012219927","-0.011499896207934087","0.06509958387537133","-0.09392134410336973","-0.06845396407559794","0.052661131625039756","-1.069056216234857","-0.9395591689383432","0.2469103132694609"
"0.11035975028754401","0.10280679972365978","0.1386907143353838","-0.5942651991758615","0.22417207355030874","0.20342642172233055","-1.1150872557363112","-0.961498570222162","0.09110006286373172"
"0.109531725661055","-0.016483662333734092","0.037266180423245844","-0.10475516534575387","-0.19462619152164048","0.13247162580818456","-1.2766918700828815","-0.9788469242138768","-0.0813331073183301"
