"AccX","AccY","AccZ","GyroX","GyroY","GyroZ","MagX","MagY","MagZ"
"0.06930320828435292","0.0037390853429135253","0.012630819951428753","-0.04164018985593112","-0.027286382771990764","0.30540164385580865","-0.2671631860821021","-0.8901394472250629","0.31934446964415975"
"0.1141522956407303","-0.017602360982647516","0.028864321558221214","-0.009265809075903514","0.05976931894663644","0.05534526489045842","-0.29173908005321775","-0.910772774710266","0.31069878626820857"
"0.10467776827502978","0.013622626904865312","0.0520946909809561","0.11111254983840733","0.13711349987521546","-0.19403644043313198","-0.29095889294302346","-0.8947964578403294","0.3512795647606222"
"0.07042681844611184","0.04358432668020682","0.03273501716926029","0.10450808758631853","-0.006235899194449238","-0.3803385871357804","-0.2513643971006709","-0.8502976000349651","0.4017317851416456"
"0.052050448654054594","0.032484592453383386","0.013374723781914441","0.06646792541364628","-0.08645155792969685","-0.4957369024799553","-0.17593702184011614","-0.7962208677064185","0.42054309244924437"
"0.02549300298841931","0.0350387985607911","0.004477617447288289","0.0722193915206402","-0.10643080174539067","-0.588371049623744","-0.09114740125723161","-0.7339119126472027","0.4414790478454515"
"0.0051563330341159825","0.05711985322987333","-0.017518763805776414","0.02899482275503819","-0.07367374495269764","-0.6972410480746312","0.0033388305523514347","-0.6585817975957264","0.43874969222393184"
"-0.010892902429773883","0.07326671534441294","-0.02366701950637578","-0.024543682469255822","-0.07310174695653679","-0.7052983016380941","0.09244734406666778","-0.5779218460327271","0.4151497549935471"
"-0.012471926136101773","0.08195662518360486","-0.048080365370260586","-0.012322539054093293","0.038753777506098895","-0.6719286520906198","0.16820908523159164","-0.49453101289080387","0.3864996926910094"
"-0.031978645825249834","0.14875030941733633","-0.032330752346152174","-0.0641454244922033","0.0717046913602523","-0.5463131567759092","0.19169829001350788","-0.4253222942287995","0.3740459862023992"
"-0.007715598630455589","0.1617550513712788","-0.01597602043716784","-0.17376505663288558","0.12168152046414767","-0.2221300450267002","0.17790569645829002","-0.3973274598786713","0.3680806281074612"
"-0.009400532463427418","0.11049434726368602","0.05610954119323865","-0.08947825470200098","0.06467318461246739","-0.05311701711504873","0.15622764032503886","-0.40623250850559706","0.35757179179226917"
"-0.0043361027711806875","0.10412285468018094","0.05959568685081733","0.034011710917667144","-0.003751656851290374","0.07273388590919687","0.14636384614615555","-0.41095548244402585","0.36662606133910647"
"0.0006532270130821592","0.07725019660586417","0.03151445313867439","0.08095538138586668","0.016936481552114108","0.18152622408477356","0.12485297296508871","-0.4349133614166145","0.3847346004327812"
"-0.0029977838981344873","0.08490554390622809","0.013987897150240928","0.07377904587171658","0.048645274234688084","0.2631496003196975","0.10442878897322055","-0.4484754206588067","0.4176339589125351"
"-0.011672786089606566","0.09429554927872331","0.01328385268657471","0.015839812228428708","0.02498274625124715","0.3675298641041972","0.09105415279846381","-0.46909555547937726","0.44523804061760414"
"-0.010767735916467404","0.08719799322670342","0.019225789695709553","-0.03371290965422572","-0.038628696175361174","0.4921017994694233","0.06224295737200907","-0.5245839029235995","0.4526579654808968"
"-9.488360875733047e-05","0.09472973315546035","0.015331137159535461","-0.03329122532967544","-0.09685282693101517","0.5756594019362989","0.018245977122132214","-0.5911936666530047","0.4438325041897558"
"0.0020964931934391536","0.0894260420678541","0.02318425852383814","-0.02079954927707313","-0.09456244164931668","0.6362586855145124","-0.04163338358526799","-0.6740172152157311","0.4335688195770953"
"0.00971239411847179","0.07544075088032362","0.021373445423977365","-0.03226685975588208","-0.16917826393512006","0.67355988649958","-0.10694619023866281","-0.7434238238472227","0.4114724794555717"
"0.027681491332616426","0.046394057270096156","0.017097547337809774","-0.05536033439740591","-0.18790581339101417","0.6195131886506889","-0.1634540280770098","-0.8033712919372241","0.37839334306062805"
"0.05560999172862421","0.010839071993669217","0.016363763242941465","-0.04801551770335559","-0.16140722839731964","0.4648964342747187","-0.2143891008425415","-0.860020593869105","0.32851314331884524"
"0.08619279246219584","-0.006188103124541827","0.026395106067580776","-0.016357422625303798","-0.1215612257275201","0.24387043697386943","-0.24445416841037984","-0.8983320919618347","0.298196049439092"
"0.11732478534338295","-0.022237118059204336","0.016615724007292533","0.018749241517905718","-0.06871004686049005","-0.02568109797801618","-0.2559062006350154","-0.9168545931058404","0.2721445951833903"
"0.11747883643668323","0.017827251102578073","0.0044503561186863706","0.11127621727031038","0.13142702607237783","-0.24741817217467713","-0.23729316529181232","-0.8950603111329789","0.3102248263099806"
"0.07759211992324115","0.03733644146830873","-0.01931140268656924","0.16045346680918718","0.12171263332586353","-0.47435605793353713","-0.2003457328590472","-0.8431207904748945","0.3804526173618943"
"0.03290382339549595","0.06281410206306123","-0.0017705964581847741","0.10833020349605504","0.01766883045096441","-0.5830804433682172","-0.14088432953210792","-0.7648750965396396","0.4484740430910225"
"0.011508052174753194","0.05455422123097253","-0.007013032558420389","0.016517587946427322","-0.07663425340981471","-0.6608863316949101","-0.056763440757961296","-0.6900858807380951","0.4600615468973542"
"0.0038748205017242817","0.05454279533947945","-0.017258542032758104","-0.03650295799337343","-0.06567055960055579","-0.7229174765991606","0.04159586277722838","-0.6014707524017088","0.4586723539163412"
"-0.025017462046743384","0.06926038229997555","0.0003677656353323832","-0.05284274419489685","0.028484139842809213","-0.7324308603246951","0.10899845633292932","-0.5232778291249838","0.4384881970745648"
"-0.04769185734187847","0.107458176278752","0.014802019554398223","-0.051073210431144794","0.06338319749978662","-0.6300406410950266","0.14742267150999058","-0.4626179571448282","0.41291070277709097"
"-0.02443014225353608","0.13972385513780278","0.05539909444785531","-0.05655606939989779","0.003886790029659367","-0.39174494007200794","0.16779112785113054","-0.41116656507814564","0.38582961137075616"
"-0.014224257322392473","0.15210536664666816","0.0410930926883485","-0.017140138049640267","-0.032860850272651294","-0.12298214229124445","0.1837292359593821","-0.3854144837155393","0.3648282821872074"
"0.00557804790202551","0.12514026272299825","0.010396877987631534","0.04501208784075262","-0.054704472494241804","0.05509286899569934","0.17826792618802292","-0.37015057073575686","0.36950250798214507"
"0.0012482493609544925","0.09477855287365805","-0.005373015812754968","0.05446532615755433","-0.04515043065041696","0.17214874584103243","0.18202954261217344","-0.3798735645698966","0.3810409814479703"
"0.006151888224569053","0.08597542283694379","-0.032101509355636035","0.06629655598494777","0.03209083850479419","0.24330497309426496","0.1859862058138722","-0.3974330011957311","0.39199109082771944"
"0.0021263405927660992","0.08780875906287898","-0.022673633214139198","0.03970830029749357","0.03902182677626631","0.32794739253188404","0.16375087317333928","-0.4301244241550233","0.4172907465289906"
"-0.00552037055092659","0.09754673476720892","-0.0019521321236475515","-0.024589894450028453","0.013668673753126522","0.39184723781079306","0.13521831600052497","-0.4733963641495666","0.4348272649834248"
"-0.005308550297638701","0.09956184653962492","0.003320663183440199","-0.07222674462981747","-0.013932981853248101","0.48331648082492457","0.0902182380375416","-0.539386072641245","0.44458430274418637"
"-0.007311214510542354","0.08643661336630087","0.01813678222814958","-0.08424763612829858","-0.05298608520870416","0.5951958149440931","0.04023053533438867","-0.6173415279545854","0.42609986437329633"
"0.00609797034191396","0.07528494326905434","0.010998155503477183","-0.06538929697466667","-0.07134028032400795","0.6237359661206966","-0.011763362794977918","-0.6937666341705577","0.3966489731758217"
"0.02356351304483329","0.06211816139939179","0.010849622567640063","-0.062079363851826844","-0.10569127295537517","0.6276917863943244","-0.09033935032167337","-0.7662603263260502","0.3625728865239158"
"0.043086600662644504","0.04115788281403992","0.01669441011484807","-0.06302093296006923","-0.07457841123951271","0.5659033298504191","-0.1662125467880535","-0.8318542548787544","0.3319289237074536"
"0.06932920440634734","0.01298807444003596","0.019435619315857654","-0.05767285893523642","-0.03268613958763144","0.38337741403474324","-0.24364611747482176","-0.8901790252189603","0.2986863528441554"
"0.0994132647253593","-0.006287196765309089","0.0232528248957763","-0.05678135280616437","0.0015583513247853218","0.13852912728240246","-0.278754537433558","-0.920693658513893","0.2707390587555419"
"0.1182943444118416","-0.011379404988552512","0.03833185054132084","0.040642167408940534","0.07126193140506502","-0.07813333329943893","-0.2831291580157179","-0.9279892020556559","0.264299740702376"
"0.09940912460222687","0.030114239327273418","0.04889355012239748","0.11155541465414505","0.16069226246172905","-0.2884082362369929","-0.28103937111341226","-0.899572202437288","0.31883782279226097"
"0.06502829044527013","0.05557320300867361","0.02194696595070106","0.10206270360376672","0.17322117254500136","-0.5098370962160154","-0.24640463618586528","-0.8456273967550663","0.3839337715378443"
"0.027380128881347755","0.047785938597435046","0.018172304565418747","0.09102092844790578","0.03712872880570884","-0.6187313635029371","-0.1637605301560148","-0.7624080682533653","0.443914221423933"
"0.0017344731241834995","0.053553936366623756","0.0015606552868830024","0.06555523879338679","-0.040873608813013405","-0.6490188708740265","-0.07640743763963516","-0.6862072373361452","0.46954074606191315"
"-0.005635908870901805","0.05938529589772864","-0.008376098988516316","0.0019338570142639414","-0.07894378506795373","-0.6788210015244254","0.00475988564591936","-0.6168402066985511","0.4628726197530509"
"-0.02245636262062623","0.07163281286090244","-0.014241208617045753","-0.009467023742184352","-0.05972560971577099","-0.6477811602362656","0.08386528585453203","-0.5409823850617755","0.4347618911960829"
"-0.03387539991150953","0.11301843056624833","-0.010949196663147406","-0.04464108035735396","0.00988893971406025","-0.5845608423663233","0.12691489604203027","-0.4716549324180789","0.4145777343543065"
"-0.011980888276207111","0.12351986356579776","0.002987538008933422","-0.05445823802274014","0.015035485701274913","-0.41317432229049517","0.16907286381787778","-0.4155993003946598","0.37515734058720956"
"-0.013646565722516414","0.1438267889012271","0.011858312378432719","-0.016268849662156252","0.04075696714118942","-0.23106583045461296","0.1757044542545281","-0.38178650094160665","0.36064435979733306"
"-0.006954971357285464","0.13275406132702366","0.03262349355225244","0.004629940992507297","-0.02074957052548806","0.02007779236508409","0.17500785862042628","-0.3696228641504576","0.36164131005429534"
"0.005061976739469575","0.0844422759420541","0.025343273139023414","0.02099437358377613","-0.0984012901256431","0.17539834298605556","0.1816394490570763","-0.38424033656324835","0.3519333026340401"
"0.0060719742199195305","0.0788072340011485","0.002932602301296222","0.07367410616537873","-0.03874357443400437","0.21069493811467133","0.18364564448328993","-0.4029079570182114","0.3558393864277118"
"-0.0033058860847350663","0.08429685550486943","0.00344623051518237","0.07749333382631694","0.006287984965007429","0.30634812846115517","0.17174779105282934","-0.4317603145694512","0.38437504460240146"
"-0.003768039364635892","0.09285380951577825","0.008055873351506782","0.026491673796520575","-0.022362892070308282","0.36935002680678675","0.151546517663874","-0.4701377759853434","0.40382374633658275"
"0.003005394643910813","0.09069119987136064","0.013000706614504785","-0.05164508369320612","-0.05394819062484084","0.46545461750351286","0.13212543138511265","-0.5192540664120764","0.40787692115177343"
"0.005904443655955472","0.08656956919458399","0.015458769743444442","-0.05574543423717786","-0.04149347275027558","0.5460514219741763","0.09331112265295424","-0.5876712251961318","0.3964528518137964"
"0.008660995406697378","0.08352508847038227","0.024415768390908144","-0.03880200403681191","-0.04954691734057383","0.6046606609975584","0.03961753117637899","-0.6605606972905989","0.3871534305644273"
"0.022796146036331275","0.07254792289775733","0.012963119025068807","-0.039567389968358645","-0.07374075727023949","0.606990469256873","-0.04531140853332604","-0.7409567955609484","0.36160862316062437"
"0.037227845020568195","0.06032221900016124","0.003695299926499899","-0.02305142059013955","-0.03523260765422204","0.5759263591326788","-0.12438894491657475","-0.8038198425347287","0.3463111569226465"
"0.04741254792638302","0.03729697020678718","0.009451983816271704","-0.03087761208390481","-0.01643421660549794","0.4782928317657775","-0.19828380978210533","-0.8501920587179053","0.3372405439289737"
"0.07102087797465105","0.017459545139982578","0.007723367752650048","-0.023527981641857328","0.045904949106637116","0.27217760732454144","-0.2582467619655977","-0.8878703089082759","0.3302292052365671"
"0.10007703237361688","0.0029286987951797515","0.013035402850907226","-0.03117895270852635","0.0884218712898907","0.05438421898349116","-0.2852189449180237","-0.9056408281682301","0.32678073795428797"
"0.10241610566151503","0.014271098182968052","0.0323240319880647","0.03719648659258109","0.11966636434378182","-0.15732254528009987","-0.2945254625896254","-0.9058255254730849","0.3402804250403667"
"0.08591800382452144","0.034848713275042575","0.02939963491985889","0.08385036943135224","0.0871629970389258","-0.3557299873967702","-0.2724851767266409","-0.8708781568616382","0.3792922326365776"
"0.0562069397151628","0.051476501549700036","0.025759214925419355","0.08352207181794667","0.017087259266583287","-0.48717000335976735","-0.22054700624800253","-0.8196114620998104","0.4190558387872188"
"0.031822577284394596","0.04907187074911083","0.008754672074669295","0.05923960142112697","-0.03189874485651462","-0.5706305304825049","-0.14046637215164684","-0.7560228185712436","0.443472948359376"
"0.009919400275094038","0.05662230759122009","0.0037659315506048696","0.02201103716077405","-0.05093981622662244","-0.6435098450941888","-0.058100904375437065","-0.6875265037993935","0.4484740430910225"
"-0.00838957216364432","0.06650258758050931","0.009153389657994022","-0.026851393259089168","-0.055207064875805734","-0.6683368643575098","0.042543232839607","-0.6053362031390261","0.4331929202998801"
"-0.019625673781233567","0.07421921920797246","0.021357336457076232","-0.027981661288819817","-0.042395745740035594","-0.6296523397184741","0.10986223491921547","-0.5343200894223717","0.4077461735770899"
"-0.02247561900728874","0.0935684470928","0.00043075582642014955","-0.017189238279211188","0.022524830175694018","-0.5672086246016366","0.14937313928547571","-0.4738053367531735","0.3817764365555654"
"-0.028820598412594062","0.1324424461044851","0.02424393941062938","0.0015427881269755362","0.03446498918342001","-0.40074867824081745","0.17400476090731914","-0.4149792451569331","0.3645014132504985"
"-0.011345427516343463","0.14699487699703578","0.02744466721875464","-0.031678619750630445","-0.03839415306396468","-0.18149430597048855","0.19047228169748853","-0.383356428032872","0.3428626896403673"
"0.004575752976240551","0.12479748597820582","0.02105167913638805","-0.004147928480294369","-0.02570943934240755","0.02940915982035964","0.19615650207175991","-0.3716941124977573","0.3315530244302383"
"0.002702106553975891","0.09056655378234521","-0.002506239280003213","0.05326959115506245","-0.008327880150282727","0.165348617984158","0.1992772505125368","-0.3832772720450771","0.3384336155479613"
"0.009108706396601319","0.06945150630313253","-0.024185397800245593","0.06965366383815966","0.07243943355615767","0.19771353771980293","0.18788094593862945","-0.40016388277465503","0.35784963038847173"
"0.0036774425384332953","0.09109422222584386","-0.02942494254744767","0.04074325611688066","0.12171502662291861","0.24441405890104284","0.1613545841920288","-0.4209159442415503","0.39823428751886"
"-0.0006398393513070694","0.09409092194925632","-0.018307690133498603","-0.07725037203964244","0.08154114225657495","0.3340874080486193","0.12747217254931173","-0.4666153345284704","0.424955823094815"
"-0.002314182171614511","0.08680847419853022","-0.003798880611210852","-0.10006657479653047","0.05137123958040865","0.4464763877245129","0.07271975570890145","-0.5360747138184919","0.4350887601327918"
"0.0009054856783613627","0.08162008074326323","0.02578998718270485","-0.035500735660366954","0.015355230187831777","0.4956935872025332","0.015292411633540254","-0.60238104626135","0.4409070272062108"
"0.005648333713343753","0.08473311681642343","0.03636779573068262","-0.04744268169169482","-0.06066378216135699","0.571193936105946","-0.0331906444999526","-0.6652177079058651","0.42940124063405655"
"0.019490787265707115","0.07623433098038847","0.03171478259885516","-0.0730989957669009","-0.08494617408206011","0.6296332932770866","-0.101930701673129","-0.7351124451287585","0.4125184600530402"
"0.03337753050739431","0.06039700665357049","0.03451732978921906","-0.07832576334220556","-0.09354289710385842","0.6037869829003156","-0.18320948026014022","-0.8011285389497022","0.38024015255303345"
"0.04213437234218215","0.03217505466566175","0.026589033246044422","-0.03740120336964148","0.0026063761051988736","0.4608435386569527","-0.26696813930455365","-0.8581604281559249","0.36056264256315584"
"0.06698281369151743","0.009454773303412097","0.028018807321128377","-0.003639596691795408","0.04464368155861716","0.28712721032181","-0.323615296269721","-0.8890576487251994","0.36080779426568754"
"0.09496309451126078","0.007861796285794987","0.02752355985152686","0.005058460839213523","0.011073143096907075","0.06951341136741516","-0.3490271050017586","-0.9071843699302305","0.35806209519733256"
"0.09767325762653264","0.01162091458701846","0.023448817326406756","0.03505918248184682","0.009120212699972938","-0.16518564815528652","-0.3397763149808854","-0.900390147644502","0.36337371541885266"
"0.0774351803719415","0.031798000246390096","0.018194815814036997","0.0862004412035605","0.01983955087990958","-0.3536428674978009","-0.2941353690345281","-0.8694137710874327","0.39032405925050395"
"0.05561961992195548","0.0350741149526788","0.0085709472419097","0.10702086404083044","-0.029765359861628482","-0.4899609195037379","-0.22768014554120594","-0.8074082473147639","0.4368048220505137"
"0.03384449788396078","0.04551218619031203","0.0014123701813058996","0.08265174618006206","-0.09731233996558791","-0.579658537487349","-0.14670786903320016","-0.7425663006461113","0.4637715093290005"
"0.011807488987355617","0.06676434436744169","-0.00020307006357445708","0.01513026577364891","-0.07624175269278383","-0.683917457091676","-0.06629286903247536","-0.6796240976845362","0.45965296072646805"
"-0.011027697136411638","0.07700505929746718","0.010566393885483465","-0.05106454568474992","-0.052165184318816414","-0.7020948152815365","0.02526766111387968","-0.6062860749925649","0.43505607323912104"
"-0.014079834422423453","0.08029571604747435","-0.005221219778494285","-0.048556582978235154","-0.028921004660601074","-0.6218377745153565","0.09958048335987135","-0.5375390995926975","0.40027721837329083"
"-0.02920572614584477","0.10843768679493153","0.026448389573484526","0.030941502445085346","0.07853994774952178","-0.5146908634229207","0.13989943866168986","-0.4590823230233228","0.38295316472771757"
"-0.023284387247115228","0.13284754589378522","0.028975225599579022","0.061075564907239685","-0.02175643059655447","-0.28314189881750057","0.1617725415724899","-0.40019026810391994","0.3755495833112603"
"-0.002564515198227448","0.14122999538007247","0.007383427245992792","0.04305096690671401","-0.0357328067387309","-0.0682267944301451","0.17328030144785336","-0.3737917461743221","0.3783279692732862"
"-0.0005377805019956318","0.11924034784293487","-0.011384964870344738","0.028465310475351772","-0.0004551294876419927","0.08779997931943109","0.17693046257054715","-0.3709553232783383","0.3832800336644264"
"0.005273796992757446","0.08667447965283863","-0.03554428471771166","0.01569636253811366","0.015751320850445255","0.15412428131818937","0.17035459978462536","-0.38369943731331657","0.3975315193049358"
"0.004223361100316176","0.08082753936060683","-0.03542243483986975","0.027213735996092964","0.07539276212210953","0.23503900754090518","0.1554195893894803","-0.40924043604180305","0.4166533521024082"
"-0.0016305804450945174","0.0901178278618897","-0.020044567205787508","0.013171070338809161","0.02563132975317013","0.3058384829044301","0.12894895529360786","-0.4438843733667028","0.44058015826950186"
"-0.0019001698583699963","0.0902320867768205","-0.0011541186863913873","-0.030497325992130023","0.030898976571371153","0.4048067962532304","0.09325539500222603","-0.48563915692851056","0.4589828794062147"
"0.003825716715734812","0.09687260716911715","0.0012471500079609384","-0.05382763703511359","0.053077660380670945","0.4900146795704539","0.04343487525125741","-0.5498610483594364","0.47176345483153376"
"-0.0006369508933076959","0.09971869286830266","0.00941553211552747","-0.1050632452175714","-0.03618992647624858","0.5658305233423156","-0.019342323294006855","-0.6232122637160402","0.4626601549441901"
"0.004782759132862816","0.083423294164353","0.028122276454685662","-0.10891424361529081","-0.1381635273985153","0.6275704422141518","-0.08301116425092121","-0.7123023279791959","0.42225915436696626"
"0.025494928627085564","0.05336385108087524","0.02923482779694729","-0.07841337355575369","-0.12569205644456458","0.5941037173225393","-0.1475716476194863","-0.7833975976836454","0.3773473624631594"
"0.04541180935214562","0.022385143090908718","0.021483316839251764","-0.039985223294511194","0.0017529263753622156","0.5061777243694489","-0.21263367984460463","-0.8334901452931821","0.35118150407960963"
"0.059259077001174616","0.0013141372298148052","0.03111172896614605","-0.024698685154764023","0.05284311726927445","0.3499106891431308","-0.2798969542734852","-0.874374212989246","0.34714467271125427"
"0.09021410368893304","-0.003095633656069176","0.042681271604626946","-0.021137474386473006","0.01144027486515425","0.0908869752630229","-0.3170951611345273","-0.8978703486996978","0.33604747230998605"
"0.10473929243041658","-0.001952005789352668","0.04702449691143261","0.05496210495086013","0.029417525694285084","-0.15888545832072337","-0.31787534824472113","-0.896208072956005","0.34745519820112775"
"0.08952761350441366","0.018723664226080662","0.03702661117189565","0.11733191225072416","0.033060123812096054","-0.38851718487941594","-0.27424059772457776","-0.8588992173753439","0.38682656162771833"
"0.055160355100054015","0.04446515904258248","0.024024816155730627","0.12335872474315503","-0.06058001676442968","-0.5262913670474245","-0.20664295739132826","-0.8066166874368149","0.4229782660277261"
"0.025906052482330688","0.05052815255577435","0.004784100868843192","0.08183437177014613","-0.12631910027299198","-0.5992920258392811","-0.11081926196426974","-0.7348353991714763","0.44450258551000915"
"0.0003354966331503351","0.05582561133892985","-0.010583647029621678","0.028182262093119397","-0.12168567717438353","-0.6887469554625468","-0.01585934512349707","-0.6593205868151454","0.43672310481633647"
"-0.018556944321462862","0.06309143961112056","-0.022258517528609988","-0.012471765242004919","-0.07731873636756369","-0.7147388788555251","0.09763001558438592","-0.5616816758701408","0.42216109368595367"
"-0.03259485019845095","0.08234614421177806","-0.020891320594180432","-0.0180797816586838","0.034773724503523555","-0.6555957254393833","0.1556703638177571","-0.4834359819348859","0.3977112972201257"
"-0.03914202166371289","0.13298257915688527","0.0014927084905948858","0.01369384337129957","0.03318696855601458","-0.5071675242522173","0.18155585758098414","-0.4221692473816362","0.37198671190113297"
"-0.012895566642677533","0.16523475468962603","0.015259472909347082","-0.05804544303021576","-0.03415083738533205","-0.2637996364979827","0.1981905613233375","-0.37793424286892163","0.3477657236910012"
"0.00016315197252063712","0.14701565134520506","0.03724346264941091","-0.020107332315083066","-0.04817795142507588","-0.007440640814465845","0.2091410446914198","-0.3687389556200812","0.32900344672390863"
"0.002220696887412506","0.10159565522539327","0.008611199006640865","0.04531535396457302","-0.03316958559275485","0.1667562104741606","0.2003639397017358","-0.37212947043062927","0.3431568716834053"
"0.0005964206724276762","0.07314830155984829","-0.024555077938104942","0.05079051093653059","0.0578307483320327","0.19872797506604617","0.18710075882843516","-0.3918261187269259","0.36739420334037254"
