"AccX","AccY","AccZ","GyroX","GyroY","GyroZ","MagX","MagY","MagZ"
"0.0005415399704394594","0.08421375811219248","-0.026440653166404312","0.050644172997417254","0.12928741850514852","0.259023898193828","0.17035459978462536","-0.42020354035139634","0.3977112972201257"
"-0.005539626937589132","0.09753427015830737","-0.001940566711513402","-0.032893609745110915","0.07345897810161593","0.3661950781222983","0.13190252078220013","-0.4605862867914259","0.4264103898631698"
"-0.006512074464047146","0.09545995149360903","0.01940402095770543","-0.0702088214694125","0.006263094675634739","0.4965672652997762","0.08957737005416767","-0.5268134632464891","0.4313624542543101"
"-0.0008699531719243748","0.09187014412996487","0.034374827389709026","-0.06736485915269672","-0.035050717078036996","0.5787172752766494","0.02362369541739892","-0.6050459645171116","0.4403840369074765"
"0.008549308364054677","0.07695935573149486","0.03186761125919924","-0.058473866601962056","-0.1038412543318089","0.6381031170531365","-0.03483461019643336","-0.6798087949893911","0.4216544468340548"
"0.021660982042574824","0.07040920375373437","0.024855460577222415","-0.055208219960696","-0.14613799318599638","0.6557465608502374","-0.0906179885753141","-0.7503367801146436","0.3892453917593644"
"0.030379311104037594","0.05067253427555056","0.01954115370158175","-0.05814460623895705","-0.11214360181583405","0.6087620942873935","-0.17136735448040769","-0.8164452225880146","0.3593041971568265"
"0.04904548951536599","0.0249892076339226","0.009400228596971394","-0.05766130594004325","-0.10321421050338152","0.442933137663472","-0.2383519906556472","-0.8696776243800823","0.32083172330618537"
"0.08376668030658303","-0.0008925140327215709","0.01591044039232623","-0.03124153143248929","-0.05751659653394475","0.2077729702561143","-0.27903317568719876","-0.9048228829610161","0.2866085456327604"
"0.11647172741423265","-0.013057972320626877","0.015022175435380382","-0.019368903372320372","0.0008918180949493446","-0.02938452235688497","-0.2784758991799173","-0.9167622444534129","0.26717618734541454"
"0.1050554822994154","0.014300805500850059","0.02020389312191172","0.0752058407780716","0.19506240146953682","-0.2398535759827151","-0.26858424117567015","-0.9061289567596321","0.2945024304542811"
"0.0713212776065866","0.03190602685687013","0.025374458446742278","0.12315654732727477","0.17560489641184746","-0.4587269275273019","-0.23787830562445805","-0.8560232164854628","0.3669202433821446"
"0.040138447864610384","0.05530625263469892","0.021191290182864544","0.11113180483039592","0.02006452080308582","-0.5740524363633732","-0.17919708940771292","-0.7859569746223469","0.4252336616910176"
"0.016699574018972648","0.051109834304513","0.005625691126819087","0.05308666873117078","-0.03934189869777095","-0.6327344818948589","-0.09736103431342052","-0.7005476637916538","0.46297068043406364"
"-0.00463457676444997","0.06044894252399359","0.0034466435656157327","0.003036397855531007","-0.059191904472491196","-0.7086231321748242","-0.00223393452046385","-0.6266027785265883","0.4568745747644421"
"-0.02424720658024198","0.07050372703790439","-0.002378400170877551","-0.045802156374266365","-0.04024656498458602","-0.6827525529620188","0.0754504105945812","-0.5589903722851144","0.4264267333100052"
"-0.03290295238505152","0.0808472749913676","0.02480589452521893","-0.03353865197672892","-0.027463965413476687","-0.5823523782871814","0.12919972972188465","-0.4920375992752647","0.40039162250113897"
"-0.023698399560359726","0.11297688186990987","0.027147064381517025","0.007192202776429902","-0.008230712289847035","-0.4499416088828032","0.16639793658292656","-0.4303223141245105","0.37414404688341185"
"-0.025537384486631853","0.1471195230860512","0.00840097698858107","0.027362962184004594","-0.0014107730017299835","-0.25380087605175766","0.18133294697807129","-0.3756123338936047","0.3519659895277109"
"-0.006877945810635315","0.14420072716827337","0.028424216321473576","0.042100733052076754","-0.03356208630978573","-0.03218029226806245","0.19894288460816756","-0.35139060162836644","0.3430588110023926"
"0.007717432460233151","0.12606472121652929","0.013753284504091082","0.053670094988425274","-0.07875232130354842","0.16869286358971577","0.2113144230698178","-0.3568523647862143","0.3387604844846702"
"0.00397687935103572","0.09197609330562796","-0.006476480045482628","0.05845881149598935","-0.0719266381024992","0.3021981574992511","0.21488099271641942","-0.3824725195024958","0.34549398458087416"
"0.005454807027385281","0.08087012677435376","-0.019404339034075787","0.05791293247311262","0.01024003639203848","0.3584047817552152","0.2073020322173905","-0.41868638391866075","0.3676066681492334"
"0.011949986248658371","0.07521950407232125","-0.022830592378816912","0.022296011042205285","0.04672584999652488","0.3753201604712803","0.17993975570986762","-0.4685810415587104","0.3932331927872134"
"-0.0003818037700291018","0.101302736916207","-0.005135098763138224","-0.0164671760796388","0.07464366014387377","0.4261876407996485","0.13964866423341338","-0.5203622502412051","0.4231907308365868"
"-0.005886241897514759","0.10860388158028542","-0.00879679085489592","-0.08668724361325383","0.008661178324811213","0.5726500662680176","0.08495197504373131","-0.5788321398923684","0.42843697727076524"
"0.006779646429767705","0.08058551820443521","0.007923490687614132","-0.08911529810301591","-0.03969610666192077","0.6269879901493233","0.013174760905870496","-0.6628957989305482","0.40514756553025383"
"0.020217715862217822","0.0681749226081329","0.010078767196377481","-0.062376853478050664","-0.04396096201404899","0.6059226404713539","-0.05748790021742739","-0.7356005737201604","0.3812207593631602"
"0.028646236304409437","0.048441369282174476","0.002427648146510685","-0.05946742418857366","-0.027893562234861096","0.5545212457502261","-0.14776669439703471","-0.8131734417591588","0.35126322131378684"
"0.054081034627618915","0.023310640301848234","0.003113311865892273","-0.05725117461068614","0.017843541135984256","0.42749815794551294","-0.21943245323343943","-0.8630021360760459","0.32851314331884524"
"0.07857708410102981","0.002503780277726174","0.020172914339409542","-0.061280281684300074","0.07496675524630773","0.2474962010774277","-0.27426846154994156","-0.8957067516999707","0.31612481061757686"
"0.10095868603696107","0.0008675926159170518","0.028887865432922873","-0.029547092137492754","0.16757059819798975","0.008285807624267862","-0.30815087319265877","-0.9145590694597884","0.3110256552049175"
"0.09950916153093872","0.023247278539932064","0.05186338273827315","0.05875052462461659","0.19163280678962677","-0.21540272367792934","-0.3162871101989689","-0.9027384419490839","0.3418657393834051"
"0.08860022592274597","0.018297790088611293","0.04969899846745416","0.10108069901234827","0.15568069842842014","-0.44200569949951296","-0.2882561018827081","-0.8646512191551062","0.39182765635936495"
"0.04693017544048651","0.05681654774660246","0.05789185381319742","0.1203453184969396","0.01913352824866501","-0.5667475167169808","-0.23272349793210387","-0.7992815659011545","0.45133414628722573"
"0.016500270417015413","0.054241567291025514","0.03505016484825656","0.052336686793214925","-0.07469568279521098","-0.6042428683903245","-0.1491877494906028","-0.7311018750804837","0.4728584657695088"
"-0.0065602154307034906","0.06164762241335857","0.021953987808068225","0.004315506973333507","-0.14255283419750697","-0.6492372903983372","-0.05361482849182076","-0.664122716741369","0.4594078090239362"
"-0.017170484481760336","0.06507331242646579","0.0013471082128346389","-0.01477658778303998","-0.09097249606671716","-0.6514214856414446","0.03819647608281107","-0.5911936666530047","0.42698241050241037"
"-0.025980281379870136","0.08546749002420594","-0.009922766336241833","0.012707025031883973","-0.046241774107527216","-0.5730574140859577","0.12582820685283128","-0.51082395371192","0.3923179597644284"
"-0.020992877234273555","0.10839613809859304","-0.011306485288005881","0.05450191064233266","-0.026552597894907423","-0.4516161585691856","0.173140982321033","-0.4407181338549069","0.3737191172656902"
"-0.011672786089606566","0.14565493154011996","-0.005717499874179212","0.0410089750063233","-0.007973911515838417","-0.29583450006355805","0.18821531184299808","-0.39050685226367765","0.367851819851765"
"-0.0008988377519181786","0.14542641371025838","-0.021056540767525393","-0.03417214121315376","-0.009652809399967455","-0.10015002134996163","0.19961161641690575","-0.3678418544250724","0.35646043740745875"
"0.0015525002702225393","0.12075687525928919","0.008231089345339114","0.002789645133197136","0.011592488557856469","0.08449699073513199","0.19966734406763365","-0.37231416773548404","0.3552019920011294"
"0.008937324555304762","0.08098023081965071","0.009874864849948132","0.019178627839251432","0.002867963473317626","0.1994536132634785","0.1854567931319547","-0.3934092384828239","0.36504074699606814"
"0.011623590494728409","0.08486191777507268","-0.015738516437984462","0.05727077849029291","0.045483728824945446","0.22546009795807742","0.16999237005489246","-0.4154277957544375","0.38921270486569354"
"0.0008226832157124666","0.09117108731407","-0.00041310620893923673","-0.002579320557943314","0.05829026136660544","0.30481919179098","0.14667034822516054","-0.445177254500686","0.41660432176190193"
"-0.007253445350554764","0.08116616123576538","-0.0007396225765122181","-0.028139552223126314","0.056188946552257195","0.37371841729300154","0.11504490643693391","-0.4917341679887175","0.4374585599239316"
"-0.01258746445607699","0.08742027875211426","0.015131014224571375","-0.03778630320941342","-0.0013708049409103754","0.4707937614311087","0.0731655769147268","-0.5469454694756577","0.44832695206950346"
"-0.0006850918599640411","0.08114434817018769","0.023094626579798497","-0.05088547425925597","-0.061238173454572914","0.5759020902966443","0.014372905396525587","-0.6192544643262954","0.44270480635811005"
"0.011378071564781076","0.08308155613696906","0.01555335829268443","-0.038147334309199615","-0.05129641748782734","0.6089562449756697","-0.046593144500073604","-0.6909434039392065","0.4277178656100054"
"0.02696900502610263","0.07223111408817647","0.021206779574115635","-0.06643388029004806","-0.09519905866596433","0.6321329833886429","-0.11505456341960926","-0.757698286979569","0.4055234648074692"
"0.04750401576303006","0.04694457749658094","0.011610420160850274","-0.06102611579005058","-0.07721582459419582","0.5213942845630971","-0.18008873181936333","-0.8196774254229727","0.3688160832150563"
"0.061912607083271946","0.011641273448224314","0.011997820162300872","-0.04352525357161476","-0.01245775354850521","0.3632100112900515","-0.23645725053088998","-0.8642422465514994","0.3451998025378361"
"0.08307345038673178","0.008685395318964395","0.01601494215196692","-0.023171764290068283","0.0005897840065999723","0.1675449476452827","-0.284243711030281","-0.8952713937670987","0.3312915292808712"
"0.09713196059744876","0.0027333368249962443","0.022831306928529964","0.023724731447759186","0.046491306885128376","-0.04608876219944977","-0.29577933473100887","-0.9017226067723827","0.33142227685555475"
"0.09340430926731522","0.01703263228510475","0.031006401105638636","0.08775528180663972","0.08666040465736187","-0.2682165646562666","-0.2855254469970287","-0.8859573725365658","0.36656068755176474"
"0.06998007027554104","0.043412938307810615","0.033193503150292555","0.11217157439778015","0.0231446941129562","-0.4537518161402239","-0.2358999740236085","-0.8387672111461753","0.41475751226949653"
"0.04705726759245924","0.05422702524730704","0.02985853395132452","0.08323035868931941","-0.08525251610510862","-0.5641022135892172","-0.1608348284927868","-0.7745980903737795","0.443472948359376"
"0.024709268051254136","0.06056631759114977","0.0070350192054516045","0.040362970025105874","-0.1308256786276819","-0.6371999477252119","-0.06219688670395621","-0.6895054034942658","0.45522388663406205"
"-0.0019483108250263415","0.06695858452282406","-0.012566289109761208","-0.0040973841263243025","-0.0962664691525239","-0.6778259792470098","0.04262682431569916","-0.6130802972782936","0.43711534754038717"
"-0.027106779999628447","0.07830553349286143","-0.013983052096194248","-0.025232048432848164","-0.028461012966617325","-0.6455726961571236","0.1096671881416669","-0.547037818128085","0.41081874158215387"
"-0.019789353067865112","0.09920452775111406","-0.010150563650241196","-0.020686907573939838","0.0026872695456601156","-0.5409740128483131","0.1585403378302569","-0.47843596203917493","0.3920564646150613"
"-0.015081166528875272","0.12798634842218376","0.016949881807882716","0.01698644700134966","0.027902568658428092","-0.39395340415114993","0.1787694750445765","-0.4230795412412775","0.380812173192274"
"-0.021609081607474663","0.1552111316979691","0.022187774353351338","-0.06039647755202346","-0.003247628491493402","-0.2049501359978587","0.17871374739384827","-0.3810477117221876","0.37200305534796835"
"0.0049685832641562745","0.11652929540684942","0.023261705480093587","-0.023971809207194484","-0.017697877450572965","-0.012094675500807046","0.1923391579968815","-0.3760081138325792","0.357130518727712"
"0.004571901698908053","0.09039724284476595","0.004863200026832092","0.03643591440903151","-0.013401430577317868","0.12015276463705878","0.19983452701981827","-0.3827627581244103","0.35819284277201613"
"0.004491024874925405","0.07499617982950194","-0.006107832533706683","0.06608282557387433","0.029087250700685928","0.1859091758726091","0.18916268190537702","-0.3947021196168072","0.3795210408922738"
"0.0003614927551447482","0.09246325177019658","-0.023057770117166233","0.061503988478985964","0.056792057410133906","0.2606984478802103","0.1718313825289215","-0.4139238319863344","0.4108514284758248"
"-0.0035465909180167413","0.09866127854648848","-0.015180898352945216","-0.01983872517684214","0.045141487346070965","0.34030023007345817","0.1396208004080491","-0.4577234785661771","0.44077627963152727"
"-0.0013898756118128253","0.09820943647380759","-0.01834279942033441","-0.11566311830729407","0.035795662346036886","0.4554315882212533","0.10526470373414275","-0.523831921039548","0.4347455477492475"
"0.0010248752756690756","0.08311064022440598","0.017586186000477497","-0.06808307035387139","0.01312132671663285","0.5126089659185984","0.05129247400392708","-0.5837793891295494","0.4332419506403864"
"0.003682256635098935","0.08366843147275001","0.01707978616917519","-0.05652814966151432","-0.0562194295300988","0.5759263591326788","-0.012292775476895435","-0.6533311170719982","0.4253644092657011"
"0.018099513329338957","0.07532856940020974","0.011676363662536582","-0.04963967627759374","-0.0922002574559662","0.6308710039148474","-0.08120001560225645","-0.7243208454593877","0.4057195861694945"
"0.03667133544602094","0.05640209950062618","0.011742947392394601","-0.05961279937808757","-0.06419868191169","0.5842748387285559","-0.1686366995947281","-0.8052842283089342","0.37669362458974154"
"0.05034048151842148","0.02792670046505274","0.02323940075669202","-0.06802434262830617","0.01687784577426498","0.4215280242810194","-0.24473280666402059","-0.8541762434369151","0.3510834433985968"
"0.07108827532796994","0.0054246536303209246","0.02356240619558142","-0.0594847536813634","0.04703937191073857","0.25373329193830113","-0.285302536394116","-0.8849151520305998","0.331651085111251"
"0.09847413074782746","-0.006150605426096354","0.027401503448468267","-0.013100440730432612","0.06518056358814145","0.03965303551053339","-0.3149496465814931","-0.9054693235280079","0.32138740049859055"
"0.10674051241432053","-0.0003979806745528788","0.049901393179801745","0.09802878278215564","0.14571022289701374","-0.19185467207362802","-0.32094036903476963","-0.8931077967673715","0.35567595195935736"
"0.07524861766641064","0.030426893267220437","0.06707809545117725","0.12888490744388237","0.11025113372915082","-0.42144999537826877","-0.29739543660212503","-0.8466696172610323","0.42355028666696665"
"0.04170976901627325","0.05654648122040238","0.024051457908682503","0.1054130722097826","-0.04946793853775664","-0.5533025815538528","-0.22664918400273518","-0.7832129003787905","0.4661413091201402"
"0.0129224337751164","0.056314847238315376","0.0017392995993122415","0.047779030189514016","-0.17410845586855672","-0.5963797655151378","-0.1401877338980061","-0.7181202930821208","0.4788891976517885"
"-0.0007832994319429636","0.05989530614528341","-0.025199436614150292","-0.018139472133848453","-0.18011802477382832","-0.6812236162918436","-0.02778506237932194","-0.6525791351879467","0.4495853974758329"
"-0.013376976309240918","0.07341732936863991","-0.03568678711722169","-0.04402684611291771","-0.051593186322655554","-0.687096674612199","0.0656423440664264","-0.579861167733702","0.4129597331175974"
"-0.029244238919169857","0.09326929647916299","0.012082784636443517","-0.014191236026586633","-0.02485910089874248","-0.584827799562703","0.14527715695695656","-0.5025257676580884","0.37046677134543643"
"-0.023005169640508468","0.11940654262828874","0.040649063472483926","-0.008855485196626512","0.019569108312687083","-0.5068520293837685","0.17927102390112976","-0.4377365916479658","0.3542704155315089"
"-0.025113743980056058","0.16884949127107332","0.04571925754200742","-0.04490102274920002","-0.030451039467904988","-0.2262339052001387","0.1878530821132655","-0.39636439536049994","0.34930200769353326"
"0.009081747455273764","0.11973893219899655","0.0587654554797589","0.00973424681876448","-0.07070844990147045","0.03727711646275322","0.20050325882855616","-0.3923802106414902","0.32550594910112307"
"0.006943325716399248","0.07882800834931775","0.025913695787496895","0.08532626456727821","-0.0747076492804863","0.10150701791173183","0.20802649167685658","-0.39288153189752456","0.32401869543909745"
"-0.0026222843582150556","0.08771942936575125","0.001001591525326991","0.07506239108775657","0.0002451492306704188","0.14875601478735204","0.21816892410938032","-0.39718234056771395","0.33701173567327747"
"0.0027695039072947606","0.09653398529395861","-0.031013121463726107","0.03750264096519978","-0.0032114897059619006","0.2889959106964685","0.2141843970823176","-0.4214700361561146","0.3562316291517625"
"0.0009690317543477343","0.08559005867840445","-0.016192871914683105","-0.0005156667915654281","0.017630537698083346","0.37325730940834556","0.19055587317358066","-0.4545572390543812","0.3779030396555646"
"-0.002208272044970558","0.09145985075362244","0.0013212925607494893","-0.0015217401229696225","0.050373234708445985","0.43885597320967146","0.15436076402564528","-0.5083437327610133","0.39527612364164416"
"-0.0035080781446916753","0.09501538044278736","0.011793566723003163","-0.026430671684138325","0.031987926731426336","0.5244036202313784","0.0987724324243131","-0.5712067797347934","0.4075010218745582"
"0.00500902167614759","0.08959431428802493","0.01418636788347156","-0.060368557813640006","-0.009045390607391617","0.5968703646304754","0.022732053005748515","-0.6547295395230415","0.3997378846277211"
"0.013707131531614708","0.07560798438308597","0.015366246446371263","-0.08592667142970424","-0.04212769646986817","0.6338318019110597","-0.054060649697646124","-0.7311810310682787","0.3790470809340458"
"0.02663105544017513","0.052580658154894995","0.027283577549743303","-0.08841249089543213","-0.053878785010243915","0.6079369538622196","-0.12809483368999705","-0.7933448668165373","0.3552019920011294"
"0.052519341669287324","0.02154378199005461","0.022113838325779473","-0.06967545819132837","-0.05183251602816219","0.44953426106486327","-0.19711352911681418","-0.851959875778658","0.31772646840745056"
"0.08753062992557546","-0.005576817929662023","0.025540504720953965","-0.0347411262264168","0.03851205450353719","0.2442199082127666","-0.2437018451255498","-0.8871579050181219","0.2972971598631424"
"0.10734227449752476","-0.012816989881863727","0.02671976370820362","-0.003710551337273388","0.11134965707742626","0.01812560719446675","-0.27616320167469893","-0.9116039125821124","0.28316007835048124"
"0.09772534615245479","0.01771195347023881","0.047621354787641276","0.0824303137721932","0.16248723525302883","-0.20318579161814856","-0.2895935655001836","-0.8990840738458862","0.3197857427087168"
"0.07106709330264113","0.03290007941676813","0.06797648014374047","0.09140217728927999","0.07966001077129282","-0.42552715983206924","-0.2570764813003065","-0.8585034374363695","0.3753698053960704"
"0.048500533772816254","0.038009530348992016","0.03724346264941091","0.11400079863669686","-0.005334583523511253","-0.549443836624363","-0.19162435552009122","-0.7986483179987952","0.41655529142139563"
"0.01829400283463057","0.04914146481547777","0.015930886388777668","0.08290013557671498","-0.08286639894120747","-0.6218863121874255","-0.10636104990601739","-0.7261018551847729","0.442998988401148"
"-0.004538294831137297","0.06561136804404903","-0.009879189515522097","0.017522698528232086","-0.07695734851224866","-0.6928483887523819","-0.0025961642501967416","-0.635995955744916","0.4485230734315288"
"-0.024545680573511263","0.07142714681402698","-0.0008377220544357893","-0.041718172573484924","-0.08240927920368979","-0.6748651812507975","0.08367023907698376","-0.5609296939860894","0.4244001459024098"
"-0.021955696567400308","0.09703256965002031","-0.021853728103914827","0.05499483843724076","0.0723508815651202","-0.5952633990575497","0.13140097192564656","-0.49030936020840943","0.40624257646822876"
"-0.03177645376529322","0.1434840121564347","0.022246220989672123","0.013896983536779269","-0.033006841393010335","-0.4143877640922215","0.1597942099716402","-0.42617981742991096","0.3962403870049356"
"-0.0030266684781283084","0.14549912392885067","0.010155408704287874","-0.03628537658390228","-0.045262915612005086","-0.1519664131672798","0.18133294697807129","-0.39644355134829484","0.37028699343024646"
"0.00234297494271961","0.12012325764012746","0.012301205705605556","0.000716748970664724","-0.04621784113697655","-0.019105699542821493","0.19194906444178467","-0.3798603719052641","0.3610039156277129"
"-0.00216013107831423","0.09274370547048129","-0.016653423147882186","0.06491693580896479","-0.01093250533531143","0.09493744399718544","0.19752182951459993","-0.37984717924063166","0.37046677134543643"
"0.0065659005378135675","0.08440176596312408","-0.032526951301999306","0.06368846732009231","0.03114787946509805","0.196684539071939","0.19559922556447845","-0.3908630542087547","0.3871697740112628"
"0.004220472642316785","0.09404625710069245","-0.030325392492177708","0.015964969676354586","0.0743492846061006","0.26319813799176656","0.168348404358412","-0.4166019429067285","0.4148555729505091"
"-0.004114654324561537","0.09677600645013021","-0.011787689042873077","-0.028927081395459936","0.09824635570093804","0.3462703637379518","0.12655266631229736","-0.46015092885855396","0.4379815502226659"
"-0.007523034763830243","0.09189922821740178","0.003570145645191091","-0.06213231507979548","0.0672818784024897","0.451597112127798","0.06865163720574656","-0.5185284698572898","0.4626111246036838"
"-0.003604360078004349","0.08768307425645509","0.01645318866176443","-0.07102523312972903","-0.007681450615709309","0.5326550244831175","0.015487458411088829","-0.5908770427018252","0.4617939522619114"
"0.0034377005244847275","0.08678769985036097","0.011800671190456996","-0.06589762876316563","-0.03386603503577916","0.6018212071815189","-0.03645071206754955","-0.6604683486381714","0.44154442163279317"
"0.01299657086376716","0.0755882487523252","0.023392642467469468","-0.08730147785769007","-0.08528602226387953","0.6491697062848807","-0.1154446569747061","-0.7347958211775789","0.4171763424011425"
"0.03688315569930882","0.04498347902940495","0.030996074844804575","-0.08216328324553296","-0.09449064273766469","0.5759020902966443","-0.18844787942858626","-0.8053238063028316","0.37687340250493145"
"0.05585358501990528","0.019424798476792415","0.03682628171171489","-0.05233537515599732","-0.04349666238536612","0.442520567450885","-0.26334584200722366","-0.8651393477465081","0.341571557340367"
"0.07641170342082775","0.0046491991490337226","0.029687531071912483","-0.01750983389582133","0.01542511446183971","0.24519066165414766","-0.30856883057311973","-0.8964851189132872","0.3262577476555537"
"0.10259981159027562","-0.012225959676448928","0.03271229939542536","0.006377620340352304","0.046074873197546835","0.022387214802129657","-0.32484130458574023","-0.9123954724600613","0.32499930224922424"
"0.0947024978305567","0.016700242714396955","0.04067591175065248","0.08422006527753331","0.10604611080339926","-0.2157958788216887","-0.3230301559370753","-0.8975273394192532","0.352734131528977"
"0.07492414755114692","0.03605362546885833","0.05775554717018782","0.11128584476630468","0.05932177239733905","-0.4295072489417317","-0.2859434043774898","-0.8559968311561977","0.40357859463405105"
"0.05017680223178993","0.04675553092824088","0.030325280941024036","0.12196273782398173","-0.03486882650185195","-0.5431824769274551","-0.2097358420067409","-0.7880282229696467","0.4450255758087434"
"0.021008190534714886","0.051503508202320046","0.009380360871126661","0.0842268045247293","-0.13387473907583644","-0.6012578015580777","-0.11265827443829846","-0.7132785851619997","0.46226791222013935"
