"AccX","AccY","AccZ","GyroX","GyroY","GyroZ","MagX","MagY","MagZ"
"-0.028050342946092675","0.07933697987946405","0.020351765177055465","-0.025803921694909495","0.019887416821010907","-0.6546977785061057","0.14327096153074323","-0.48731462533683584","0.39864287368974616"
"-0.03378874617152812","0.11197971315778645","0.04405053379122331","0.0018491350495141146","0.05663170650744447","-0.5163654131093031","0.16982518710270783","-0.4203486596623536","0.3889675531631619"
"-0.0328162986450701","0.15431783472669192","0.0669335277995004","0.04128528414135967","-0.00841379951455961","-0.2471997526503664","0.17712550934809604","-0.36760438646168764","0.3868919354150602"
"-0.0057803317708708234","0.14671442329675108","0.03185728499836518","0.03674688252964735","-0.06650582027277394","0.04440244672249028","0.18267041059554706","-0.3428945256050476","0.37932491953024844"
"-0.0012839654851688725","0.12044526003675063","0.009794980896135843","0.06023893550533515","-0.09393300452383423","0.2273797628884085","0.1932308004085319","-0.3533299233293414","0.3781481913580963"
"0.00633097262053064","0.07314934027725675","-0.004959139278525841","0.07731426240082298","-0.084797789664646","0.2888745665162959","0.20794290020076442","-0.37836960080179355","0.3754351791834122"
"0.003568643953789969","0.06178784926350092","-0.0162093939320176","0.0642045011053867","-0.045112137897535896","0.3190892673792817","0.20440419437952673","-0.40512432467646853","0.3890329269505036"
"0.0034155556798228124","0.07676096070647863","-0.024614970250942492","0.060810808767396474","0.018097230623821285","0.30845951719615905","0.1913081964584107","-0.43710334374560667","0.41086777192266016"
"-0.014272398289048818","0.10735742069013121","-0.015218072891947834","-0.022833839180668405","0.04330104191072495","0.4128640498166933","0.16414096672843645","-0.47778952147218334","0.4400081376302613"
"-0.0003481050933696755","0.10255127524117816","0.0019720535185119552","-0.06977077040167191","-0.009079136095868053","0.56022442221834","0.1186393399088995","-0.5524600032920355","0.4309048377429175"
"0.011627441772060907","0.08541243800155748","0.02716152114668471","-0.06797427964913583","-0.05217715080409174","0.5970887841547862","0.06893027545938729","-0.6256265213437845","0.4059483944251908"
"0.019596697392351058","0.07213555208659797","0.022265427834823475","-0.015289733319536092","-0.10257280689262373","0.6213090825172439","-0.0005063773478909324","-0.6983708741272943","0.3821523358327807"
"0.026704229709492766","0.0573109772330303","0.011137869812562016","-0.0012613163563238478","-0.07448985924847526","0.6109220206944664","-0.073398144500315","-0.7636349860641862","0.3671653950846762"
"0.053994380887637514","0.03206287318554787","-0.003126021455263497","-0.044068244345693196","-0.06002955844176441","0.48409308357802944","-0.1629524792204564","-0.8377645686341065","0.3381557769517587"
"0.08015514498802458","0.008001503777233108","0.008589699731584351","-0.05905633010961712","0.0031915372351625933","0.2670568829212563","-0.21007020791110967","-0.8804428387201881","0.3095710884365627"
"0.10755313193147953","-0.0065265172562187","0.00856223187776575","-0.043844886438625476","0.03047775628967948","0.03759503821480552","-0.22868324325431277","-0.8955880177182783","0.2867719801011149"
"0.11037804385487343","0.0048527669867440785","0.011603336345918109","0.05093492337644506","0.13915258896613197","-0.1695006472022254","-0.23152535344144845","-0.8890444560605669","0.3041123771935237"
"0.08520898366760692","0.035505182677190474","0.016185325455728906","0.13624994187952072","0.17424789698162485","-0.3934922962664939","-0.207228097723974","-0.8440970476576982","0.3731144097327787"
"0.05242787383264028","0.06502345399085961","0.026174950186598617","0.09846202010189907","0.05165843522701661","-0.5488128468874653","-0.14564904366936512","-0.7720123281058128","0.43708266064671625"
"0.029776586201500248","0.0656965428715429","0.03031041112542299","0.013979780002330236","-0.05549665381946876","-0.6274924133114013","-0.06420308213016987","-0.701919700913432","0.4569726354454547"
"0.01028142034434971","0.04866469352499378","0.014477361913775374","-0.009110806390395309","-0.11946230421022691","-0.6378794751341788","0.021004495833175905","-0.633647661440334","0.45314826888596016"
"-0.021455030514174397","0.04448489467334325","-0.02592847062903493","-0.023238194012428944","0.025226862550863923","-0.6762727737408001","0.09467645009579395","-0.5607845746751321","0.43878237911760276"
"-0.02713566457962225","0.07289693194700052","-0.027318385337299418","0.011308149863912402","0.03321808141773043","-0.6499410866433386","0.1437725103872965","-0.48140431158148356","0.43606936694291865"
"-0.013145899669290506","0.11189661576510951","-0.02323538180351207","-0.05747356976815443","0.11888136290972004","-0.5382559032124462","0.17495213096969806","-0.4143328045899415","0.41078605468848295"
"-0.039960418096870634","0.16875600670431173","0.03932317158139061","-0.13067238456240543","0.07704892368421544","-0.34699320642434056","0.17311311849566874","-0.37708991233244277","0.40169909824797473"
"-0.00020945910939942095","0.12655291839850638","0.037408682822755876","-0.13306000356899148","-0.023526991757892555","-0.026518372821207354","0.16723385134384877","-0.3773141876311949","0.38792157256569326"
"0.0023968928253747025","0.09321839932614837","0.03790227809062395","0.07732870364481442","-0.036802610522345555","0.0996116218174353","0.166983076915572","-0.38748573206283915","0.37986425327581813"
"0.0015130246775643488","0.09039828156217442","0.006261995319413869","0.14748522970486708","-0.03193464431234062","0.16815409542974932","0.16313786901532962","-0.38379178596574404","0.3976132365391131"
"0.003067015081230936","0.09292859716918747","-0.008551232372261974","0.09057902638176747","0.030200133831291786","0.2443897900650083","0.15352484926472307","-0.4121824002548468","0.41083508502898924"
"-0.00014302457541367575","0.10226458923644269","-0.009329625913933421","-0.027015060690992247","0.027711104894022787","0.3210550430980784","0.1368901455223697","-0.4425914922327195","0.43150954527582913"
"-0.006223228664109125","0.08320412479116755","0.0037750186601388422","-0.08453742375772698","-0.0002021579889214805","0.4222803581980897","0.10713158003353604","-0.4839636885201852","0.4503862263707698"
"-0.003132578604772244","0.08738703979504345","0.021253041222652227","-0.04469691983412089","-0.021375178375682403","0.5009841934580601","0.07369498959664432","-0.5477238366889742","0.43902753082013446"
"0.004436144172937172","0.08538231519671208","0.02685173332166291","0.00587140660097209","-0.07825451551609461","0.5667284702755931","0.028527728681476634","-0.6111277829126861","0.4343533050251968"
"0.013271937193041403","0.08435710111456021","0.013444529305152686","-0.01077925144620724","-0.14379495536908643","0.6285654644915674","-0.027199922046676213","-0.6966954057189689","0.40459188833784865"
"0.0265145543008668","0.06681420280304787","0.010954186284845758","-0.05451985399710365","-0.14003508569557718","0.6250707521025956","-0.09267991165225566","-0.7657194270761186","0.373670086925184"
"0.04332249139926056","0.04056165902158281","0.008481418560478397","-0.07665731828639365","-0.12337534489526036","0.5415131496357198","-0.16016609668404874","-0.814492708222407","0.3451834590910007"
"0.06649658992828843","0.008165309512547543","0.01404365895874485","-0.046342258899546504","-0.026963526999262313","0.3574340283138341","-0.21528074325419191","-0.8625799708078066","0.30852510783909426"
"0.09879648266055831","-0.00891141242604713","0.01376815431969213","-0.00857070386511516","0.06023122527826425","0.12818089559728024","-0.2501662526100155","-0.8856275559207538","0.3004024147618773"
"0.10626006556709029","0.008113477513865297","0.008474830406066267","0.055735192879202304","0.14534165515053352","-0.09063178385722022","-0.27373904886802436","-0.8982529359740398","0.30638411630365064"
"0.09003270852657196","0.03404890087052694","0.014847042051634724","0.0947467693976993","0.13033568261526757","-0.3175793771504941","-0.2580238513626853","-0.8682396239351416","0.3600886826049279"
"0.06731306072277991","0.054609273253621","0.04512239966579874","0.10038751930075877","0.03992888636013646","-0.48469458208424554","-0.2155036538571046","-0.8109438814362693","0.4282735428024106"
"0.03827250399701073","0.04736214189478261","0.024363517511087795","0.08472262056843569","-0.026314225508222818","-0.5845608423663233","-0.13494933472955958","-0.7422760620241967","0.46216985153912676"
"0.005188106072109177","0.044913884963038005","0.009617658345093363","0.05563121592246388","-0.09201836687978115","-0.6479753109245419","-0.050243305622767395","-0.6663258917349937","0.4765847716479905"
"-0.015601088968763721","0.056084251973636846","-0.010205705883095077","0.025460568975531207","-0.11088233426781408","-0.7041576663444714","0.06553088876496997","-0.5765893869048463","0.46205544741127863"
"-0.01413760358241106","0.07404886955298472","-0.033417074985895294","0.004464444336365305","-0.14179415903105097","-0.6460338040417797","0.15218738564724762","-0.4949795634883083","0.43620011451760216"
"-0.008225892877012777","0.09616731804877157","-0.05583332200447288","-0.042487409503429385","-0.017401587275155755","-0.6018159847868719","0.19568281704057092","-0.4280267904784585","0.4127472683087365"
"-0.027154920966284794","0.15155484642018335","-0.022370041145617834","-0.0791007767697466","0.07324358136665995","-0.43812268573398866","0.20498933471217246","-0.3715094151929026","0.3971065896872142"
"-0.013088130509302881","0.1533102788404839","0.023166703880420237","-0.16366581333486643","0.016047132366451455","-0.11174567120725855","0.20014102909882295","-0.3634091191085582","0.37483047165050065"
"-0.0018809134717074718","0.09009393736149506","0.0673259257111947","-0.028405271112568953","0.0393856079286364","0.05604906113545969","0.17941034302795011","-0.37879176607003306","0.36558008074163795"
"-0.0024200922982584466","0.08909157506232938","0.09829438195254082","0.12903894737979116","-0.06976070426766418","0.11570671387553347","0.17860229209239187","-0.37810574750914394","0.3761869777378427"
"-0.008360687583650517","0.09010328581817123","0.052476762631816325","0.14690757994520917","-0.11012605239841312","0.22159892614498422","0.19470758315282805","-0.3794909772955546","0.38762739052265527"
"-0.00993971128997841","0.08615304351379077","0.03831739377615316","0.08416133755196809","-0.15365773253301482","0.3514638946493405","0.2108964656893567","-0.3995438275369283","0.39194206048721314"
"0.0020059881761252444","0.07778098120158819","0.00631052874533395","0.034767469353219574","-0.1433067227698529","0.4109710806060002","0.22477265072066668","-0.43794767428208553","0.38180912344923623"
"0.005963175635276203","0.08827306574446142","-0.011515075756853895","0.004547529626796101","-0.10215158661093204","0.46526046681523664","0.2245218762923899","-0.4843726611237922","0.3734412786694877"
"0.0036408554037744784","0.09293482947363826","-0.010386002397257767","-0.01478717802863371","-0.072098955490464","0.5451534750408988","0.2006983056061044","-0.5517212140726164","0.36170668384163707"
"0.01198272210598469","0.08934294467517716","-0.026287824506060223","-0.00880157121905844","-0.06630239002309331","0.58971105800029","0.15391494281982024","-0.6264840445448959","0.3447094991327727"
"0.02454077466795695","0.07825152018762141","-0.026956966208107315","-0.0135096093101903","-0.02769683321693464","0.6058012962911813","0.08158045217467795","-0.6984368374504567","0.32982061906568094"
"0.0357200699448917","0.057722309326781206","-0.02131676254054371","-0.013310320143108319","0.032816007512479296","0.5731354429887082","-0.009060571734662744","-0.7666561062650247","0.32137105705175517"
"0.05288136173854299","0.03503360497374879","-0.013400650985153261","-0.028000916280808412","0.08736882058566152","0.48025860748457416","-0.11407932953186638","-0.830205171799694","0.31677854849099474"
"0.07767588520522317","0.013360973989673768","0.00785760914349283","-0.03649140499818027","0.129124674305404","0.29969846738769484","-0.19585965697543073","-0.8749942682269728","0.31509517346694366"
"0.10677806236831248","0.006211689810712476","0.021832964031093038","-0.01445021566883326","0.1639615062389497","0.06840675244424074","-0.2399402287013996","-0.8969864401693215","0.3237408568428949"
"0.10620325922643581","0.021165688853374495","0.021775756546072344","0.03637141018586971","0.17504725819801698","-0.1717066843977639","-0.25214458421086505","-0.887949464896071","0.3495308159492294"
"0.08849364182256884","0.039169777694243915","0.018494483903441418","0.056248338415698415","0.13969108080352188","-0.3710193540985221","-0.231358170489264","-0.8507329579678371","0.39189303014670684"
"0.0577686326734944","0.05804223428858746","0.019918681797674982","0.04632142729597721","0.0694502055343798","-0.5024351012254847","-0.17763671518732496","-0.7846113228298337","0.4384555101808939"
"0.031139938377207726","0.05912665526302164","0.005598223273000488","0.015283342959958254","0.05779484887620671","-0.6044370190786008","-0.10577590957337167","-0.7231862763009941","0.4587540711505184"
"0.01534585003659644","0.053991236395586194","0.007872685484310558","-0.014568633869563136","0.03150448072630293","-0.6575372323221454","-0.03851263514449141","-0.6623812850098814","0.46743244142014057"
"0.0006811487737428385","0.057082459403168695","0.027067139122661402","0.010752643345041377","0.0749978681080236","-0.6762485049047655","0.02239768710137988","-0.5880142344765764","0.47844792458723145"
"-0.021416517740849315","0.07143545655329468","0.009659727531731324","-0.012124212636610742","0.0490066620900031","-0.6669292718675073","0.07026773907686305","-0.5110482290106723","0.4844132826821695"
"-0.0316320308653242","0.10348404347397691","0.010699396125026158","-0.0880697520380351","-0.011652409089475384","-0.5687132924357773","0.12145358627067139","-0.4430004648363264","0.45669479684925207"
"-0.0229377722871896","0.12288624594663598","0.025597092630324614","-0.07224503687220664","-0.027039873175318932","-0.3481581105539978","0.15006973491957787","-0.4032905442925534","0.42609986437329633"
"-0.010825505076455012","0.11770304607841132","0.03325752596746373","-0.04465167060294769","-0.051581219837380225","-0.13528158839354262","0.16076944385938308","-0.3884487965810104","0.40550712136063366"
"-0.00012184255008488518","0.10312776340287451","0.021974640329736343","0.04336578602572757","-0.0325473283584376","-0.012082541082789784","0.16592425155173726","-0.3794645919662896","0.39073264542139013"
"-0.004442012897824623","0.10095061171473843","0.011102161602597837","0.08164182185026017","-0.048146838563360016","0.09615816644972212","0.17484067566824166","-0.3726307916866636","0.39584814428088483"
"0.002472955552691727","0.09679885823311639","-0.0011417271733905167","0.053079929483974775","-0.06662309182847219","0.2043486374916426","0.17525863304870276","-0.3907047422331649","0.39357640517075776"
"0.005029240882143256","0.08646985232337165","-0.01092647888931247","0.03596224160611202","-0.028642185553685844","0.28207929242662844","0.17119051454554784","-0.41425364860214653","0.40119245139607584"
"0.0006291565297539951","0.09103086046392769","-0.0032230883071036626","0.002865317251712322","-0.0006310368211893696","0.34867297850536993","0.15773228689469865","-0.44442527261663456","0.41835307057329474"
"0.0010874585323223229","0.08804766406682521","0.008734081510566179","-0.045573984719201474","-0.021499390492840345","0.42497419899792216","0.12805731288195746","-0.49893736287805307","0.421736164068232"
"0.0025220593386811796","0.09053123739045751","0.016227869650365236","-0.03465929251046526","-0.02128710504405596","0.5074397038432442","0.09545663720598795","-0.562750281705372","0.41678409967709174"
"0.008030348743499352","0.08306182050620829","0.022989298719291087","-0.03137824187560834","-0.07061511131632286","0.5802947496188936","0.03892093554227716","-0.6390434612750195","0.4073702742998746"
"0.018980493019149936","0.07782460733274359","0.01696475162348376","-0.04390842791218784","-0.08986918612433158","0.6049518870299728","-0.02563954782628823","-0.7103102356196911","0.3832800336644264"
"0.03227702800963043","0.06347888120447683","0.012610373954977314","-0.046860218184039765","-0.07361391252632098","0.5762903916731967","-0.09031148649630942","-0.7662999043199477","0.3595656923061936"
"0.05005741263448221","0.04393437444685847","0.008305748211169367","-0.05466234093781926","-0.06966018579135137","0.475137883081289","-0.15595865905407333","-0.8210230772154861","0.3273037282530222"
"0.07504546278712089","0.019063324818647687","-0.004973596043693526","-0.034021952275642704","0.009064688208295401","0.30079056500924856","-0.20647577443914394","-0.8612211263506608","0.3005168188897254"
"0.0987105991760434","0.00643491018179093","0.010328580098475062","-0.011676534072875862","0.06717896662912184","0.13710697349077916","-0.25242322246450594","-0.8926460535052346","0.2938323491340278"
"0.09719983936043422","0.02331479517148208","0.01859402905788176","0.03408584263682324","0.11980517557297567","-0.09006389309401229","-0.2715378066642623","-0.8905220344994049","0.31051900835301866"
"0.07792044131583738","0.026178539066611432","0.025504362808034753","0.07502580660297822","0.1541418084220125","-0.27158993286506583","-0.2597514085352579","-0.8642290538868669","0.3554308002568257"
"0.055457866273990186","0.032691297217667295","0.031493800617006275","0.10312172816313955","0.12094438497118724","-0.43921478335554237","-0.23130244283853593","-0.818780324227964","0.41305779379861"
"0.03956557036139997","0.049045902813899284","0.038366959828156647","0.07241194144052618","-0.017017702427523113","-0.5488856533955689","-0.17409800936608696","-0.7593341773939969","0.4518898234796309"
"0.024856579409222528","0.054769235734524135","0.027804227620996613","0.025833153070510557","-0.0719266381024992","-0.6111594866601647","-0.08276038982264475","-0.68628639332394","0.4669257945682417"
"-8.621823475919276e-05","0.06635508970850773","0.02407004517818381","-0.0006952195918590954","-0.05810056101538094","-0.6827282841259843","0.0038682432342689514","-0.6176185739118676","0.4559103114011508"
"-0.013868014169135565","0.07116850617931998","0.0036327227858454943","-0.01426633049534216","-0.0522010837746424","-0.6646722701162963","0.0840603326320809","-0.552090608682326","0.4334544154492471"
"-0.02106027458759244","0.08392914954227393","-0.004142125521335008","0.023512926535884618","-0.023759141572233987","-0.6089267537449883","0.13978798336023376","-0.4732908228325067","0.41581983631380043"
"-0.03286443961172645","0.13155953630729253","-0.007233188439402549","0.03364008957228722","0.017317015783869658","-0.472414551050775","0.17160847192600895","-0.40001876346369775","0.4081711031948115"
"-0.022985913253845944","0.15959451916167816","0.016219195591264623","0.005089172551435335","-0.06635743585535983","-0.17736375007741206","0.19133606028377498","-0.3464433523911854","0.39303707142518807"
"0.01072913133425365","0.11737065650770352","0.0115653150535271","-0.028125110979134862","-0.06885603798084909","0.054942402212285274","0.20362400726933244","-0.345229627244997","0.37273851045556344"
"0.008231577984122837","0.09426646519128637","-0.007395723784930653","0.037096360634240384","-0.023293884624729092","0.1279673298401764","0.2062710706789197","-0.3576703099934282","0.37242798496569"
"0.0010884213516554474","0.08210308433819799","-0.016973537233738043","0.05476666678217588","0.010470750228146876","0.1911099874348082","0.19936084198862866","-0.3701769560650218","0.38779082499100975"
"0.0033770429064977465","0.08398939515196473","-0.019978479136449522","0.034637498157296547","0.0450888348108595","0.24574884488294182","0.18088712577224625","-0.39102136618434447","0.4143652695454458"
"-0.003257745118078721","0.08931593802255713","-0.01035915411908921","-0.027421341021951644","0.047096811040060166","0.3134588974192715","0.15998925674918907","-0.43829068356253004","0.43731146890241257"
"-0.005366319457626326","0.0842895844830102","0.0047450676028904445","-0.05011720007891095","0.04640993478525613","0.4038117739758148","0.12398919437880225","-0.4930006637934359","0.44288458427329985"
"-0.00021619884473130963","0.09137883079576241","0.01486852067416957","-0.04256154122258547","0.03247137273654974","0.4756960663100831","0.08341946464870698","-0.5448478357990929","0.4438325041897558"
"0.0025384272673443474","0.08803000587088136","0.020262752808665865","-0.033010102446641924","-0.02356911378606172","0.5742275406102618","0.02445961017832143","-0.6104681496810619","0.44283555393279356"
"0.009001833450624242","0.08892226412475009","0.0165106026720018","-0.049838002695076294","-0.09265737719348387","0.6343171786317503","-0.03912563930250108","-0.6811676394465368","0.42770152216317003"
"0.027176974002058003","0.06352250733563222","0.018588452877031363","-0.07529887860159812","-0.12694614410141938","0.6131790224456775","-0.12224343036354104","-0.7664582162955375","0.3880359766935414"
"0.0466634744852104","0.03323454642229285","0.01453539549966279","-0.06400197480188825","-0.10707699195025858","0.4949412532854629","-0.1801444594700917","-0.8289122906657107","0.34325493236441806"
"0.06977595257691815","0.014309115240117753","0.022389962540482235","-0.04054746906057823","-0.04474835674516581","0.3351066991620694","-0.22676063930419144","-0.8661947609171068","0.3133791115492218"
"0.09789566889248491","8.76197139030404e-05","0.02657664173304355","-0.01867861190952917","0.010753877269761224","0.12940404493342036","-0.2517266268304039","-0.8899679425848407","0.2940448139428886"
"0.10615608107911259","0.016178806575349102","0.02240421278043324","0.04358721843359644","0.09038916146915524","-0.08152854346066922","-0.2654913565602575","-0.8946777238586371","0.30262512353149795"
"0.09188931304664028","0.022807901076152697","0.026733394372504583","0.09338447871450606","0.0746987059761403","-0.2828749416211208","-0.24347893452263727","-0.8657725956488673","0.3473734809669505"
"0.06283883928173989","0.05174241320626627","0.025418861368328736","0.12475471166232831","0.0849587704512097","-0.4749385099983658","-0.20421880458465366","-0.8125006158629022","0.4108023981353183"
"0.04030308997057506","0.0516219219868847","-0.00018840677319009201","0.061950704293121425","-0.04230001385783295","-0.5632285354919743","-0.13316604990625877","-0.7518539365473791","0.4461696170872245"
"0.018652171626553717","0.04922352349074626","-0.015216007639781022","0.007618123199217668","-0.05624096920359441","-0.6327102130588245","-0.048738659053107314","-0.6837138237206059","0.45296849097077035"
"0.0006772974964103233","0.047288392958781816","-0.020480335412984847","-0.006056964661003821","0.020653271878632137","-0.7062690550794752","0.0266329885567194","-0.6122491594064471","0.4460878998530473"
"-0.02082919794764201","0.0676410218601835","8.647829021258779e-05","-0.01550153823141066","0.03758824184028159","-0.7304408157698639","0.10754953741399713","-0.5208767641618719","0.43484360843026015"
"-0.030698096112191237","0.0882117814173622","0.014181824328704577","-0.03080059211595042","0.041821984330693944","-0.6510574531009268","0.14901090955574284","-0.4433962447753008","0.4195951725327886"
"-0.04012409738350218","0.12767473319964517","0.04498815827495596","-0.04350118483162902","0.03029586571349443","-0.5052988238775589","0.16455892410889753","-0.3848340064717101","0.40709243570367204"
"-0.029292379885826184","0.16726025363612668","0.06272454388353753","-0.016894636901785654","-0.05396015711011617","-0.16757370162108395","0.18202954261217344","-0.34946447259202396","0.3838683977505026"
"0.0069327347037348615","0.13475878592535506","0.03646486258252279","0.01893312669139682","-0.11589150500406793","0.10311604174082097","0.19991811849591043","-0.34757792154957895","0.36222967414037144"
"0.008659069768031128","0.09605098169902386","-0.003352579617962776","0.0949113995792018","-0.0826294625327559","0.20594552690271442","0.20518438148972104","-0.3595040903773433","0.36134712801125723"
"0.0017017372668571976","0.07269542076975892","-0.024210180826247336","0.09020162853879096","-0.03575673970928157","0.2502628483853638","0.21067355508644384","-0.37284187432078336","0.37917782850872933"
"0.009474577743189489","0.0700923949441535","-0.030067235971326208","0.051261295490651795","0.026437870860727488","0.28729709217405164","0.19913793138571645","-0.3959158447629955","0.4001955011391136"
"0.0019260741714757217","0.08609175918669154","-0.022834722883150537","-0.021073932912910636","0.04490215764056433","0.31469660805703237","0.17985616423377546","-0.43314554435586183","0.4185001615948136"
"-0.010180416123260101","0.09488761820154655","-0.006951074993416028","-0.058721293249015524","0.03385709173143315","0.4067725719720271","0.14708830560562164","-0.48561277159924554","0.4275380876948156"
"-0.0031229504114409644","0.09543502227580597","0.006367529705137961","-0.07390192893282542","0.013667237774893485","0.5158367211111905","0.09439781184215291","-0.5573017112121567","0.4258710561176"
"0.010923620839545248","0.0793380185968725","0.021882323557879845","-0.025417859105538124","-0.016958109330851963","0.5699319566321507","0.037416288972616764","-0.6284365589105033","0.41815694921126934"
