"AccX","AccY","AccZ","GyroX","GyroY","GyroZ","MagX","MagY","MagZ"
"0.08815569223664134","-0.011266184791030169","0.027857717652117038","-0.05946742418857366","-0.02599376303254943","0.20578049881767965","-0.26638299897190826","0.7034948623849512","-0.6551335479193376"
"0.06791578562531726","-0.04205169134302278","0.031586736964512814","-0.10554462001728634","-0.12937055401820155","0.41174768335910505","-0.2284603326514001","0.6979011725807786","-0.6182954187522411"
"0.035367678068967304","-0.050386359828520744","0.010615319709315242","-0.08083083779992205","-0.21278892287253895","0.5488180692821124","-0.17312277547834423","0.6718060819377276","-0.599843667275022"
"0.016335628311050746","-0.040482189338836905","-0.0073009287104739825","-0.03356175796711523","-0.17887590360224886","0.6064565548641134","-0.09488115385601788","0.6213969103770113","-0.5980949184636294"
"0.001502433664899962","-0.062383545896255235","-0.04143438389745953","0.057463328410178885","-0.15285119142545747","0.6255803976593206","-0.019593097722283327","0.5573465235863077","-0.6230350183345207"
"-0.016640933848540623","-0.08310907434729473","-0.07259697384248598","0.08695523688951351","-0.06455288987583979","0.6119413118079166","0.04371351350489815","0.4812248486568825","-0.6610825625674401"
"-0.020838826140973255","-0.0945401594274175","-0.04658305754932187","-0.010878414654948513","-0.019817620652245224","0.5666071260954205","0.1023111382455508","0.41189739601318576","-0.6851401163092175"
"-0.010969927976424031","-0.12201215744641677","0.014723333446842684","0.0021963988300284618","0.02706491468915487","0.41245147960410633","0.1471161694309856","0.36522174854346195","-0.6965968725408653"
"0.0037255835050896235","-0.13130867825215042","0.011503336836001072","0.062326176636899065","0.04011317023337658","0.20676338667707797","0.1716363357513729","0.3141001730925914","-0.7298884737446699"
"0.006195215094559758","-0.11773264172355392","0.0024086478265760145","0.010748792346643657","0.04990654178270804","-0.00713364003862908","0.18214099791362987","0.29588110323513284","-0.7353144980940383"
"0.008238317719454725","-0.10160136037014122","0.00025500286702444805","-0.04809638866970769","0.02750528134728708","-0.1546893765703537","0.18888404365173628","0.31565690751922443","-0.7183990306193511"
"0.015318891095268886","-0.09215630297499755","-0.005454799798560724","-0.06202448712465935","0.05532975290948838","-0.25547542573814","0.17818433471193076","0.3537573229778345","-0.6892913518054208"
"0.008835265705993325","-0.08528310988320542","-0.01275009655260748","-0.06905641019889497","0.06368475292872498","-0.3191811203287729","0.16528338356836364","0.40333535666670445","-0.6488249774408553"
"0.0026963296379771268","-0.09239936284857761","-0.007456442198634925","-0.005473442128789389","0.04990654178270804","-0.385022472490444","0.13647218814190828","0.4569899237270117","-0.6109245242294548"
"0.0020483522267828254","-0.08802532384154473","-0.021959055964422245","0.037355340276487015","0.052216073440847076","-0.4612023488028236","0.0999705769149682","0.49886344127051185","-0.5989774645927435"
"0.005801421987310909","-0.08805752408120704","-0.014726542876246574","0.051780217524744473","0.0716616120132611","-0.5231121495269015","0.05806338356739746","0.5371485540339765","-0.5956760883319833"
"0.0146141073434201","-0.08004070312269838","-0.010198270975294552","0.06988664924122169","0.04340156038703773","-0.5683007222231904","-0.014076060300196562","0.5819244577966229","-0.6028018311522381"
"0.02459180409261267","-0.06442047073424895","-0.008364327051165486","0.0715936042810108","0.00759711845412872","-0.5542005284871303","-0.0983919958518913","0.6191541573894892","-0.626777667659838"
"0.035962700416839646","-0.03515668518565295","-0.003166913448166377","0.04470689621773336","0.0012704376890608417","-0.46816750474473284","-0.19048193868016386","0.6534287001046792","-0.6545124969395906"
"0.0513812892175315","-0.0026745376186787387","0.013148578669648525","0.02243272148532433","0.06557067100811727","-0.33653333809345953","-0.2337823232959389","0.6783232582661742","-0.6653808890851626"
"0.0778848170005117","0.011413378848807778","0.044732067006271276","0.013389614497879737","0.09113108355622579","-0.17067525886629648","-0.25097430354557393","0.6946161990872903","-0.6606903198433896"
"0.0939654403746615","0.011966599740554569","0.036987371380726226","0.00016721149931016514","-0.014695246965286733","0.03879391871491115","-0.2648226247515198","0.7004473568548476","-0.6640897567851624"
"0.08728058574476244","-0.017468366436955932","0.027792868734079143","-0.05934708048864492","-0.06196334246225803","0.27249310219299033","-0.2595842255830735","0.6971096127028295","-0.6522734447231344"
"0.05479063247613334","-0.03870806000518405","0.020947383901964045","-0.08289208469230136","-0.14348143345487274","0.46256662601540416","-0.2128565904475173","0.6795369834123625","-0.6242607768471792"
"0.02692471533677879","-0.046183709193884065","-0.01635809208802807","-0.06088362884933497","-0.18438048682890146","0.5832070099430369","-0.15144471934509307","0.6485210288613957","-0.6142095570433797"
"0.005857265508632268","-0.050724981703679305","-0.020695121638333293","-0.01622360043098305","-0.18198718977383513","0.6314777248157105","-0.08699569127798426","0.601027436184458","-0.6190472173066718"
"-0.01199051646953839","-0.07213294749207826","-0.018061925125647974","0.05996551461909706","-0.14601114844207785","0.6727590149104407","-0.01747544699461357","0.5307501116872225","-0.6474030975661714"
"-0.018874674701394686","-0.09696556457617593","0.003462959057733547","0.08266618742405352","-0.10297009420376474","0.625143558610699","0.044967385646281756","0.44813764575861575","-0.6967439635623844"
"-0.0019964517916826697","-0.09632883080478882","-0.009807525265333725","0.017296452372366072","-0.019490217615112153","0.524524964411551","0.10532043138487096","0.3661848130616332","-0.7420316547434067"
"-0.006078805764140107","-0.13299140045385863","0.0216301562683121","-0.03481910894397062","-0.012137769732242839","0.33772773345379836","0.14313164240392287","0.3250236994082871","-0.7580645760889797"
"0.00790133095286036","-0.13262784936089697","0.00038490722831692286","-0.03943645602283618","0.009919813246070603","0.10770285175134653","0.1593205249404512","0.3099576763979919","-0.7645365810358165"
"0.013263271819043266","-0.11010845594544386","-0.025065195223307513","-0.02068305657554212","0.024817608754447575","-0.10817329854297619","0.16556202182200436","0.3175302658970369","-0.7572637471940427"
"0.0076018941402579525","-0.08391927392589497","-0.034387743504296936","-0.05636159398081295","0.09096594605942622","-0.1961478291681358","0.16322146049142178","0.3447863110277462","-0.7285973414446697"
"0.009252166477237212","-0.09240247900080299","-0.02449931612960102","-0.07110032759848454","0.11659097762802156","-0.27930742272404535","0.16681589396338767","0.39419284007639405","-0.6770501101256714"
"0.003511837613135486","-0.07593984679409098","-0.015823191776823755","-0.038216652280358566","0.09063806436288215","-0.32813632082551325","0.14700471412952948","0.440762946229058","-0.6306183776661678"
"-0.003999116004586322","-0.08772928938013308","0.003279977715754003","-0.02086116525143664","0.09749964701975734","-0.3594916569821218","0.12699848751812243","0.4784280037547961","-0.5964932606737555"
"0.00031912870448716713","-0.096459709198255","0.013726642751139207","0.016317336029745912","0.07860935336411869","-0.46086258509834027","0.0958467307610851","0.5244044399989983","-0.5731221316990671"
"0.007534496786939083","-0.09237339491336605","0.008147364022496554","0.06679237202865414","0.029412739100174952","-0.5498321380009156","0.02855559250684058","0.5717661060296113","-0.5765379120876755"
"0.018002268576693157","-0.08301974465016702","-0.002531641881655002","0.0874837864196005","-0.0070898275836969085","-0.6221290005477708","-0.06765819647531508","0.623468158724311","-0.6038804986433775"
"0.029002479457666337","-0.05699156382892972","-0.009553292723599165","0.05309244522876736","-0.058885562449442715","-0.586623693429258","-0.17159026508332004","0.6644709604020673","-0.6393294348294609"
"0.044611706486317286","-0.03471003670001436","-0.017045821059576464","0.015934161689172832","-0.04718473314722335","-0.47304554078767275","-0.263819527038413","0.6982309891965905","-0.6683390529623785"
"0.05967020085641974","-0.0023042348625620847","-0.0005888591683349416","-0.007398845052689147","0.06166720351130406","-0.3119004695184148","-0.3165657484526096","0.731146687454635","-0.6705127313914928"
"0.08386488787856197","0.016096747900080616","0.011803521238447197","-0.003967509205361215","0.10698188995193018","-0.13080641502877588","-0.33707352392056994","0.7472285456416314","-0.6628476548256682"
"0.09003559698457135","-0.004344171981040331","0.013460431746837137","-0.017772664536465678","0.03715505507331457","0.06345833677680073","-0.3384109875380457","0.753178437390881","-0.6485634822914883"
"0.08394576470254461","-0.022533152520615964","0.0049652234838726056","-0.03973105740026172","-0.035057896969202196","0.28753978053439694","-0.3161477910721485","0.7485082341109821","-0.6307981555813579"
"0.056079847563190066","-0.03828841817216546","-0.0006033159335026242","-0.05478461013694686","-0.11924451417821588","0.48142351161423147","-0.26657804574945665","0.7276902093209244","-0.6071818749041376"
"0.028366055878469545","-0.04845019057914784","-0.011228005705667024","-0.0456615949327496","-0.1539497147737329","0.5863862274635598","-0.1890887474119602","0.6868852976126554","-0.5944503298193248"
"0.007029016637047534","-0.045732905838611615","0.00498484337945732","0.007993691817955253","-0.18665172573415942","0.6457720692400469","-0.10195856549849325","0.6314101428330656","-0.6023278711940101"
"-0.01369470668917276","-0.061139162440917924","0.00044831046983805203","0.07917140637812317","-0.1612253378211346","0.6966880872404841","-0.013045098761725478","0.5483359336423219","-0.640391758873765"
"-0.025652922806607033","-0.0969312869016967","0.0035261557740379947","0.10813765357616907","-0.11331392407576148","0.6513296326919535","0.04516243242383002","0.4531904363128567","-0.7028890995725123"
"-0.008206636490350253","-0.10336717996452637","-0.004516142688744665","0.02906221522699828","-0.014436292223928556","0.5337713909407058","0.08977241683171655","0.38702922318095584","-0.7469020019003697"
"-0.0010528888452184595","-0.13691775225784447","-0.008756518437643086","-0.05416459939491404","0.0330649104062062","0.3659766585979875","0.13853411121885015","0.34524805428988314","-0.7639972472902469"
"0.014864440370033056","-0.1511170192315181","-0.009181547333573","-0.05004306835975485","0.016101699539306968","0.04870045758420498","0.1635000987450625","0.3384538320041546","-0.7631637315016391"
"0.010222688365028978","-0.11973736632188532","-0.015969824680667405","-0.05767478443443528","0.04351404534862585","-0.17538098617339123","0.15592113824603387","0.35367816699003957","-0.7468366281130281"
"0.011017014314858548","-0.07068913029431627","-0.022929724482823887","-0.060259767108904426","0.06020250571360346","-0.20801528998901941","0.15837315487807258","0.38848041629052893","-0.7074816081332728"
"0.014824001958041741","-0.07845146548775175","-0.03162650135726928","-0.042925460571169964","0.11430537894043319","-0.2334757258728415","0.15664559770549996","0.4229132709813088","-0.6664759000231376"
"0.006964507741728038","-0.07966884229046904","-0.02297102952616013","-0.009198416603943426","0.09030539607222791","-0.293019315083553","0.14243504676982102","0.4565941437880372","-0.6252413836573059"
"0.003921035829714361","-0.08388603496882419","-0.04285114688389256","0.02458735508884833","0.0884146913987255","-0.3191083138206693","0.12220590955550144","0.4872670890585596","-0.6034719124724912"
"0.0021821841140874402","-0.09173354498975356","-0.031694654678774074","0.056643065751464654","0.10419130558572284","-0.38150349126543764","0.0897445530063523","0.5197606220483645","-0.5789567422193216"
"0.009177066569253314","-0.09262580324362228","-0.030056909710492144","0.07298092645378922","0.12494837094431321","-0.4741861760812955","0.04998287421181526","0.5557897891596747","-0.5736124351041304"
"0.02052004113281962","-0.08105241387854024","-0.02510856551881056","0.07496804162701243","0.10734567110430027","-0.524932312229491","-0.009673575892672419","0.5923334701916518","-0.5801007834978027"
"0.02559795029573013","-0.06394162200894803","-0.018815742166534363","0.07702543752099403","0.0813401053039494","-0.4944749230061599","-0.07888731809703811","0.6247082691997644","-0.5903317812167923"
"0.03531183454764596","-0.0342104136265442","-0.010282326738483805","0.06883628942824373","0.06962252292234457","-0.42967713079397335","-0.1524478170581996","0.6493653593978747","-0.6133923847016073"
"0.05014117791646424","-0.010964956742576228","0.009819206304052547","0.05796299545228298","0.1555993263285479","-0.3133080620084174","-0.19984418400249376","0.6642334924386827","-0.6236724127611031"
"0.0692916544523554","0.006347346304257594","0.03806749826396891","0.0463012095543892","0.15805724240410104","-0.16725092610182477","-0.20898351872191084","0.6735211283399505","-0.6240646554851539"
"0.0854419859462236","-0.0005848459363351681","0.05095880228920949","0.001413298305852221","0.09915820187891833","0.023425192919326366","-0.19677916321244524","0.6740356422606172","-0.6147815776826202"
"0.08541117572756353","-0.020137870176702915","0.05085347442870208","-0.047891323005029136","-0.022488540165699265","0.2465982541441502","-0.18059028067591676","0.670368081492787","-0.598013201229452"
"0.05882869675926695","-0.042866045791256885","0.03526495107360501","-0.06470863300786976","-0.13477461876854135","0.4091509179034106","-0.15253140853429192","0.6548535078849875","-0.5803132483066634"
"0.03054010193266976","-0.04429012735825809","-0.0003267786683664977","-0.05280712245971795","-0.19065571170728543","0.5145990104734296","-0.10421553535298368","0.6208692037917118","-0.5756226790648904"
"0.01285407360246439","-0.05006331871448911","-0.020439030369648604","-0.019984100366356047","-0.1625919104395775","0.5762418540011276","-0.03633925676609344","0.5753149328157492","-0.5849547872079304"
"0.006398369973849509","-0.07408885237221194","-0.01771496276162356","0.01815618776465693","-0.13308734434471958","0.6158243255734408","0.02206332119701094","0.5173595570852526","-0.6051716309433777"
"-0.011557247769631351","-0.07815646974374858","0.008611715319682568","0.009757641634030626","-0.11146151215514014","0.5911914569983961","0.07636991683159586","0.4501033527888557","-0.6306510645598388"
"-0.018441406001487647","-0.09787548102598854","-0.009794720701899488","-0.013227523677557352","-0.08089910876194292","0.5293059251103528","0.12343191787152048","0.387306269138238","-0.657013044305414"
"-0.013559911982535004","-0.11594604778099951","0.01281070341515808","-0.018468732496853463","-0.1313378441974661","0.3403973054175963","0.1581223804497958","0.3373060701811285","-0.6972669538611187"
"0.007769424704222011","-0.11714057280073067","-0.02777067556183125","-0.039577980213952375","-0.10252972754563254","0.14621749453814056","0.16926791059542637","0.3165144307203358","-0.7306402722991004"
"0.013233424419716337","-0.12295739028811709","-0.04766111918039774","-0.03706135276104274","-0.03966978039431504","-0.044843770910878544","0.17472922036678523","0.3197202482260291","-0.742260462999103"
"0.011259644786806489","-0.09689285435758363","-0.035866464055734334","-0.04575690714309315","0.012093644961187365","-0.16516865997006236","0.17085614864117893","0.34450926507046403","-0.7325524555788477"
"0.01820349781731664","-0.08358169076814488","-0.03616179511558845","-0.059188226804739","0.07652000503504579","-0.2055689913167391","0.15737005716496574","0.3749843203714991","-0.7037389588079555"
"0.008828525970661437","-0.08892693055208963","-0.014621215015739163","-0.03607357167202772","0.09540551209657429","-0.23949197032580066","0.14558365903596124","0.42162038984732547","-0.6610498756737692"
"0.005953547441944942","-0.07684768580908663","-0.035951139394573624","0.0310560696474175","0.13126906846674344","-0.3017803648920172","0.1348560862707918","0.45072340802658245","-0.6312884589864212"
"2.2580349884133548e-05","-0.09830031644604945","0.002134795389256742","0.020058580973130315","0.1863436202979301","-0.3530361465969377","0.12281891371351111","0.4769108473220606","-0.6038641551965419"
"0.009718171034470554","-0.08333032115529711","0.02154320915208931","0.01138131883346907","0.11557382637961837","-0.4725601640669822","0.0979365176633906","0.5240878160478187","-0.5743642336585609"
"0.01877156122386143","-0.09635583745740885","-0.010289348595850966","-0.011978837447096834","0.11399664362032966","-0.5809447857971789","0.04084353949239834","0.5811328979186741","-0.5467764954003272"
"0.02010699163890824","-0.07574456792130013","0.0022122423455121928","0.028554846188098747","0.007459264543756895","-0.649140215054199","-0.05071699065395701","0.6445368441423858","-0.5402227732193133"
"0.027654532391288872","-0.04411354539881958","-0.0044417936107394316","0.075173107291691","-0.039877997238105804","-0.5370424614107199","-0.16373266633065053","0.6873866188686898","-0.5741517688497002"
"0.04414955320641645","-0.008957115992019454","-0.011370508105177056","0.057738674795615834","-0.00665879478407946","-0.3538370181860771","-0.23826839917955503","0.7127956909508515","-0.6050245399218586"
"0.07896895156961242","0.022643783725615717","0.00888414273300674","0.06997233395557094","0.01903540306940729","-0.1992008487412793","-0.27312604471001467","0.7226638040959487","-0.6341485621826244"
"0.09597249504372421","0.011539271398713358","0.009440810802049249","0.031667415643055453","0.020452234926006566","0.012030489024395347","-0.2913768503234847","0.7187455827001011","-0.6572581960079455"
"0.0898872265253365","-0.00862161026908627","0.01944904345494193","-0.060919250584513876","-0.009138250533128191","0.25569906765709777","-0.2699495686185097","0.7046690095372421","-0.65394047630035"
"0.05848015616067507","-0.030029576057485213","0.017116341132527763","-0.094439303387863","-0.08577664816016814","0.4590476447903977","-0.21653461539557536","0.6922283267888109","-0.6125588689129995"
"0.030680673555306265","-0.04958654742400511","0.01044976909562359","-0.07767879561138873","-0.14914876088126985","0.5747371861669869","-0.15428682953222878","0.6734551650167881","-0.5753775273623588"
"0.007078120423036988","-0.05906795992844498","-0.001101867806571043","0.05936860986745056","-0.22069158974836803","0.6355791581055457","-0.08707928275407673","0.6163968904813004","-0.5926525506674256"
"-0.004297589997855622","-0.07573314202980706","-0.06655611125456085","0.19683577417164128","-0.09419387390283646","0.6278131305744971","-0.024664313938545356","0.5218846410541941","-0.6714769947547841"
"-0.011711298862931633","-0.07952134441846748","-0.0092980275557812","0.048891968726454925","0.07956427888909016","0.6330794679939894","0.060961221405261515","0.4203143160487098","-0.7076613860484627"
"-0.00693571497062294","-0.0954365725509201","0.07039902093541096","0.029499303545139435","0.02083037586070705","0.5414646119636507","0.11395821724773463","0.35433780022166367","-0.719608445685174"
"-0.006088433957471386","-0.14515478130694703","0.05982699509350028","0.0356551244838939","-0.00542720411954232","0.3630401294378098","0.1507106029029515","0.3002874532223821","-0.744205333172521"
"0.0035330196384642763","-0.11414906666436052","0.0051085519842493585","-0.03001691394201452","-0.002633508467163379","0.1284454259100566","0.17550940747697955","0.2687305994214834","-0.7591922739206255"
"0.006210620203889784","-0.10311788778649555","-0.013094993664465085","-0.13134630928200636","-0.003957480398026079","-0.0610723415671666","0.18255895529409094","0.2856040174864288","-0.7460684861117619"
"0.011619739217395893","-0.1000121227351946","-0.02568683612551793","-0.1360348998312297","0.030685973133470247","-0.17984887888734763","0.1770140540466396","0.33436410596808497","-0.708919831454792"
"0.013156398873066204","-0.08434203191113895","-0.030484416909022233","-0.07179639555887232","0.0793273424806386","-0.25370380070761955","0.17626173076180957","0.37965452365139807","-0.6636157968269344"
"0.004644113148892562","-0.08678925012547511","-0.026795876539095976","-0.03631425907188518","0.1047633035818837","-0.2878985906802678","0.16508833679081475","0.41749108581735844","-0.6237214431016094"
"0.006376225129187594","-0.0857079453032663","-0.028885911731909734","0.003676241239312086","0.09447930613626362","-0.3584723658686717","0.15675705300695608","0.45417988616029287","-0.5878475772978045"
"0.002766615449295387","-0.08770539887973844","-0.029798753189640644","0.026398287085375883","0.07847054213492485","-0.4517617715853927","0.1207291268112053","0.4970428535512291","-0.5687911182876737"
"0.00030661205315653137","-0.08984931161080374","-0.03915641075746587","0.0551671706155387","0.10244898532963455","-0.5110020003456727","0.06285596153001875","0.5419638766248328","-0.5620576181914699"
"0.009847188825109546","-0.0817047284110543","-0.02071783941216822","0.0836106447810942","0.09059498501589094","-0.554831518224028","-0.006859329530900518","0.5879271202044026","-0.5644110745357742"
"0.02531680705045711","-0.062485340202284495","-0.007401919541431088","0.1255152838458779","0.05411635130256974","-0.5691501314843987","-0.08512881497859129","0.6220829289379003","-0.5905932763661593"
"0.037923963398418845","-0.026636086284040312","-0.0008901794594728119","0.10037789180476447","0.09019291111063979","-0.4758607257676778","-0.15439828483368503","0.6427162564231034","-0.627513122767433"
"0.05312399221049093","-0.0005452708030727709","0.03281762725593277","0.03488685030354888","0.07506488042556544","-0.3273597180724084","-0.19045407485480007","0.661621344841451","-0.640685940916803"
"0.07680068243141096","0.009711128759820482","0.04514718269180049","0.03912487404023908","0.031207711891474713","-0.1552014490106822","-0.22333338878441017","0.6736398623216427","-0.6534338294484511"
"0.09105060112555356","-0.003747013342915609","0.023991565595844953","0.03242413682820732","-0.01017598413620496","0.055134126016958024","-0.23656870583234638","0.6733496236997282","-0.6709213175623789"
"0.08252945746351516","-0.013263638367502325","0.03288784582960438","-0.03499721761986514","-0.02551821490770775","0.2590481670298625","-0.22283183992785674","0.6707638614317616","-0.6617689873345288"
"0.05530381518068991","-0.038431761174533195","0.03886468560035834","-0.043778456716264805","-0.05234946819205652","0.41245147960410633","-0.1941599636282219","0.652162204299961","-0.648743260206678"
"0.03529354098031655","-0.05459524276760821","0.021698516115033577","-0.03558160662671906","-0.11938093211035467","0.5232629849377556","-0.14369857589387983","0.6221356995964303","-0.6406369105762967"
"0.015228386077954976","-0.06419091418697888","0.020302818700702017","-0.010737853213431755","-0.15196327821802785","0.5801976742747555","-0.07459628899097039","0.5678083066398665","-0.6540548804281981"
"-0.0013898756118128253","-0.08061199769735243","0.007732661387400703","0.0035623479616995347","-0.11695173559946231","0.6125965703808488","-0.010258716225317835","0.505591700233078","-0.6777365348927601"
"-0.007311214510542354","-0.07978310120539986","-0.005591312966786996","-0.015788437612040754","-0.09118549950461807","0.567092502816111","0.040425582111937246","0.4495228755450264","-0.7003068349725117"
"-0.005963267444164891","-0.09420465370448432","-0.01518502885727884","-0.05268389051099093","-0.08278742013839027","0.500426010229266","0.0898560083078084","0.4003010438012335","-0.7165849080206164"
"-0.005510742357595345","-0.12428694857094827","-0.028906564253577856","-0.061532522079350685","-0.05475951832650833","0.36194803181625607","0.13092728689445726","0.36520855587882944","-0.7318333439180881"
"0.005080270306798975","-0.1289923384312805","-0.03441046127813187","-0.04140720445286909","-0.026411632698364017","0.16610095190122834","0.1602678950028298","0.33556463844964085","-0.7454801220256858"
"0.00921846780057777","-0.10842573374373565","-0.04587674130827216","-0.021200053110435945","0.003402386705713938","-0.01256937393364239","0.1689614085164217","0.3333614634560162","-0.7472125273902431"
"0.008091006361486333","-0.09299143177140086","-0.03950956887799073","-0.08631369676867505","0.07502419437562931","-0.12187548336807003","0.17369825882831447","0.3574116910810322","-0.7245931969699851"
"0.007960062932181091","-0.09742052280108224","0.008444244021475781","-0.0825580105812992","0.09216738118106953","-0.22932818179454087","0.16770753637503807","0.4049184764226024","-0.6792237885547857"
"0.015332370565932663","-0.0890141828144004","0.016779291978904043","0.013846920557608914","0.041187760611101354","-0.3315582267063815","0.1397601195348695","0.4462247093869057","-0.6520119495737674"
"0.009270460044566614","-0.08646620901144346","-0.0030206935947560847","0.009487686646350494","0.02946778493244148","-0.36051094809557194","0.10217181911873043","0.48704281375980735","-0.6370413522724985"
"0.006660256832459975","-0.09100228793419642","-0.019340316216904612","-0.019430519346683883","0.046783289125846464","-0.40497145571082505","0.0742522661039258","0.5316604055468639","-0.6148796383636328"
