"AccX","AccY","AccZ","GyroX","GyroY","GyroZ","MagX","MagY","MagZ"
"0.009166475556588926","-0.14884222810698663","0.01867478041760411","0.03376043327221595","-0.02090178421819028","0.15031164717716522","0.14536074843304903","0.3410395942721211","-0.7688185641067036"
"0.013681135409620277","-0.10764669568738926","-0.031238233949908618","-0.0312867806636625","-0.007826963076657343","-0.08680216153097191","0.1431595062292868","0.3367519782665643","-0.7754540035218948"
"0.003232620006528728","-0.09966415240335987","-0.041601669322971296","-0.10784559155992368","0.103475709766258","-0.1732695974383874","0.1389242047739473","0.37242494343279753","-0.7366383172877092"
"0.011818080000020005","-0.10331524409410328","-0.018939657296543084","-0.058424766372391135","0.14466435208394976","-0.2770018833007653","0.13560840955562214","0.42272857367645406","-0.686921552014281"
"0.011036270701521089","-0.09539398513717315","-0.02139317687071575","0.02265704214199148","0.14244815901095834","-0.36092351830815894","0.12410064968025868","0.459377796025491","-0.6439382868370567"
"-0.0012165681318500028","-0.08896120822656886","-0.02596771042020436","0.04721004517625097","0.13004609367160452","-0.4387294066348518","0.11028019229967657","0.4896813466863039","-0.6092901795459101"
"-0.008370315776981779","-0.09947302840020289","-0.028753735593233763","0.03853085753739086","0.1525765921479991","-0.5328196839407122","0.06346896568802811","0.5342725531440955","-0.590250063982615"
"-0.00474048689109394","-0.0864049246843442","-0.013739352340510436","0.02976117143618435","0.1645167511557251","-0.6157220278346558","-0.003515670487211409","0.5901698731919247","-0.5709811401636236"
"0.013624329068965794","-0.06615201265415487","0.021285259156454493","0.08833196881669819","0.07017776783911997","-0.6121059712655113","-0.10112265073757105","0.6385473743992388","-0.5860007678053989"
"0.031997810403023665","-0.03086158870166316","0.020597323659689408","0.08328427266688748","0.021376047589262172","-0.5555838521410983","-0.18752837319157206","0.6698007969135902","-0.6183281056459121"
"0.05479063247613334","0.012211217690247333","0.03862511634900815","0.03154418369432844","-0.032772298281613835","-0.36803428726627524","-0.24579163202785562","0.7014104213730189","-0.6320075706471808"
"0.09169183880141599","0.046888486756523996","0.024720393085512913","0.015912981197985378","-0.028805169083135868","-0.15103934363076085","-0.28711368504278095","0.7145239300177066","-0.6587617931168067"
"0.09278319451551516","0.007470823053249942","0.022080174715460435","0.01756120851220928","-0.03092443362539711","0.09480881916620243","-0.3000146361863484","0.7140094160970398","-0.667848749557315"
"0.08235807562221859","-0.012380728570309744","0.0006133241179663329","-0.02892900689465879","-0.0791520019117445","0.3157401680065171","-0.2861941788057664","0.6966742547699576","-0.6762492812307346"
"0.05449504694086343","-0.021431073350237934","-0.023278752099015122","-0.10350359086649505","-0.10197208933180207","0.5270974610312109","-0.23013216217324464","0.6779538636564646","-0.6536299508104767"
"0.011771864672029925","-0.04835151242534396","0.008353682713961075","-0.07263302496077687","-0.10909454136767952","0.6566445077835149","-0.15634875260917033","0.649681983349054","-0.6123300606573031"
"-0.008293290230331648","-0.06231499054729675","0.019894311822106603","0.07023997834421244","-0.1862281121554127","0.6947708491937564","-0.07819072246293597","0.5824389717172898","-0.6332823595003456"
"-0.011066209909736705","-0.076783285329762","0.004596575972096661","0.12448514177448794","-0.12105624004890107","0.7094049573225762","-0.009785031194128527","0.4917262097043387","-0.6931484052585862"
"-0.024728616246805363","-0.09835225231647253","-0.0012600661225488452","0.07367314341577928","-0.023808682821273863","0.6789475680992451","0.0750324532141201","0.38837487497346906","-0.7366873476282157"
"-0.019115379534676378","-0.1574739697713047","0.02362064630668552","-0.0013674113621810172","0.0221706222115442","0.48545213839596296","0.1319861122582923","0.320538193433243","-0.7623302157130311"
"0.0028301615252817416","-0.1425164390894539","0.018016171501607756","-0.029344914721612485","0.025155063639211935","0.13176297579597637","0.1594319802419076","0.28642196269364273","-0.7832661711092381"
"0.009056714152612475","-0.12476475857884071","0.009388477312142233","-0.18112046357252962","-0.03177668670670624","-0.11054679070715291","0.15926479728972298","0.31448276036693346","-0.766644885677589"
"0.00937637017121055","-0.09850494377551644","-0.012368024901747258","-0.15532840180380392","0.008634134068088963","-0.2571014377524533","0.15539172556411637","0.3749843203714991","-0.7193306070889715"
"0.0034896927684735708","-0.08499746259587837","0.0006056826849491266","-0.09478589324365774","0.024805642269172243","-0.3354412404719058","0.13836692826666552","0.44436454367372574","-0.6629620589535166"
"0.007345784197646235","-0.09852467940627721","-0.03959424421683002","-0.009988834025075333","0.04304256582877778","-0.3850710101625131","0.11418112785064714","0.4905916405459452","-0.6398687685750305"
"0.002300610892062029","-0.09812165705179399","-0.03391273550593018","-0.02655486638246478","0.08292925454851345","-0.4645271793395538","0.07762378897297915","0.5303807170775131","-0.6194558034775579"
"0.0027329167726359437","-0.09890381126036579","-0.031124645080733957","-0.016049342753486243","0.09798069972782569","-0.573809748003028","0.016518419949559604","0.5926369014781989","-0.5900866295142606"
"0.010688692922262318","-0.08388915112104957","-0.03229770831148318","0.02776924251496399","0.1064194651439896","-0.6408645419664255","-0.07412260395978108","0.6534946634278417","-0.5791528635813468"
"0.022269483861110936","-0.06241055254887523","-0.013249887576975986","0.04935120028538296","0.08576770485582214","-0.606378525961363","-0.1816491060397518","0.7079671756953628","-0.5834838769927402"
"0.028439230147787178","-0.035036193966271376","-0.021826879825746277","0.06984910200684392","0.07620887641788715","-0.5239130211160409","-0.2771941632131697","0.743283938916519","-0.6085220375446442"
"0.05182322329143668","0.01172229340608434","0.016298501274470207","0.037774136352239","0.05854634415149755","-0.3538127493500426","-0.34727168400382175","0.7652101475357054","-0.6304059128573071"
"0.09212010084079077","0.04300056749665126","0.028417814039756458","0.004675093948720556","0.054571077743032353","-0.1269185474960447","-0.3764729729853739","0.7803289412045304","-0.6364856750800931"
"0.09468486860856715","0.022110921695074788","0.030867409634812187","-0.029665510338222626","0.0382272521539843","0.10080322166673056","-0.37755966217457304","0.7872946681304814","-0.6198317027547733"
"0.07687193106206235","-0.01858187149882705","0.013032511497873689","-0.03668491766766567","-0.062138053147277855","0.35328405735192997","-0.33790943868149226","0.7718064798519467","-0.6010367388940097"
"0.05144387247418474","-0.03826972125881315","-0.01406772743503354","-0.03170268849061619","-0.1546318044344268","0.5408336222267531","-0.28477312371219865","0.7405266720083301","-0.5900375991737542"
"0.01896316227115366","-0.05462744300727052","-0.017031364294408782","0.0002094762067251356","-0.1613162831092271","0.6621292647273179","-0.19471724013550354","0.6980594845563683","-0.5839251500572972"
"-0.003565847304679283","-0.07610188670981102","-0.007162143764864214","0.0915090424948167","-0.16073471192484598","0.6947708491937564","-0.0925963201761635","0.6208032404685495","-0.616089053429456"
"-0.01395466790911696","-0.07836629066025788","-0.013413042498154136","0.10909077567960464","-0.07224973320493316","0.6782680406902782","-0.013463056142186578","0.5269902022669649","-0.6705127313914928"
"-0.022697067453907923","-0.09296754127100626","0.019516783726013363","0.0434408804944831","-0.045152823947472026","0.6034714880318667","0.06391478689385348","0.4346679351688509","-0.7150813109117554"
"-0.0150137691755564","-0.12392339747798661","0.03875935773985093","0.015975559921948317","0.017594638242257352","0.454727791976252","0.10791176714373002","0.3783880278466797","-0.7442543635130274"
"0.0003258684398190558","-0.1706449065106011","-0.0010479647250172515","0.025820637325717974","-0.0033565235074989206","0.147962423849023","0.13563627338098608","0.34563064156422507","-0.7628368625649301"
"0.010923620839545248","-0.12177325244247056","-0.02076740546417171","-0.034412828613011225","6.756658918449623e-05","-0.12005046689827362","0.1445248336721265","0.34673882539335366","-0.7683119172548046"
"0.01561447663053881","-0.11509429950606079","-0.037533122554351636","-0.09615781142284527","0.03280643432425904","-0.2116992992990606","0.14396755716484505","0.3821611299315697","-0.7412961996358115"
"0.016004418460455146","-0.0955394055743578","-0.04111633506377047","-0.06922681687799406","0.06072424447160792","-0.2861269656497474","0.13619354988826754","0.43437769654693636","-0.6975284490104859"
"0.008510795590729613","-0.08982853726263453","-0.0459861996731132","0.029106501708572055","0.13708717360760972","-0.31224023322289823","0.12181581600040428","0.4707102949447938","-0.6597750868206045"
"0.0014542926982436168","-0.08663863610124813","-0.030951163898721747","0.04538852293412969","0.14824951107243917","-0.3850710101625131","0.10559906963851169","0.4965415322951949","-0.6304549431978134"
"0.0005877552984295385","-0.09022221116044153","-0.020356420282976125","0.0382709151455448","0.1439726892350356","-0.5198115878262058","0.058899298328319964","0.5388767931008318","-0.6111533324851511"
"0.011275049896136514","-0.08463079535069135","-0.00913859008850331","0.026827673406721594","0.15171261191112015","-0.6054320413560164","-0.012376366952987593","0.5914759469905404","-0.5914594790484381"
"0.018213126010647923","-0.07535504889312694","-0.009146024996303834","0.0359227688725354","0.13419846406214464","-0.6034905344732542","-0.09332077963562958","0.6378877411676146","-0.5856248685281837"
"0.01690465453692865","-0.04186991579654196","0.014437296021739222","0.05937534911464658","0.10890131419009338","-0.5491768794279833","-0.18571722454290698","0.6768852578212335","-0.5903971550041341"
"0.049803228330536756","0.007361653853620601","0.03085894210092826","0.07735277238480016","0.03294285225639781","-0.3548563092995273","-0.24177924117542862","0.7059355053419605","-0.6076558348623655"
"0.08850606219196618","0.033055887028037405","0.046130242723203006","0.04810347680452187","0.059704699926149664","-0.15892914222558552","-0.2651291268305248","0.71390387477998","-0.627692900682623"
"0.09887033090340912","0.022000817649777828","0.037189766093073805","0.020968379344591524","-0.01804873479884569","0.07503942533247691","-0.2755501975166893","0.7153022972310232","-0.636992321931992"
"0.08064714566725234","-0.010348997319358346","0.04206376120675016","-0.05881853095855794","-0.0870666352728489","0.320715279393595","-0.25448514554144736","0.6960673921968634","-0.6408984057256637"
"0.049326632760639005","-0.02009943763258983","0.028688775124042196","-0.09368065670351228","-0.16244591931921842","0.5336985844326022","-0.20995875260965358","0.6785079555710288","-0.618949156625659"
"0.019120101822453314","-0.05116747531968407","0.0002735901365257564","-0.0703407181645344","-0.2065735304205317","0.663148555840768","-0.14341993764023894","0.6489431941296352","-0.5945810773940083"
"-0.005558883324251673","-0.061905735888362776","0.0002471549087905626","0.022811082077900256","-0.24827194501095257","0.6823209363080442","-0.06707305614266966","0.5873994136191034","-0.617004286452241"
"-0.022061606694044243","-0.0858907595671556","-0.035655808334719506","0.08122013752570989","-0.1524945901642526","0.6751373608418244","-0.0012308368073570247","0.5033885252394534","-0.6723268539902273"
"-0.019625673781233567","-0.09893912765225349","-0.03563722106521821","0.030945353443483068","-0.08061430641239002","0.604587854489455","0.07310984926399891","0.4131375064886392","-0.7200170318560604"
"-0.005982523830827433","-0.13281481849442012","-0.046124571568289606","0.013143150600425695","0.04271468413223369","0.457445901612119","0.11914088876545306","0.3549578554593904","-0.7482585079877118"
"0.005371041745403261","-0.16034082981865944","-0.04663262360132536","0.08225798159389526","0.1252977923143529","0.16333673147689573","0.1438282380380247","0.3145619163547283","-0.763278135629487"
"0.005609820940018688","-0.12169015504979361","0.03458341785855704","-0.02499713753058728","0.08545418294160843","-0.037582535169348126","0.1649490176639944","0.3076489600873074","-0.7491247106699905"
"0.009399477835205606","-0.08750908128953917","0.00034360218498068255","-0.01911858847646861","0.04692688694915046","-0.16417849145985366","0.1687663617388731","0.3270553697616895","-0.7261948547598591"
"0.0040731612843483925","-0.08065666254591627","0.0014216638160565538","-0.07203708295872979","0.09847850551527947","-0.20164229364635267","0.17297379936884835","0.3606702792452554","-0.6850093687345339"
"0.01947153087904458","-0.10557964804455018","0.008943105682369223","-0.05599574913302961","0.07902339375464518","-0.29641695212838676","0.17132983367236823","0.4035728246300892","-0.6383324845724987"
"0.009673881345146724","-0.09354610686751949","-0.008935782325722372","-0.03981481661541211","0.06431179675715237","-0.46355642589817275","0.14862081600064567","0.4511323806301894","-0.6059561163914792"
"-0.00026915390805327743","-0.08728783448153679","-0.009571260417450426","-0.03345585551117795","0.07544302136026593","-0.4816367087438952","0.10094581080271108","0.5118450232688748","-0.5698207554383069"
"0.00015352377918937491","-0.09568067114190862","-0.003738162197506578","0.03433712028227443","0.04816182822956469","-0.5573069394995497","0.03900452701836901","0.5650114617377802","-0.5519083377066576"
"0.0016227860815407995","-0.08502550796590685","0.022137795250914492","0.10393043782666064","-0.10290308188622288","-0.6448446310760878","-0.061388835768397966","0.6138111282133337","-0.5803786220940054"
"0.021775557543216906","-0.04511175282835142","-0.053441759995304566","0.08675594772243153","-0.024911992763659446","-0.5830076368601136","-0.1749339241270093","0.6447875047704031","-0.6440690344117405"
"0.04525005570418033","0.0044573272693426485","0.018798489022396146","-0.034602490284098904","0.07713986897230796","-0.4326136599541511","-0.2360950208011569","0.6823997916376112","-0.6501814835281974"
"0.07492607318981317","0.02306238684122585","0.032008048406542464","-0.03040779027938304","0.06400784803115893","-0.24474860021087919","-0.2785594906560096","0.7166479490235363","-0.6342793097573078"
"0.08831917895940626","0.012773059936484355","0.020095260857937412","-0.010578999529525832","0.03489338935627687","-0.05510706166987992","-0.29407964138380005","0.7365292946246879","-0.618181014624393"
"0.08107463745116064","-0.01266845329245368","0.03604974689699357","-0.027519541481093486","-0.04054094052235918","0.16695764181324713","-0.28650068088477126","0.7425187643678351","-0.6035045993661621"
"0.07052791447609015","-0.01941803901263885","0.021438087816798578","-0.06809366059946512","-0.15417229139985408","0.385852835310265","-0.25426223493853495","0.731859091344789","-0.5897107302370452"
"0.0449612099042423","-0.03413354853831802","-0.008881259668518535","-0.07822756288306373","-0.2273210225909018","0.5290632367500075","-0.21059962059302703","0.7083365703050722","-0.5818822192028664"
"0.012164694959945632","-0.06224435776352135","-0.03490612179816675","-0.027672618667402834","-0.2063150543385845","0.6206052862722425","-0.14236111227640405","0.6651174009690589","-0.5826340177572971"
"-0.009352391496771072","-0.08040113806343466","-0.017113974381081264","0.08032959414623729","-0.1837295100299234","0.6205567486001735","-0.06464890333599523","0.5959218749716871","-0.6223322501205966"
"0.002466215817359838","-0.08071690815560707","-0.04800808154442216","0.06240223385525402","-0.13661027760977723","0.6285411956555329","0.01916548335914688","0.511251353360413","-0.6697445893902269"
"-0.004490153864480969","-0.10413583084678817","-0.035426565344203374","0.03678154151522683","-0.023366401525497602","0.6170620362112017","0.07982503117674107","0.43328270538244024","-0.7030852209345377"
"-0.021589825220812153","-0.16261562094319093","0.0015951449980687632","0.04105518698709593","0.020543180214099087","0.4046611832370232","0.12429569645780694","0.3735463199265586","-0.7324053645573286"
"0.001696923170191558","-0.12190828570557058","-0.008759822841109986","0.048538639623464164","0.03708804275577272","0.10149731037731803","0.15026478169712612","0.3359340330593503","-0.7513474194396111"
"0.012423693360556742","-0.09000408050466457","-0.001720204305314561","-0.09946004254888968","0.04413869587999817","-0.07285486146192935","0.16157749479494132","0.3453931736008405","-0.73537987188138"
"0.006798902816430229","-0.08802740127636165","-0.006233399865448853","-0.11576902076323134","0.07408841522709839","-0.13526945397552537","0.17132983367236823","0.38518225013240837","-0.6808581332383303"
"0.006465767327168379","-0.11744180084918458","-0.0031629894690494314","-0.04986784793265861","0.07538558223094434","-0.27195396540558375","0.16935150207151853","0.4232694729263859","-0.638169050104144"
"0.01826126697730425","-0.0909565843682241","-0.006296390056536619","0.003974886165055226","0.030662040162919586","-0.3728395168011116","0.14566725051205373","0.46432504526267204","-0.6177560850066716"
"0.006498503184494681","-0.09320956242717786","-0.015220138144114645","0.016278826045768722","0.03657587718598852","-0.4620760269000666","0.10155881496072075","0.5098397382447374","-0.6066752280522388"
"0.0007254384630666686","-0.09332070518988328","-0.02376202110604913","0.012440343392841906","0.07198470711569506","-0.5148850141111969","0.04599834718475253","0.5596156619030946","-0.5945974208408439"
"0.005930439777949902","-0.08637168572727343","-0.01921640108689589","0.024873291719879","0.06597035161631334","-0.5831047122042518","-0.026809828491579372","0.6103678427442557","-0.584611574824386"
"0.016050633788445224","-0.07316335516127241","-0.013840549696684221","0.05535490678742751","0.011933294058497919","-0.592787977782028","-0.13012889294157468","0.6614630328658613","-0.5976373019522369"
"0.028202376591838003","-0.0489280005870403","-0.0197513013981002","0.053939664876265635","0.011765763264643273","-0.5536423452583362","-0.21876372142470155","0.7009618707755145","-0.6224303108016092"
"0.04608482006600122","-0.010259667622230626","0.002087294589420066","0.012560687092770634","0.08668912422202267","-0.4065003923810003","-0.29042948026110593","0.7328485411922252","-0.6342139359699662"
"0.08357893053662332","0.0245861852794394","0.023072528381613607","0.003067494667592591","0.11197430760879859","-0.21859892938367656","-0.3288536954381674","0.7551177590918561","-0.6326449650737632"
"0.08961888877719407","0.012759972097137737","0.023845139217217984","-0.0034187419336862003","0.08070588158435682","-0.01929596721733218","-0.34300851872311827","0.7634951011334825","-0.6290003764294587"
"0.07990481196141162","-0.01525382092211525","0.009457436081992086","-0.008852404397908336","-0.02690058328671407","0.22730938326390837","-0.3240611174755464","0.7564238328904718","-0.6176907112193297"
"0.06646577970962837","-0.025861203097327767","-0.009291831799280763","-0.028365798378992325","-0.10574871208469676","0.4160432673372163","-0.27903317568719876","0.7404607086851677","-0.6003012837864147"
"0.03816466823170054","-0.04542752292052383","-0.008879607466785084","-0.04878282913410117","-0.14637732289150301","0.5494733278550445","-0.2097358420067409","0.7075318177624909","-0.5900375991737542"
"0.014017159356881519","-0.04285877476939765","0.011241607428900983","-0.014283659988131898","-0.15582845296196","0.653101257722474","-0.1277047401348999","0.6560540403665432","-0.5881907896813487"
"-0.004692345924437595","-0.06061253271482776","0.01262854817404526","0.0540224613418166","-0.18840601247552308","0.7229226989938076","-0.043555987535389175","0.5690748024445847","-0.6245549588902172"
"-0.019307943401301726","-0.08954185125789901","0.003303728115672342","0.10250556841950445","-0.13289348728325925","0.7038716627067041","0.02939150726776278","0.4776628292061121","-0.6808744766851659"
"-0.02063663408101665","-0.1137647412232296","0.013154154850498917","0.049087406895139185","-0.06844199759032261","0.5843961829087286","0.08146899687322183","0.40282084274603763","-0.7204909918142881"
"-0.0051544992043384375","-0.1304465428031271","0.01593997349831164","-0.01821938035060113","-0.03647712212285653","0.37587834370007445","0.11632664240368117","0.35065704678920107","-0.7540440881674598"
"0.009466875188524475","-0.13209810348258144","-0.01624656847102022","-0.06057747447671627","0.009090057157079102","0.12692862365789864","0.14558365903596124","0.3326886375597596","-0.759976759368727"
"0.005735950272658289","-0.1159979836514226","-0.028947869296914095","-0.0960133989829308","0.014093723310106304","-0.1002034127892376","0.1551409511358396","0.34322957660111325","-0.7518377228446744"
"0.004476582584928504","-0.09162551837927352","-0.02762817316232122","-0.07860688622523909","0.05955392221168048","-0.1941796265657357","0.1591533419882669","0.3815542673584756","-0.7172549893408697"
"0.012179137249942533","-0.09785366796041083","-0.038026717822219704","-0.03801640036367716","0.08390571974698052","-0.2687747478850607","0.1527446621545291","0.4213697292193084","-0.6770664535725068"
"0.009907846443096528","-0.0780796046555224","-0.0245819262162735","0.00478167032937744","0.07175016400429855","-0.349225939339517","0.1342430821127824","0.45961526398887576","-0.6454909142864241"
"0.005919848765285498","-0.08765346300931535","-0.03989783628535138","0.017162630178045323","0.10562728381876264","-0.3786397686133635","0.10264550414991973","0.49527503649047655","-0.6248818278269261"
"-0.004904166177725466","-0.09375177291439493","-0.02705403305994748","0.03746894472921974","0.10415540612989685","-0.4431948724652048","0.06160208938863514","0.5388504077715669","-0.604191024133251"
"-0.0023045539782832318","-0.09268604885331308","-0.026769028260927422","0.04105711248629479","0.1304338077945253","-0.5242770536565587","0.006375987517035861","0.5837714308451706","-0.5932409147535018"
"0.017630620314106223","-0.07699518368108822","-0.005441788709909808","0.0729481929674086","0.11229022282006734","-0.5801439142080395","-0.05782226612179633","0.6299721423881249","-0.5920478431345142"
"0.033968701577934135","-0.05396681873548878","0.0011366590170364965","0.08803159094167609","0.04759222353045889","-0.5560934976978233","-0.14829610707895238","0.6649722816581016","-0.6176253374319879"
"0.04266392297540186","-0.031374715101443316","0.013298309451742396","0.044658758737761865","0.04726673513096987","-0.44200569949951296","-0.2260083160193614","0.6931254279838197","-0.6430393972611073"
"0.0717208476298342","0.004758565704970672","0.032441751361572985","0.017529437775428095","0.05873541461884779","-0.2748662257297269","-0.28962142932554785","0.7143260400482194","-0.6544307797054133"
"0.09149378686459181","0.015149437623563399","0.023340185062432444","0.014567057257982446","0.05573422011179459","-0.07491043187405377","-0.3011291892009115","0.7242733091811113","-0.6499199883788301"
"0.08394480188321149","-0.012022371064390401","0.009035381149182384","0.01330970628112706","0.02353958812704215","0.15591046765033054","-0.2815687837953299","0.7169249949808185","-0.6485144519509818"
"0.06734579658010623","-0.01485806958949128","-0.007164002491814347","-0.0592431035319065","-0.00611838830904548","0.32911229666154135","-0.24637677236050134","0.7026241465192072","-0.6298338922180663"
"0.04020103112126362","-0.035381048145880716","0.004239287347238182","-0.05407217543336878","-0.07882412021520041","0.47751622901267265","-0.18964602391924168","0.6812520298145852","-0.5995658286788195"
"0.021293185057320408","-0.046008165951854","0.012754115505787431","-0.003158606991920255","-0.1444028528210733","0.5568753228455753","-0.1190948180974002","0.6342069877351519","-0.5973921502497052"
"0.003378005725830871","-0.06578846156119321","0.016318740745704965","0.07813356230993779","-0.16074667841012133","0.6390253328224484","-0.05815663202616527","0.5702621422615082","-0.6345081180130042"
"-0.004778999664418989","-0.07210905699168363","0.01629767517360348","0.07168602824255607","-0.1340829559196272","0.6639251585938729","-0.0024289812980124253","0.49627767900254527","-0.6742880676104808"
"-0.013877642362466826","-0.07960963539818673","0.027344915539097618","0.026845002899511333","-0.04756048078486877","0.6328610484696786","0.04797667878560192","0.4206969033230517","-0.7126297938864383"
"-0.02149354328749948","-0.11381667709365272","0.0426213792917894","-0.003882883515571332","-0.05479541778233432","0.5409306975708911","0.10139163200853643","0.3563166999165361","-0.7420970285307485"
"-0.0004703831486767621","-0.12502443793095616","0.0035189273914541523","-0.042174515883614684","-0.06080737998466097","0.35078436724037376","0.13889634094858302","0.29770169095441545","-0.7916503593358222"
"0.004569013240908662","-0.12430772291911749","-0.02067240386449836","-0.11564386331530548","-0.05657603079130368","0.07331876485762896","0.1618282692232178","0.29076234935772954","-0.7984002028788617"
