"AccX","AccY","AccZ","GyroX","GyroY","GyroZ","MagX","MagY","MagZ"
"0.02632295325357457","-0.03944347193037505","-0.03633734154976748","0.03182626932696138","-0.06560115398595887","-0.5970350240880701","-0.13093694387713262","0.6683364111393847","-0.5889589316826147"
"0.040006541615972016","-0.0056808974139898995","-0.037202682207661715","0.043515974963238634","0.0012000747556418889","-0.4431948724652048","-0.22372348233950715","0.7038642569946608","-0.6148306080231265"
"0.08297331717608658","0.0204219671889158","-0.0018715872891418828","0.0264762698029297","0.08489415143072293","-0.21385437193892656","-0.2708690748555244","0.7217139322424097","-0.6280034261724965"
"0.09680614253511867","0.005574228937139432","0.01829849147281096","0.015678070295724492","0.15007081013134466","-0.03393007534615184","-0.29995890853562035","0.7232047033458803","-0.6389371921054101"
"0.07195577554711713","-0.026073101448653987","0.03929012754672162","-0.06736774740149502","0.03664528280058544","0.2216401831662429","-0.27142635136280585","0.7198405738645971","-0.6061522377535046"
"0.05998311713968593","-0.023822200824517137","0.029149119832024596","-0.07373152225372633","-0.07058160515755192","0.41250001727617536","-0.21812285344132762","0.7120173237375349","-0.5622047092129888"
"0.030231036926736076","-0.044204952530764216","0.012533133523938545","-0.02782377035451332","-0.12472037784020766","0.5250346099682761","-0.14921561331596692","0.6781781389552168","-0.5469726167623526"
"0.01778370858807338","-0.06208024041298438","-0.023344840168353104","0.054197681768912834","-0.16288628597735064","0.5887403045589089","-0.0726179573901207","0.6212517910660539","-0.5666991570927367"
"0.013296970495702708","-0.06761764291749454","-0.03850379107275328","0.04304615315871686","-0.1183901071295572","0.6073787706334255","0.0023357328392446092","0.5443781342525772","-0.6069367232016059"
"-0.005183383784332241","-0.08766281146599153","-0.01490415456259241","0.05564373166725647","-0.06775272803846351","0.6289537658681198","0.06321819125975164","0.46772875273785264","-0.635782906866169"
"-0.0150137691755564","-0.10308672626424169","0.0013208795103161275","0.048388450685953106","-0.026877368305279925","0.5609039496273067","0.11635450622904542","0.3982957587770961","-0.6658221621497196"
"-0.010690710369817273","-0.1046448023769345","-0.0047022219089744265","0.012813890237420685","0.01242176598743696","0.3997831471940833","0.15611618502358215","0.338467024668787","-0.6915630909155479"
"-0.0006234714226439185","-0.12112924764922418","-0.014299035677716489","-0.06359858271972715","0.034311818171895755","0.20406711899364205","0.18930200103219738","0.31324264989148004","-0.6974957621168149"
"0.002843640995945519","-0.11375435404914497","-0.028945804044747284","-0.058854152693736846","0.045354490783971864","0.005189589522982933","0.206744755710109","0.3097202084346072","-0.6767886149763042"
"0.006466730146501503","-0.10345027735720334","-0.026599677583248833","-0.05343098420014849","0.06372065238455098","-0.12779222559328765","0.21769523907819102","0.3298785999930408","-0.6554440734092112"
"0.014710389276732775","-0.09304440635923243","-0.012049976068058207","-0.03554791039073901","0.042465781238506785","-0.2295611626204723","0.2143515800345019","0.3620159310377687","-0.62795439583199"
"0.011471465040094376","-0.08938188877699589","-0.011531597774188393","-0.006179041310211526","0.009116144094979324","-0.30282392484150183","0.19178188148960001","0.3970556483016427","-0.605841712263631"
"-0.0066372409773536225","-0.09410389811586353","-0.010361632421689386","-0.003939685741937693","-0.003657839606731773","-0.36944187975627785","0.1601007120506452","0.43522202708341523","-0.5939273395205905"
"-0.007917790690412232","-0.08947537334375746","0.008747898047562151","0.00018791061569790692","-0.032446809882124804","-0.43746742716105647","0.1138467619462785","0.48888978680835493","-0.5830589473750185"
"0.007810825935546451","-0.0831911330225632","0.00811741786607778","0.04243480716307891","-0.06519190018954252","-0.5439348108445254","0.04806027026169408","0.5384810131618574","-0.59665669514211"
"0.017052928714230184","-0.07289640478729772","-0.00414377772306846","0.06376741278724556","-0.07109855732144625","-0.6313754270769255","-0.0352247037515302","0.5859877985034277","-0.6237214431016094"
"0.026295994312247023","-0.06447656147430589","-0.008700756629139163","0.08059723853487877","-0.05426171253905453","-0.5880070170832261","-0.13469856030128313","0.627623848083543","-0.6604451681408576"
"0.03512119631968686","-0.04417171357369344","-0.02015196031846173","0.06182650959479497","-0.039538149056286394","-0.5163654131093031","-0.22918479211086618","0.658560646646715","-0.7011403507611195"
"0.056681609646394286","-0.00458141503713302","-0.004192724199421904","9.240585543446572e-05","0.059857870937673904","-0.3575258812633252","-0.3074542775585568","0.6873866188686898","-0.721618689645934"
"0.08196235687630349","0.012936346313094557","0.02196555322020237","-0.025830878683693527","0.11188096902365098","-0.1803997814653314","-0.33035834200782743","0.7131255075666636","-0.7073181736649183"
"0.09292655831421774","0.0110765227932436","0.033307092019467216","-0.047154819561465305","0.10993761181493712","0.0035456185700040886","-0.3288815592635313","0.7316084307167717","-0.6766088370611144"
"0.08500679160765029","-0.02104986406133243","0.013716729540738508","-0.04812527115769059","-0.007105862673965854","0.2272123079197703","-0.31096511955443035","0.7334158257714221","-0.6480241485459184"
"0.061241522008082604","-0.04029522020531377","-0.005453354122043954","-0.05089991550324741","-0.08562347714864389","0.4210183787242943","-0.26518485448125284","0.7175846282124427","-0.6275784965547748"
"0.03727983726455705","-0.04994075006029061","-0.011310615792339504","-0.0537862388023381","-0.08323735998474276","0.5536961053250522","-0.1846026715283439","0.6856056091433046","-0.5981276053573001"
"0.01995101490694171","-0.06070497856418087","-0.0177046365007895","0.017598755746587043","-0.0853099552344302","0.5927446625046059","-0.1059988201762845","0.6311330968757835","-0.595414593182616"
"0.0052949790180862365","-0.07540179117650773","-0.0014975701217322258","0.08217133412994658","-0.07149584463258726","0.6373993208081351","-0.03174172558102072","0.5636790026098994","-0.6214170170978114"
"-0.004894537984394204","-0.08652957077335963","0.0017764741383148582","0.09125295110136837","-0.04417875204606002","0.6337104577308871","0.04098285861921871","0.4743514703833589","-0.6616218963130099"
"-0.009092430276826855","-0.09969739136043064","0.0009363295568557303","0.018107087535086004","0.013262531242881763","0.546585336366936","0.09718419437856056","0.3998788785329941","-0.6830644985611157"
"-0.011287658356355873","-0.12174209092021669","0.01277290930050542","-0.010454804831199378","0.01701306705787623","0.36180241880004893","0.1447198804496751","0.33708179488237633","-0.7003885522066889"
"-3.037471343783429e-05","-0.11494887906887613","0.0018002245382331959","-0.03803276710686746","0.027263558344725377","0.1625843975598254","0.1829490488491878","0.314799384318113","-0.7036899284674492"
"0.0005530938024369707","-0.10592242478934256","-0.01571786391631634","-0.049045659774745516","0.0226827877813284","-0.017832799092810558","0.20409769230052174","0.31584160482407914","-0.6875589464408633"
"0.00661500432380302","-0.09722420521088296","-0.038904449993114806","-0.07062280379716733","0.032325381616190696","-0.13493211715464543","0.2033453690156917","0.3378469694310603","-0.6682083053876948"
"0.01427134366082699","-0.09309322607743015","-0.02718620919862345","-0.07209677343389444","0.04672345669946981","-0.21503383737020457","0.18832676714445482","0.3751030543531915","-0.6382344238914859"
"0.01369172642228468","-0.09456301121040368","-0.027832633126835607","-0.026300700488215298","0.0821298933321213","-0.28882080644957986","0.16873849791350884","0.4235860968775655","-0.6071001576699603"
"0.004615228568898759","-0.08917310657789507","-0.022578631614465848","0.0024194679122163582","0.1051534110018595","-0.37589739014146195","0.14625239084469943","0.46410076996391986","-0.5773550844294477"
"0.002373785161379663","-0.09288548259573777","-0.022679828970639634","0.02207939238233357","0.12657341964470328","-0.4403796874851997","0.12393346672807405","0.5020428734469402","-0.5497019723838723"
"0.008946952748636024","-0.09342873180036332","0.002240949350630879","0.029714959455411718","0.0898793891964261","-0.5162440689291303","0.07726155924324596","0.5532304122209731","-0.5310050692041215"
"0.01566261759719514","-0.08647036388107729","-0.002724123383601879","0.06282584367900315","0.003954998995728757","-0.5680580338628451","-0.0019831600921870664","0.6023862806416036","-0.5401083690914652"
"0.024126762354712446","-0.0686594764781818","-0.006950455417765983","0.08523287785613351","-0.07661510703337418","-0.5506330095900549","-0.10321243763987686","0.6471226064103525","-0.5784500953674228"
"0.035647858494907196","-0.029740812617932814","-0.021444808174886053","0.048795693766511945","-0.02478921662473454","-0.44858255406486974","-0.1889494282851397","0.6729010731022237","-0.6151901638535063"
"0.05264161972459442","-0.00845853163595776","0.006131264857254668","0.046205897344045635","-0.010416989149650138","-0.32291852107809","-0.24481639814011288","0.6932309693008797","-0.644346873007943"
"0.0816821764503636","0.01805888508466507","0.02198290133840359","0.047768439943920285","-0.014238127227769062","-0.16151862703046954","-0.2824882900323441","0.7003286228731552","-0.6726537229269361"
"0.0958137550202716","0.018471255895824427","0.011543092940212201","0.00010501787518699677","-0.03998090901147366","0.056631513200288336","-0.30394343556268305","0.7056584593846783","-0.6835384585193437"
"0.07744577138460589","-0.014654480977432757","0.016562647026605464","-0.07611817851071292","-0.03291589610491781","0.28722428566594804","-0.27836444387846104","0.7009750634401469","-0.6630764630813646"
"0.04871524248410351","-0.033455266070592425","0.02375199634449476","-0.10914530351915397","-0.11467331680303916","0.4931210905828734","-0.22723432433538088","0.6893655185635622","-0.6225447149294574"
"0.0247477808245792","-0.04791628983119844","0.02095461228454789","-0.054283017595643905","-0.1930896948122879","0.6125965703808488","-0.16002677755722838","0.6610144822683569","-0.6018539112357821"
"0.011450283014765587","-0.060697707542321636","0.0028157090286546624","0.033796055007394854","-0.211166267469204","0.6489755555966045","-0.09000498441730474","0.6030327212085953","-0.6242607768471792"
"-0.011345427516343463","-0.06530857411848384","-0.0014296233254441125","0.04891314921764237","-0.1296457831795342","0.698848013647557","-0.013407328491458368","0.5247870272733404","-0.6633706451244027"
"-0.01815256020154963","-0.07196883014154129","-0.033185766743212344","0.018646227310766723","-0.06498846993986188","0.6929749553272014","0.06731417358827078","0.4321877142179442","-0.699473319183904"
"-0.02831030416603689","-0.11521894559507621","-0.028386120707541224","0.020027772985948558","0.008979247503429533","0.5808043951756187","0.12903254676970002","0.3622402063365208","-0.7230732564142887"
"-0.013877642362466826","-0.15785829521243558","-0.0066458307231612125","0.03555788677435148","0.043561911289727175","0.3152062536137574","0.15893043138535404","0.31065688762351346","-0.7491900844573322"
"0.008861261827987738","-0.1454767837035702","-0.00822388990382227","0.015669405549329624","0.0743851840619266","0.030790056590724205","0.18554038460804717","0.28731906388865147","-0.7567897872358149"
"0.017342737333501328","-0.11414906666436052","-0.020709578403500982","-0.038374543214665054","0.053664018159162205","-0.1829431554817498","0.18662707379724586","0.30382308734388747","-0.7415903816788497"
"0.0061904009978941184","-0.0975659432382669","-0.019480753364247826","-0.07541537130312914","0.08681357566888613","-0.2701823403750633","0.18807599271617773","0.346092384826362","-0.6969727718180807"
"0.00998294635108041","-0.07636364349674342","0.002370027611056629","-0.06193302591271351","0.04438281217961493","-0.33646053158535594","0.17208215695719795","0.39948309859401954","-0.6477463099497158"
"0.004495838971591028","-0.07459470775013287","-0.01710571337241401","0.0048711097671644745","0.016414024804993127","-0.352817727072627","0.14842576922309741","0.4373988167477749","-0.6190308738598364"
"-0.008572507836938423","-0.0875797140733146","-0.008236900992473187","0.0677840041160669","0.05017219775582041","-0.41382958086342736","0.11426471932673961","0.4704068636582466","-0.613523132276291"
"-0.005491485970932804","-0.09760125963015459","-0.01003036597413274","0.07874298280637688","0.07734569251904368","-0.5384257850646879","0.06229868502273697","0.5089426370497286","-0.6192596821155325"
"0.008977762967296077","-0.08122172481611953","0.032239356649225406","0.024906987955859043","0.037832358139898346","-0.5947294846647901","-0.010788128907235352","0.5594705425921375","-0.623084048675027"
"0.02445412092797554","-0.06007759324946991","0.054203313443271166","0.0020514087403543262","-0.07158678992067978","-0.5904824383587479","-0.0994786850410906","0.6148005780607699","-0.6324978740522441"
"0.02605528947896534","-0.04889995521701183","0.047224826371613376","0.004233576982422027","-0.12543118706556236","-0.5384257850646879","-0.1910670790128096","0.6603152710428353","-0.6494950587611087"
"0.047892994773613265","-0.0036428299868468844","0.01678507468497112","-0.0054606375591169706","-0.10513124144448967","-0.4028600669758212","-0.279061039512563","0.6981386405441631","-0.6781451210636462"
"0.06641186182697328","0.02836607792883211","0.029044824597600587","-0.004161118149806559","-0.06278424335214576","-0.2636540234817756","-0.3367112941908369","0.7297614576682242","-0.6894547862737753"
"0.08628387517110962","0.016843585716764694","-0.006090897465938825","-0.019674094995339633","-0.08456085325619443","-0.022024269764333682","-0.38302097194593193","0.7503683998241623","-0.7011566942079549"
"0.08508381715430044","-0.00591969854619528","-0.030633115065032697","-0.03502513735824861","-0.12790106962639083","0.19600015789576536","-0.3959776507402274","0.7561599795978221","-0.6972179235206124"
"0.06918285586771207","-0.025061390692812137","-0.042884190918561556","-0.10869281120742194","-0.15879853460729731","0.4150725138958352","-0.37070516113501023","0.7592206777925581","-0.671542368542126"
"0.04144980779632902","-0.051156049428190985","-0.038012261057052014","-0.08951291368758044","-0.14338809486972515","0.5975984297115112","-0.29547283265200386","0.7384026530025004","-0.6323017526902189"
"0.013172766801729355","-0.059110547342191906","-0.02210775412043271","0.010626523147516066","-0.12022097937668295","0.702391263708598","-0.18646954782773703","0.6862652423749287","-0.6219400073965459"
"-0.00047616006467552627","-0.07099451321240405","-0.020197395866131597","0.11734153974671846","-0.08160752469024257","0.7236507640748434","-0.0771597609244652","0.5942859845572592","-0.6534174860016158"
"-0.014715295182287102","-0.08813231173461628","-0.02944559506911579","0.13415114775276366","0.018820006334451318","0.6919313953777169","0.009050914751987086","0.49177898036286866","-0.7036572415737783"
"-0.02265855468058284","-0.10720004720175066","0.02354732985476369","0.07833862797461635","0.07847772202609005","0.601044604428414","0.08043803533475107","0.4089554318001421","-0.7354125587750507"
"-0.014984884595562598","-0.14460426108046223","0.05016161495282006","-0.0033597253832411502","0.0660589036073508","0.38716335245612943","0.1359985031107193","0.3523852858560563","-0.7462482640269518"
"-0.000741898200618507","-0.1239649461743251","0.05711325374630929","-0.06568293560249278","0.023644893197465062","0.039830198013585436","0.16907286381787778","0.3352480144984612","-0.7452349703231541"
"-0.0007351584652866183","-0.10423970258763436","-0.0003278112944499036","-0.11432489636408658","-0.02688694149350019","-0.1915998492952655","0.160797307684747","0.3656702991409664","-0.7218965282421367"
"0.006359857200524426","-0.07939669832945204","-0.027400995423971893","-0.1161926305869805","-0.015902425999862198","-0.24013266759711216","0.15450008315246563","0.4129923871776819","-0.6911381612978262"
"0.017577665250784257","-0.0970455458166275","-0.039431089295651874","-0.06575803007124831","0.010525078071296882","-0.26826510232833567","0.14371678273656827","0.459813153958363","-0.6636975140611117"
"0.007777127258887025","-0.09085998364923714","-0.0428387553708917","0.04177050993947231","0.011269632785128022","-0.390871261974765","0.11172911121860844","0.4965943029537248","-0.6517504544244002"
"0.00647732115916589","-0.0911570568280572","-0.0468990411308441","-0.02081206502186572","0.06636763892745436","-0.43836537409433396","0.0653358419874214","0.541119546088354","-0.6439219433902214"
"0.00808330380682132","-0.08781238677281003","-0.012107803128728941","-0.03202906060482291","0.04433255294145854","-0.4819279347763095","0.008242863816428836","0.5985472152335513","-0.6067732887332514"
"5.9167484542950486e-05","-0.0967495113552159","-0.024945410597632417","0.04353330445602838","0.03779645868407235","-0.5890263081966762","-0.0796675052072321","0.6510540204708324","-0.6076721783092011"
"0.018209274733315406","-0.06674096542475273","-0.021657529148067692","0.0610149116824756","0.08226631126426007","-0.5974233254646225","-0.1789741788048004","0.700130732903668","-0.6208123095649"
"0.04130923617369252","-0.054375034677014294","-0.016434506418200108","0.09324873102098645","0.06392647593128667","-0.5347854596595089","-0.2746028274543108","0.7303155495827885","-0.6500834228471846"
"0.0477071706423198","-0.01986676493309437","-0.022650915440304266","0.06158100844694035","0.13176687425419725","-0.4293130982534554","-0.35028097714314205","0.7503947851534272","-0.6813320931965583"
"0.06563871790247248","0.0057034453827520875","-0.00998451737602951","0.014433235063661697","0.13734804298661193","-0.24065444757185447","-0.39742656965915946","0.7615030087739776","-0.6958450739864348"
"0.08672523155341492","0.01992961513730488","0.0028902646318765763","-0.003370797003634594","0.17862523729534116","-0.038349430388039174","-0.3979838461664409","0.7751969946624947","-0.6737160469712402"
"0.09707621335806073","-0.008876096034159429","0.027950653999623584","0.005432103958752248","0.0984904720005548","0.21120701055499985","-0.355770150739865","0.7707510666813481","-0.6499363318256657"
"0.0725238389536619","-0.029239112109645735","0.02926601310466615","0.008811932702510681","-0.0016728390292597478","0.3820183592168097","-0.29664311331729504","0.7398142681181762","-0.6381853935509796"
"0.038166593870366784","-0.03722684898071744","-0.0075072474019385015","-0.011215377014748961","-0.06756365757111327","0.5247676527718963","-0.23442319127931235","0.7004737421841126","-0.6333150463940166"
"0.014793191739381688","-0.04746756391074292","0.014733246657243381","-0.04364752277074235","-0.06506026885151388","0.6034229503597976","-0.14801746882531167","0.6490487354466951","-0.6147488907889493"
"0.0013753415129272187","-0.05855171737643943","0.046896451277090266","0.03844613557264104","-0.142624633109159","0.6618137698588691","-0.08150651768126145","0.5930326814171734","-0.6234436045054068"
"-0.008264405650337843","-0.08300416388904008","0.036233554339839845","0.12689201577306258","-0.07679939090661428","0.7123414864827539","-0.008893388782478119","0.5146286755063286","-0.6680121840256694"
"-0.01845103419481891","-0.10048993274308704","0.037621403795937515","0.03188884805092432","-0.07741207495271127","0.6366469868910648","0.05901075362977607","0.4249581339993437","-0.7113386615864382"
"-0.012009772856200931","-0.125491860764764","0.028463662637859682","-0.05756984472809741","-0.06850661661080941","0.4398752643231216","0.10378792098984661","0.3737837878899432","-0.7363277917978359"
"-0.00021908730273068316","-0.13975345078294538","-0.012533245075092219","-0.07175692282529571","-0.05241887380665344","0.18247028180651667","0.14850936069918927","0.3382295567054023","-0.7675110883598678"
"0.004713436140877681","-0.11412829231619126","-0.039526090895325224","-0.07413202608708915","-0.037992079158713526","-0.07937347082080325","0.15789946984688327","0.34485227435090865","-0.7674784014661968"
"0.01152827138074886","-0.09025441140010385","-0.045168359815055646","-0.11007917063060094","0.008267241629547294","-0.1704738275272099","0.14856508834991777","0.3859474246810923","-0.7385831874611276"
"0.013451984408336113","-0.10188181407042594","-0.05596136763881522","-0.0570210774564224","0.02628230655214818","-0.20537484062846292","0.14505424635404404","0.4241138034628647","-0.7051771821294748"
"0.017668170268098166","-0.08525090964354307","-0.03998251162419068","-0.0038939551359647748","0.058713874945352185","-0.28940325851440846","0.12393346672807405","0.45531445531868636","-0.678210494850988"
"0.013114034822408624","-0.0886215476340018","-0.05189075561802874","0.011032803478475463","0.10035485040645149","-0.33920291005725745","0.09035755716436197","0.49577635774651085","-0.6486778864193362"
"0.005336380249410693","-0.08199141441578978","-0.049358756461517224","0.03522477541294876","0.1364338035115766","-0.3719415698678341","0.06592098232006713","0.5273332115474095","-0.6245876457838881"
"0.0030285023079058525","-0.08478868039677755","-0.040201428353872755","0.03330986645968278","0.19800137025315825","-0.42416810501413577","0.04349060290198562","0.5579929641532994","-0.5963298262054011"
"0.009673881345146724","-0.08143258445003729","-0.02636630408839908","0.06858693728199138","0.20607874781400717","-0.47314261613181086","-0.007249423085997668","0.5965551228740463","-0.5776492664724858"
"0.017188686240201048","-0.07653087699950577","-0.011564641808857383","0.12435998432656208","0.15750678408143576","-0.5006877450309988","-0.06676655406366468","0.6222544335781226","-0.5845298575902087"
"0.02747448517599417","-0.04912431817723959","-0.00610721295805664","0.11408744610064556","0.0992300007905703","-0.47833614704319954","-0.1396861850414527","0.6444181101606936","-0.6140461225750252"
"0.047007200987136656","-0.015423131859694532","0.011444064098813565","0.06167343240848563","0.12631973015686623","-0.35801125798401573","-0.19195872142446","0.6581252887138431","-0.633478480862371"
"0.06795911249530796","0.00024778993828785973","0.04129342214852927","0.03702704266308144","0.1827464948241654","-0.24115923936137265","-0.20683800416887668","0.6706715127793342","-0.6318931665193327"
"0.08324772068602772","-0.003573859150925016","0.052780354700337685","0.0647686723706526","0.059927276552270814","-0.06321285290541186","-0.2090113825472748","0.6727691464558989","-0.6369432915914857"
"0.08987615410300555","-0.009202253300416453","0.05777413443968913","0.02274946610353675","-0.0020875974089027455","0.159579915658751","-0.21098971414812434","0.6617796568170409","-0.6492662505054123"
"0.06562908970914122","-0.020266671135352188","0.06516773719687614","-0.0870829336986195","-0.0766414333009799","0.3659281209259185","-0.17928068088380525","0.6479141662883016","-0.6228715838661663"
"0.03746469857651738","-0.03894177142208797","0.04352595974085306","-0.11214908226937512","-0.1841579102027803","0.5127788477708402","-0.13355614346135594","0.6310143628940911","-0.5974248371433761"
"0.017671058726097557","-0.05362196455587945","0.020358993559639306","-0.04278586187925264","-0.2342113248124378","0.5649083075730036","-0.09086876300359088","0.5990881144834829","-0.6023769015345164"
"0.002274614770067616","-0.06870518004415412","-0.0061997362551298165","0.038479831808621086","-0.2398930120211653","0.5799307170783757","-0.040713877348253324","0.5417923719846106","-0.6390025658927521"
"-0.0037487829779733676","-0.08413117227722121","-0.04152318974063244","0.033049924067836724","-0.1514415394600234","0.5832798164511404","0.01832956859822437","0.4721482953897343","-0.6840287619244071"
"-0.0004318703753516961","-0.08321813967518323","-0.040934592873091015","-0.037819999445393465","-0.05185884229576792","0.5351789834307084","0.08383742202916807","0.4072271927332869","-0.7057165158750446"
"-0.006589100010697294","-0.10400079758368815","-0.030469960143854547","-0.0670028653033111","-0.03347114102169321","0.4372299611953582","0.12468579001290409","0.3694302085612239","-0.71488518954973"
"-0.004961935337713091","-0.13081009389608875","-0.0148174139715863","-0.06514187032761319","0.017460613607173638","0.26108674925676273","0.14923382015865536","0.34639581611290915","-0.7184317175130219"
"0.000819794757713093","-0.11559288386212249","-0.03242368869365871","-0.013511534809389159","0.0394143274932972","0.07206163915104047","0.17119051454554784","0.3350633171936065","-0.7164705038927685"
"0.0110112373988598","-0.10051070709125627","-0.03413371748777906","-0.04632974315475391","0.04645062083519225","-0.09266793920051704","0.17615027546035347","0.34469396237531885","-0.7040658277446645"
"0.014565003557430648","-0.09233392365184452","-0.018685631280025202","-0.06948194552184296","0.07017058794795476","-0.18043133095217626","0.1773205561256446","0.38458858022394654","-0.6682573357282011"
"0.013557894534980049","-0.09663525244028506","0.00362508135282829","-0.08773567792703295","0.032404360419007884","-0.25782950283348915","0.16801403845404275","0.42630378579185685","-0.6270555062560406"
