"AccX","AccY","AccZ","GyroX","GyroY","GyroZ","MagX","MagY","MagZ"
"0.0017296590275178597","0.006670075803066695","-0.02070131739483373","-0.0017053364715808952","-0.013127876723923786","-0.0012683477458046457","0.8511793087304684","-0.19754302375020608","0.7978805929860332"
"0.0036129336431137992","0.0032567673014683458","-0.023712455054045643","-0.0055106042633273795","0.006665886570002404","0.0065605360705733515","0.8482257432418762","-0.19822904231109512","0.7988611997961601"
"0.001984806150796454","-0.0012767356021116127","-0.019743040389432955","0.003355356797822117","0.0011828430168454123","0.010788167307787921","0.8454393607054684","-0.20232272614655453","0.8009368175442618"
"0.0009064484976944872","-0.0006645155615641924","-0.016692662939051615","0.006491994992764571","-0.01609197512662345","0.0021064765931566505","0.8440740332626288","-0.20272246388491877","0.8032412435480598"
"0.0031045650352228772","0.005346957568167978","-0.018470845054676752","0.002123229860471793","-0.010632146554900603","-0.008323055692681238","0.8474455561316815","-0.20038472371204283","0.7977825323050205"
"0.003029465127238977","0.004966890868411783","-0.023119727682170594","-0.004241218916479122","-0.0026052675619135956","-0.0031324370416166486","0.8466096413707593","-0.2000153291023333","0.7968999861759064"
"0.002032947117452799","0.0033994662990428355","-0.020680664873165607","0.0008921619476808428","-0.013563935447356875","-0.0038566191088869285","0.8498418451129923","-0.20010240068890772","0.7991390383923626"
"0.0024556248046954344","0.005270196351682646","-0.020356420282976125","-0.0030308501200759135","-0.0021804573346393195","-0.005052830037028754","0.8503155301441819","-0.19865252684579784","0.7957232580037543"
"0.002827273067282368","0.002161522891637991","-0.02312385818650422","-0.0016851187299928682","-8.249313616816325e-05","-0.0007715646721778821","0.847863513512143","-0.19973828314505118","0.7986487349872992"
"0.0023343095687214724","0.0010597553364824954","-0.018803350653533488","0.00414760344319294","-0.011049776891009682","-0.0036345592591710083","0.8470275987512204","-0.20086889450405496","0.7971287944316027"
"0.0008246088543787156","0.0012839105532285653","-0.017320499597762464","0.003334272581594603","-0.012295248678466205","-0.008993846320675557","0.8526003638240357","-0.1975008072233821","0.7962135614088177"
"0.003951846048374414","0.008081588889425517","-0.02060838104732719","-0.0043533792448127","-0.009992178922375862","-0.011949062484599886","0.8543557848219728","-0.19661162162715276","0.7943340650227414"
"0.0021812212947543157","0.0019251108094720712","-0.023150706464672776","-0.0076306751562318555","0.0007836410680603456","-0.005906607688723406","0.853659189187871","-0.19763933020202318","0.7949551160024884"
"0.0021947007654180934","4.648650452795112e-05","-0.01880748115786711","0.001648979407792649","-0.004297567909551007","-0.0008079679262296725","0.8532690956327739","-0.19746122922948467","0.7947263077467921"
"0.001759506426844805","0.0012865073467497198","-0.016659618904382622","0.005341605496405843","-0.009359869840427335","-0.0034052187586447297","0.8535477338864149","-0.1959256030662637","0.7940889133202097"
"0.0023121647240595573","0.005346230465982055","-0.019743040389432955","-0.0018302050946269468","-0.007659910942213712","-0.005947136644901066","0.8540492827429679","-0.19697969697039905","0.7953963890670455"
"0.0030371676819040076","0.003331606890748022","-0.023427450255025583","-0.006246818882011388","0.0037233278407983353","0.002257671441651752","0.8530461850298611","-0.1978675633001651","0.7970797640910964"
"0.0019087434234794465","-0.0004981130327286025","-0.01974923614593339","0.0006710183646918061","-0.0023927427834237046","0.003913534124287516","0.8514858108094727","-0.20084118990832672","0.7953310152797036"
"0.0020502778654490745","0.000434135841365917","-0.018194101264323945","0.003936568730997918","-0.008514557320577903","0.0013063330690983017","0.8529625935537692","-0.1986591231781141","0.7953637021733745"
"0.0027560244366309833","0.0028539423032927515","-0.019098681713387605","-0.0006628712053182525","-0.006824410940290052","-0.001669996982176064","0.8543557848219728","-0.20027126679620347","0.7926343465518548"
"0.002322755736723944","0.0030881003686823085","-0.020203591622632033","-0.0015141344011341267","-0.004289191369858275","-0.0018656038006143497","0.8516808575870213","-0.20008393095842222","0.7925689727645132"
"0.0021841097527536893","0.002151447332775911","-0.01958814647692205","0.0012821718104098754","-0.0042944566233794204","0.0015572728336953087","0.8501762110173615","-0.201591852525915","0.7925199424240067"
"0.002395930006041578","0.0032393480105284405","-0.017876052430634896","0.0010248288424822764","-0.005769924257827821","0.0009102656650148244","0.85324123180741","-0.20178182689662272","0.792601659658184"
"0.0023988184640409685","0.0024635819140186995","-0.01942292630357709","-0.00043181130145508815","-0.0034486654441189747","0.0017783619299698479","0.8555260654872637","-0.20079237704918654","0.7928794982543865"
"0.0021821841140874402","0.0026187662948429016","-0.01958814647692205","0.002376047905282072","-0.011038049735439854","0.0030109761121634633","0.8546622869009779","-0.20057865588214033","0.7915720225075508"
"0.0025403529060105965","0.002930942424782029","-0.01910900797422167","0.0030837651358229558","-0.007675228043366137","0.00046663134230367473","0.8551081081068026","-0.19960899503165283","0.7928631548075512"
"0.002466215817359838","0.0032438560440811648","-0.019887608041109794","-0.00014895546914259797","-0.0038734756713932504","-0.0014333758308394278","0.8585353586265845","-0.19928181694876726","0.7925362858708422"
"0.00175565514951229","0.0016795580141116876","-0.01836551719416934","-0.0005015143724538094","-0.007654885018398073","-0.000395397713642717","0.8501483471919973","-0.19808128446721132","0.7935822664683108"
"0.0021879610300862043","0.0015256200941776397","-0.01834692992466803","0.00464717421033709","-0.0021998430407853572","-0.0014277939985514864","0.8508170790007349","-0.19771584765689157","0.7925362858708422"
"0.0027502475206322187","0.00402437946632166","-0.020032175692786636","0.0015410551776965625","-0.0034591959511612665","0.0009289526687614102","0.8539935550922396","-0.19545462493888405","0.7951675808113492"
"0.0021841097527536893","0.0022289356514471653","-0.01943325256441115","0.0007146309215459783","-0.0034520160599960676","-0.002076985362475078","0.8557768399155408","-0.19590185626992518","0.7984199267316031"
"0.0026067874399963416","0.003713792574017479","-0.02081284101184158","0.0007138607218664344","-0.007249460497269834","-0.0025262015174741695","0.8526003638240357","-0.19450343381888202","0.7974883502619827"
"0.0027589128946303738","0.0023086052766761902","-0.019098681713387605","0.001375654796514514","-0.0047233354556473085","0.00048410490424853414","0.8560554781691815","-0.19286754340445417","0.7928794982543865"
"0.0021831469334205648","0.0022296627536330885","-0.019743040389432955","0.002059207012109708","-0.002611968793667781","0.000927011161878648","0.8514858108094727","-0.19269208096484217","0.7935986099151463"
"0.002326607014056459","0.0023077743027494204","-0.01958195072042162","0.001354474305327057","-0.004295413942201447","0.003056844212268719","0.8536870530132353","-0.1943240135798803","0.7968672992822357"
"0.002539390086677472","0.0027790403909685665","-0.020967734924352478","0.0034161062975461404","-0.005148145682921585","0.0021957859097637084","0.853965691266876","-0.19311160770015512","0.7958049752379316"
"0.002115749580101695","0.001526243324622717","-0.018813676914367545","0.004097925563862361","-0.004091026373698781","0.0026272858144575947","0.8539378274415118","-0.19310501136783884","0.7955925104290709"
"0.002605824620663217","0.004101026423892061","-0.01972858362426527","0.002098487195766446","-0.010835816134286748","-0.00490430476049745","0.8527675467762204","-0.1907619941291099","0.796409682770843"
"0.0024575504433617004","0.0044178560078210975","-0.022524935058128737","0.00028100850196277345","-0.004718309531831669","-0.0016491257831863712","0.8517644490631134","-0.19131212824428445","0.7980930577948941"
"0.0019588100288020407","0.003712057915945348","-0.021304371027542835","-0.0004957378748572302","-0.003445075498536375","-0.0007861259737985984","0.8513743555080167","-0.19080289138947062","0.7980767143480586"
"0.002466215817359838","0.0033980328690191588","-0.01911313847855529","0.0012373076790764444","-0.0013504619159423119","-0.003341391719873924","0.8509563981275552","-0.1909493299668912","0.7974229764746407"
"0.0024652529980267136","0.003245476443238365","-0.0206620776036643","-0.0015331005682428947","0.0024520084451470927","0.0009663266762545814","0.8514858108094727","-0.19168679991984697","0.799367846648059"
"0.002040649672117812","0.0018404553406824297","-0.02021185263129928","-0.0020300719114685834","-0.0042841654460426355","-0.001229032231428712","0.8526282276493999","-0.19251925705815665","0.7987631391151473"
"0.0024691042753592117","0.00262125921662321","-0.020195330613964786","0.001032819664157544","-0.006404387307125908","0.000473183928032997","0.8507334875246431","-0.19168152285399395","0.799335159754388"
"0.0024691042753592117","0.0026203243709555946","-0.01973064887643208","0.0007078916743499693","-0.004297567909551007","-0.001438957663127369","0.8487830197491576","-0.19316042055929533","0.7984362701784384"
"0.002468141456026087","0.0027761319822248733","-0.01973064887643208","-0.00016253023849455882","-0.0009230190619074632","0.0005127421307692758","0.8516251299362931","-0.19190843668567267","0.8010839085657809"
"0.0022563212027381986","0.0019189823767621463","-0.020048697710121133","0.00035138549768109556","0.001184278995078452","0.0009520080629942106","0.8522381340943032","-0.1908490657156843","0.7993841900948944"
"0.0023217929173908196","0.003243897592777503","-0.020203591622632033","3.531480418827549e-05","-0.00935101464132359","-0.0033993942379964433","0.8497861174622644","-0.19376332533299975","0.8014598078429961"
"0.0026116015366619816","0.0028546382439564207","-0.019724453119931644","-0.0007031141385744201","-0.007662782898679791","0.003035002259837645","0.8509563981275552","-0.19295461499102853","0.8023423539721102"
"0.0020396868527846877","0.0021523821784435264","-0.020368811795976993","-0.0010064765373547662","-0.0032337473685740167","-0.0007917078060865393","0.8492845686057109","-0.19171714304850165","0.8008060699695781"
"0.002399781283374093","0.0019202288376523008","-0.020352289778642497","0.0002783128030843699","-0.002610293485729235","-0.000788310169041706","0.8486437006223372","-0.19308786090381663","0.801639585758186"
"0.0023304582913889573","0.0015303981942565645","-0.020354355030809308","0.0008697298820141274","-0.0017683315817568956","0.00028655657892748607","0.8479749688135997","-0.192797622281902","0.8033229607822371"
"0.0028965960592675036","0.003247605813925712","-0.020798384246673893","0.002234234889286055","-0.0034642218749769064","0.00028243087680161636","0.8477799220360508","-0.1917118659826487","0.8009695044379326"
"0.0021090098447698064","0.0024662825792807004","-0.02129611001887559","0.0010691153240560496","-0.002189791193154078","-0.003138504250625281","0.8434053014538906","-0.19328443160684064","0.8036334862721104"
"0.0025403529060105965","0.00262260954925421","-0.020657947099330675","-0.0015170226499324165","-0.008294852650922812","-0.0016823740885536728","0.8486158367969729","-0.19258785891424554","0.8018520505670468"
"0.0017469897755141523","0.0030860125466913","-0.02038326856114468","0.0010740253470131417","-0.00934814268485751","-0.0046844291060246365","0.8492845686057109","-0.19121054472661433","0.8007897265227427"
"0.002821496151283604","0.00387050386943212","-0.020802514751007514","-0.0002786378401857988","-0.004723096125941802","-0.0063626191178121645","0.8501483471919973","-0.1915997283332726","0.8023096670784392"
"0.0025365016286780814","0.0032470656808733112","-0.021279588001541092","-0.000969795777616489","-0.006613561469738707","-0.005522432014296847","0.8496189345100797","-0.19020130588222942","0.8008060699695781"
"0.0027579500752972492","0.0021561215611139895","-0.020647620838496618","0.0006169118372038485","-0.0024049485984045426","-0.00035802370614954564","0.8500647557159051","-0.19023032974442086","0.8016722726518568"
"0.0023256441947233347","0.0024652438618722387","-0.020356420282976125","-0.0008154670168278839","-0.002607182199557649","-0.003141416510949424","0.8508170790007349","-0.19006674070297808","0.8016886160986924"
"0.002258246841404465","0.0015297749638114872","-0.020201526370465222","-0.00011997670619975936","-0.003452255389701575","-0.004222350467927247","0.8554424740111719","-0.1889440449427538","0.802669222908819"
"0.0024671786366929627","0.002855967802239252","-0.0206620776036643","-0.0006404391396515369","-0.006823214291762518","-0.00402625827276827","0.8543279209966086","-0.18894272567629058","0.8028490008240089"
"0.002179295656088067","0.0030865215182214467","-0.019745105641599765","0.0007094320737090572","-0.008297006618272372","-0.0021073214075182367","0.8507056236992787","-0.18885301555678968","0.8006099486075527"
"0.00311708168655353","0.0021585106111534514","-0.02109578055869482","-0.003157066592561167","0.0007632980430922813","0.0009481250492286862","0.8508170790007349","-0.19056542342608593","0.8014761512898314"
"0.0021927751267518444","5.032975893925981e-05","-0.020666208107997925","-0.004196162235225805","-0.005969285902514847","-0.007674592393838682","0.8474734199570457","-0.18991238652677805","0.80288168771768"
"0.0023362352073877215","0.0008235509977982686","-0.01756419935344628","5.120017257886805e-05","-0.011037092416617829","-0.0051346160144651095","0.8522659979196671","-0.19003771684078666","0.8004465141391983"
"0.0023362352073877215","0.0005917092722295814","-0.018493562828511688","0.00038325250942222364","-0.007456480692533073","-0.0033976954194740267","0.8552195634082593","-0.18851396407573487","0.7996783721379324"
"0.0024710299140254777","0.0016127684847475903","-0.022206886224439684","0.0036500544502075937","-0.006417311111223266","-0.004671809311286684","0.8514022193333806","-0.18998626544871997","0.7989265735835018"
"0.002614489994661355","0.002309643994084652","-0.019879347032442547","0.0065232843547460406","-0.004317671604813564","-0.0007972896383744805","0.8558882952169972","-0.18730551599539946","0.7986160480936284"
"0.002752173159298485","0.003556333402068746","-0.019720322615598022","0.004780611304818068","-0.00683948871173697","0.002188505258953351","0.8527954106015846","-0.18461025461098327","0.7993841900948944"
"0.0018962267721487935","0.002073959014104656","-0.02037500755247743","0.0017484314414137523","-0.006612843480622187","-0.002956730668726675","0.8533805509342303","-0.18220787038140812","0.7978969364328689"
"0.002464290178693589","0.0033253122632527434","-0.021591441078729706","-0.0007951530002799137","-0.007245631221981728","-0.005954902672432115","0.8526003638240357","-0.180203904623734","0.798714108774641"
"0.002906224252598766","0.0012228339696110074","-0.021104041567362068","-0.0008396320317735729","0.0016004733529544884","0.0005219642884623958","0.8527675467762204","-0.1820996905314218","0.8000052410746412"
"0.0022611352994038386","0.0009841367091464718","-0.02004663245795432","0.0004888661404796783","-0.008083763850665962","0.004308145398208921","0.8523774532211235","-0.1809360975108368","0.8006426355012236"
"0.0019068177848131974","0.00012387095145835984","-0.019129660495889787","-0.00012257613011822005","-0.004711608300077484","-0.0038088095018989107","0.8540771465683321","-0.18384771859522572","0.8017539898860341"
"0.0023343095687214724","0.000750736907465092","-0.020042501953620697","-0.0013194664321294109","-0.007662782898679791","-0.004256084150015239","0.8558882952169972","-0.18214718412409872","0.8009531609910971"
"0.0022486186480731854","0.003401013987981444","-0.020982191689520164","-0.0007572206660623777","-0.005343438722614999","-0.00037282769613060704","0.8556932484394483","-0.18206802813630382","0.7983872398379321"
"0.002185072572086831","0.0015317485268875651","-0.021289914262375153","-0.000834144359056823","-0.003026009184194259","-0.0005795981791447751","0.8550802442814389","-0.18478967484998501","0.7992207556265399"
"0.0017566179688454145","0.0015251007354734089","-0.018985092844212948","-0.0003521919095822395","-0.006600876995346855","0.002394790365246828","0.854467240123429","-0.1856801797126776","0.8009204740974264"
"0.002624118187992617","0.0003612178792918947","-0.01940846953840941","-0.00033476614183255917","-0.005138333164995813","0.0008995873771596327","0.854467240123429","-0.18551790993769807","0.801132938906287"
"0.002051240684782199","-0.00034074734534663076","-0.020207722126965658","-0.00013499559995086512","-0.011659588980640585","0.00727452522670913","0.8536870530132353","-0.1861749046363957","0.8006916658417299"
"0.0031218957832191523","0.001532475629073488","-0.019699670093929905","0.0027235042357163053","-0.0026241746086486197","0.00349271250744882","0.8588139968802252","-0.1857698898321785","0.7974066330278052"
"0.0026116015366619816","0.002623232779699288","-0.02080871050750795","0.0013192376699879247","-0.0034539306976401206","0.007346360981371329","0.8570585758822881","-0.18566566778158186","0.7943830953632478"
"0.002034872756119048","0.002932064239583168","-0.020680664873165607","-0.00035719820749927474","-0.0042867980728032076","0.003059271095872172","0.8552195634082593","-0.1871841434807806","0.7947589946404628"
"0.0024700670946923363","0.002618350807879517","-0.018801285401366677","-0.0025618947901936335","-0.0063924208218505765","0.0002591327942084707","0.853352687108866","-0.18851396407573487","0.8000542714151477"
"0.0023256441947233347","0.002618454679620363","-0.019117268982888916","-0.0037498315209301266","-0.005545193664357091","-0.000805783730986565","0.8524889085225796","-0.18913138078053507","0.7983218660505903"
"0.0028320871639480076","0.0021531092806294496","-0.01909455120905398","-0.002026317188030807","-0.0034508194114685345","-0.001863904982091933","0.85413287421906","-0.1910179318229801","0.799008290817679"
"0.001759506426844805","0.0009009354447286773","-0.018518345854513427","-0.0020448019803398602","-0.00680741853119908","0.00024893988307396936","0.8526560914747642","-0.1908780895778758","0.8002503927771729"
"0.0023304582913889573","0.0016832973967821504","-0.018960309818211202","0.0015501050239312031","-0.007247067200214768","3.537412597013367e-05","0.8535198700610507","-0.1907474821980142","0.801345403715148"
"0.0024719927333586023","0.0019984442585094784","-0.020350224526475683","0.003080299237265008","-0.0026184306957164607","0.001782244943735372","0.854439376298065","-0.19082531891934584","0.7981584315822359"
"0.002326607014056459","0.0023080859179719594","-0.01973684463293252","0.002343795793701172","-0.0007145628884111855","0.007793392941127312","0.852572499998672","-0.1886709567848614","0.799809119712616"
"0.0020445009494503103","0.0012941938555723373","-0.01974717089376658","0.0061243209207423105","-0.0043057051195382326","0.006050890513848289","0.8522102702689388","-0.18951132952195054","0.799809119712616"
"0.002601973343330702","0.004417482069554051","-0.022054057564095595","0.0035157508810871297","-0.008936495591386099","0.00988560929566387","0.8512907640319245","-0.18977782134752674","0.7976517847303372"
"0.0025499810993418587","0.0007516717531327081","-0.020034240944953447","0.0028356645640498826","-0.0009282843154286095","0.010782342787139633","0.8522381340943032","-0.19167888432106747","0.7989592604771727"
"0.002335272388054597","0.0005164022601160967","-0.019732714128598897","0.00534314589576493","-0.00683446278792133","0.007313840741085063","0.8489502027013422","-0.19007333703529436","0.8022769801847683"
"0.002900447336600002","0.002468256142356778","-0.02064142508199618","0.004615307198595963","-0.006841642679086529","0.0019683869161201926","0.8536034615371425","-0.19012478842736102","0.8030451221860344"
"0.0026067874399963416","0.0034817119434448454","-0.02158524532222927","-0.0012022035309188549","0.0007642553619143088","0.002239712502986202","0.8494238877325312","-0.18944668546525142","0.8037805772936294"
"0.0018923754948162955","0.002543563154470263","-0.021459264940053735","-0.003396887517779143","0.0045698370091753005","-0.0007354041064864372","0.8475848752585022","-0.19162611366253754","0.8037478903999585"
"0.0017450641368479032","0.0032437521723403186","-0.02131263203621008","-0.006188379981325996","-0.0021574816829106826","0.004573646464426644","0.8474455561316815","-0.19455884301033846","0.8058725384885665"
"0.0016121950688763958","0.0012157706912334666","-0.02038533381331149","-0.006161326717582017","-0.003000640235410556","0.0017747216045646687","0.8480306964643273","-0.19499024314382063","0.8033393042290724"
"0.002177370017421818","0.0032449155358377957","-0.020984256941686975","-0.007846716166343913","-0.009323970384601341","-0.002330109322315193","0.8467768243229439","-0.19609710770648595","0.8011656257999581"
"0.002539390086677472","0.002623232779699288","-0.020967734924352478","-0.003525029489463256","-0.010181967378842624","0.0028008079921044617","0.8480028326389633","-0.20029765212546843","0.800364796905021"
"0.002326607014056459","0.0023080859179719594","-0.01973684463293252","-0.004249498563034219","-0.00912628404785286","-0.002546101963022482","0.8481700155911476","-0.20003247956635553","0.8027182532493256"
"0.0023179416400583215","0.0038687172754895654","-0.020980126437353353","-0.0034048783394544104","-0.006389548865384497","-0.0012350994404373439","0.8503991216202738","-0.20035965764924113","0.8019174243543885"
"0.0023102390853933083","0.005117712636120445","-0.022221342989607366","-0.004426548214369368","-0.0072295961317127835","-0.0020925174175371757","0.8504827130963662","-0.20239132800264345","0.7965894606860331"
"0.0027502475206322187","0.003714727419685095","-0.020961539167852043","-0.002904826197510546","-0.007659432282802699","0.00025403633864122","0.8524889085225796","-0.20244409866117338","0.7979296233265396"
"0.002174481559422427","0.002223742064404856","-0.02004663245795432","-0.00033842459031039257","-0.007264538268716752","6.27979106891488e-05","0.8484765176701526","-0.20280689693856666","0.7988448563493246"
"0.0025990848853313284","0.003860189405566094","-0.019412600042743033","0.002213728322818199","-0.006433585531197718","0.0013619087036173681","0.8463031392917549","-0.20451798554139966","0.800070614861983"
"0.0027377308693015833","0.004333688736213433","-0.022041666051094724","0.0011746326801535612","-0.0009543712533288321","0.0035424636213196004","0.8477520582106864","-0.2051512334437588","0.7984035832847676"
"0.0021677418240905384","0.0033951867833199732","-0.021444808174886053","0.002716091063800695","-0.0017951365087736381","0.00353324146362648","0.8498697089383566","-0.2050879086535229","0.8014434643961607"
"0.0018885242174837803","0.0022971793851831097","-0.01851008484584618","0.0035993175463176407","-0.013172152719442514","-0.0008334502040659254","0.8475012837824101","-0.2047079599121074","0.8005282313733755"
"0.002889856323935615","0.002774677777853027","-0.02125687022770616","-0.001112090168412221","-0.007271000170765431","0.0004921136201399279","0.8481700155911476","-0.20466706265174667","0.7990573211581853"
"0.0028888935046024735","0.0032407814405521172","-0.020637294577662554","-0.0008926795347021576","-0.00516202680584097","0.004792551365458075","0.8481700155911476","-0.20534252708092982","0.7990573211581853"
"0.002385338993377191","0.0030828756201177455","-0.02066001235149749","0.0022744778225422227","-0.010222174769367738","0.004328773908838268","0.8519594958406623","-0.20634253106007203","0.7978805929860332"
"0.004146335553666026","0.009799211996058049","-0.025092043501476067","-0.003366175805557331","0.0017881078420716912","0.013220875431888886","0.8490337941774341","-0.20688738810939356","0.7997274024784389"
"-0.0001247310080842587","0.0015159600222789443","-0.021537744522392592","-0.004680906658538735","0.007527712839531793","0.009158514968069445","0.8438789864850802","-0.210763392978417","0.8006589789480593"
"0.001330089004270264","-0.0006702285073107325","-0.016203198175517165","-0.0011928648598043855","-0.0076723560869000566","4.872198578912328e-05","0.8454950883561964","-0.21213806863312168","0.801132938906287"
"0.002889856323935615","0.003084329824489592","-0.020327506752640754","-0.0027601249327162394","-0.010640523094593336","-0.0074532606092038","0.8458573180859296","-0.2144705317401446","0.8000869583088185"
"0.0023083134467270423","0.004328328954385769","-0.020354355030809308","-0.0015361813669610702","-0.004944715433240945","-0.00033957939076330513","0.8454672245308328","-0.21413016099262658","0.800070614861983"
"0.0021706302820899293","0.0029261643247031044","-0.020668273360164736","-0.0013674113621810172","-0.0034690084690870387","0.0005207508466606695","0.8511793087304684","-0.2146499519791464","0.799367846648059"
"0.0023073506273939177","0.004097858335796252","-0.02190329415591832","0.0003434909509657708","-0.0055832470875326464","0.00029674949006198715","0.8487830197491576","-0.21391907835850682","0.7980276840075522"
"0.0028763768532718377","0.0058884409531991455","-0.020178808596630286","-0.0028118245862056228","-0.005790267282795885","-0.0018376946391746444","0.8507056236992787","-0.21527000721687306","0.7976517847303372"
"0.002884079407936851","0.0041755855594714526","-0.020639359829829364","-0.007024431733470877","-0.005565776019030662","0.0009386602031752209","0.8495632068593516","-0.21626737266308876","0.7974229764746407"
"0.0015967899595463694","0.002843544742034048","-0.019608798998590176","9.03174012384058e-06","-0.007258794355784593","-0.0007900089875641224","0.844269080040177","-0.21776210156594905","0.7974883502619827"
"0.0020233189241215368","0.0037811741723044","-0.02005695871878838","-0.0015382031411198729","-0.003887835453723649","9.410470917368852e-05","0.8466653690214878","-0.21914733135235973","0.7984199267316031"
