"AccX","AccY","AccZ","GyroX","GyroY","GyroZ","MagX","MagY","MagZ"
"0.0021590764500924006","0.004505201754698655","-0.021236217706038042","0.0009278799578196903","-0.00454694946268892","-0.00395806284351125","0.833680826401828","-0.22090195574847993","0.784364562453119"
"0.0028022397646210793","0.005055805078576118","-0.02244852072795669","-0.0015988563658839538","-0.005808217010708883","0.0011733398476290948","0.828247380455833","-0.22218164421783074","0.7829263391315997"
"0.0025105055066836682","0.006144277050903301","-0.022000361007758484","-0.0008254796126619543","-0.0018039917078773841","0.0007792139504283798","0.8315910394995224","-0.2221552588885658","0.7868814532657777"
"0.0023785992580453025","0.003804347957687184","-0.02091610362018218","-0.001664900988404841","0.004940798052710584","-4.0101954097244564e-05","0.8310616268176049","-0.22425289256513053","0.7894310309721074"
"0.001952070293470152","0.003022235297811742","-0.02031304998747307","-0.0015735360514189487","-0.004113762695721911","-0.0013921188095807322","0.8266034147593525","-0.2251236084308744","0.7856720381999548"
"0.0028060910419535775","0.004431629400657302","-0.02198383899042399","0.0011490235408087271","-0.004553411364737599","0.0003234452096999666","0.830448622659595","-0.22381753463225862","0.7864238367543851"
"0.002087827819441016","0.004271843501713613","-0.021548070783226653","0.002158755320690755","-0.00791742970533885","0.0020130415744237223","0.8289718399152991","-0.22450355319314774","0.786816079478436"
"0.0026616681419845585","0.0045865125534330494","-0.021835140834413524","0.00196832344992353","-0.008554525381397511","0.004150883340705187","0.8335693711003718","-0.22570408567470363","0.7862930891797018"
"0.002658779683985185","0.00505549346335358","-0.02260961039696803","0.003682980486508095","-0.0043466304991798665","0.004182675515910417","0.8316746309756149","-0.22418692924196815","0.7870939180746387"
"0.0022341763580762835","0.005679243267134927","-0.02062283781249487","0.002148261350056969","-0.003257441009419174","0.003740497323361339","0.8303928950088674","-0.22347452535181406","0.7868977967126133"
"0.002383413354710942","0.004435992013772842","-0.021851662851748017","0.001304026226316933","-0.004100838891624553","0.0028709449282442443","0.8278015592500076","-0.22350091068107902","0.7885321413961579"
"0.0025201337000149305","0.005838790261074669","-0.021849597599581206","0.0021459507510183376","-0.0032610309550017737","0.004168599591010391","0.8324548180858089","-0.22371199331519875","0.7888753537797022"
"0.0026674450579833226","0.0052161830464426285","-0.02184133659091396","0.0005671376829133252","-0.006210769575371041","-0.001423425608065272","0.8261575935535275","-0.2232766353823268","0.7867833925847652"
"0.0022389904547419235","0.004513293363310573","-0.02185992386041527","0.001244624576032111","-0.008524848497914688","-0.0005861507648740977","0.8245136278570471","-0.22371199331519875","0.7905914156974241"
"0.0026530027679864208","0.006224050547873172","-0.02261374090130165","0.0006254803086387741","-0.003284963925552437","0.0011971233069429312","0.8294455249464887","-0.22303916741894214","0.7885321413961579"
"0.0026626309613177004","0.004507632353434456","-0.02137045909688082","0.0005353669461321401","-0.0028630256547442405","0.002049202140115167","0.8240399428258575","-0.22199694691297603","0.7888099799923606"
"0.002087827819441016","0.004582160327491595","-0.02093056038534986","0.0017521861648515289","-0.0066532902008528075","-0.0005458644970567828","0.8256560446969743","-0.22369880065056627","0.7888590103328669"
"0.002657816864652061","0.005442727313228162","-0.021527418261558535","0.0011471943165698103","-0.007921976969743477","-0.00012334406169567155","0.8278294230753719","-0.22216845155319828","0.7880581814379298"
"0.0026530027679864208","0.006301331123062735","-0.02230395307627985","0.0004528593054610019","-0.009604464799455115","0.0007248517577110398","0.8280523336782848","-0.22293362610188228","0.7908529108467913"
"0.0022293622614106613","0.004895011623746222","-0.021234152453871228","0.00031634141226184905","-0.005177104577287888","-0.0026759402358071996","0.824820129936052","-0.2229995894250447","0.7884013938214742"
"0.0026626309613177004","0.004430704942163771","-0.021835140834413524","0.0005546219381207372","-0.0028647009626827868","-9.276532829216775e-05","0.829947073803042","-0.22509722310160946","0.7896271523341327"
"0.0023766736193790534","0.004426269618829639","-0.02029652797013858","-0.0007680034615759922","-0.0026430816553836434","0.004192625738684573","0.8295848440733091","-0.22509722310160946","0.7896108088872972"
"0.0026616681419845585","0.004587156558226296","-0.022144928659435324","0.0018170754878531006","-0.0070807330548876566","0.002019594160153044","0.8255167255701539","-0.22463547983947257","0.7920623259126143"
"0.0025105055066836682","0.006143965435680763","-0.021845467095247588","0.0038848690775085347","-0.002451139231567323","0.00034722866901380306","0.8243464449048624","-0.2261262509429431","0.7911797797835002"
"0.0023728223420465384","0.005051442465460579","-0.02122795669737079","0.001996532013186825","-0.007499320709818761","0.0007348019804851958","0.8296962993747652","-0.22532149840036161","0.7913268708050191"
"0.0027974256679554397","0.00614541964005261","-0.021987969494757613","0.0005603984357173162","-0.004551736056799052","-0.0013816832100858858","0.8256003170462457","-0.2251763790894043","0.792928528594893"
"0.002373785161379663","0.00458595164603248","-0.0221573201724362","0.000800700735735007","-0.0024398907354085115","0.0011959098651412048","0.8235662577946684","-0.22544023238205402","0.7911634363366646"
"0.002658779683985185","0.005055181848131041","-0.022454716484457127","0.0007541036551226022","0.0005093692255497441","0.0067864789340547965","0.8244857640316828","-0.22536107639425912","0.7935332361278045"
"0.0025114683260167928","0.005986807491780484","-0.021223826193037167","0.00019397593817431489","-0.0011743152526894288","0.0016402722529333903","0.8244300363809549","-0.22599432429661825","0.7922584472746397"
"0.0022283994420775194","0.004742444810791344","-0.022783091578980237","0.0025425073110234933","-0.00750219266628484","-0.0026936564861124042","0.8195260031168775","-0.22433204855292546","0.7944648125974251"
"0.0027935743906229247","0.006925496413807466","-0.022454716484457127","0.0005078323075884463","-0.009393615328903772","0.004155251731191401","0.824820129936052","-0.22433204855292546","0.7933207713189437"
"0.0020820509034422687","0.005518242068823337","-0.021552201287560278","-5.556875799790239e-05","-0.0036973290081403674","0.0007636818953662826","0.8225352962561974","-0.22632414091243036","0.7924218817429941"
"0.0026626309613177004","0.004585536159069096","-0.02137045909688082","-0.0005754535416900219","-0.005177104577287888","0.0016048397523229813","0.8194424116407847","-0.22629775558316537","0.7921113562531206"
"0.0025114683260167928","0.005677789062763079","-0.022462977493124373","-2.427939601643226e-05","-0.002441087383936045","-0.0026538555950157807","0.8203061902270715","-0.22602070962588325","0.7938601050645134"
"0.002658779683985185","0.005517722710119108","-0.020133373048960422","0.0009475200496480593","-0.0034946167475762486","0.003335207761584741","0.8225910239069258","-0.22602070962588325","0.7936966705961589"
"0.002440219695365408","0.005677477447540541","-0.022467107997457998","0.0006334711303140418","-0.009182047869235906","-0.0001315954659474107","0.8260461382520711","-0.2242001219066006","0.7942196608948934"
"0.0026568540453189363","0.005521981451493802","-0.022146993911602138","0.0009583991201216165","-0.005181412511987007","0.0022516042326431204","0.8192473648632368","-0.22554577369911383","0.7953146718328682"
"0.002085902180774767","0.004894409167649314","-0.021240348210371664","0.002666028084630343","-0.008761066917249738","0.0024387169584693218","0.8190801819110521","-0.22546661771131896","0.7927487506797032"
"0.002085902180774767","0.004661996147505973","-0.02185992386041527","0.0026763295053442424","-0.006655204838496861","0.001595617594629861","0.8237334407468531","-0.2251895717540368","0.7937293574898299"
"0.003084345829227211","0.00614895127924138","-0.023059835369333044","0.0013127872476717446","-0.0007645827968620714","0.0012141114921671","0.8254052702686978","-0.22492571846138715","0.7959193793657797"
"0.002371859522713414","0.005206626846284781","-0.02091816887234899","0.001632035014842683","-0.0011762298903334814","0.0037783567075752008","0.8252659511418771","-0.22352729601034402","0.7944157822569186"
"0.002663593780650825","0.004120398503559874","-0.022452651232290316","0.000490984189598424","-0.005394415949887911","-0.002682250133176176","0.8221452027011005","-0.22348771801644657","0.7936803271493236"
"0.0027974256679554397","0.006301538866544427","-0.02214286340726851","0.0021720412651628864","-0.009190663738634145","-0.00012868320562326732","0.8238170322229449","-0.22123177236429198","0.7969326730695773"
"0.002442145334031674","0.0052873351889222665","-0.022155254920269388","0.0019115212235571689","-0.002443959340402124","0.0011993075021860386","0.8205848284807122","-0.22079641443142006","0.7944811560442604"
"0.0025143567840161664","0.004901721738204886","-0.023857022705722486","-0.0005707360686528156","-0.0024377367680589513","0.001624497509510948","0.8237334407468531","-0.22102068973017228","0.7956415407695772"
"0.0026558912259858117","0.005755381253175182","-0.021992099999091238","0.003970650066817734","-0.003717432703402925","0.00033630769279826585","0.8221730665264647","-0.22099430440090728","0.7951675808113492"
"0.0027309911339696946","0.005286919701958883","-0.02136839384471401","0.0015797577115936425","-0.0016041514037793438","-7.941746847317814e-05","0.8238448960483091","-0.22207610290077093","0.7969326730695773"
"0.0023699338840471647","0.0052110933311411665","-0.023088748899668415","-0.001002529263997104","-0.005172796642588768","0.0016070239475660887","0.8229811174620227","-0.22102068973017228","0.7958376621316025"
"0.0026568540453189363","0.005521981451493802","-0.022146993911602138","-0.0009169408246077901","-0.007493576796886601","0.0011641176899359748","0.8214207432416344","-0.22232676352878808","0.7947263077467921"
"0.0026597425033183094","0.0048990833959873924","-0.022299822571946223","-0.0007445123713499038","-0.005598324858979565","0.0013886044232553475","0.8223123856532851","-0.22204971757150593","0.7966711779202102"
"0.002654928406652687","0.005680385856284235","-0.023386145211689344","0.0006150826129649317","-0.005812764275113508","0.002461286975981432","0.8215321985430906","-0.22120538703502707","0.7968672992822357"
"0.0026520399486532962","0.006456827119109476","-0.022149059163768952","-0.00023560293309128453","-0.0037030729210725272","0.001623769444429912","0.8237613045722167","-0.2231974793945319","0.7950041463429947"
"0.0023660826067146497","0.005989819772265023","-0.022935920239324323","-0.0025344564266098824","-0.00032278016049682443","0.0007881934197611547","0.8153742931376301","-0.22350091068107902","0.7956415407695772"
"0.0022283994420775194","0.004896954025300045","-0.022163515928936634","0.0011377593704953977","-0.008759152279605683","0.0011529540253600924","0.8178263097696685","-0.22524234241256674","0.7969980468569192"
"0.0026510771293201717","0.006768338469907187","-0.022149059163768952","0.0006289462071967216","-0.003284963925552437","0.0005576394774331502","0.8181606756740378","-0.2233953693640192","0.7972105116657799"
"0.00243636841803291","0.006146873844424456","-0.023396471472523408","-0.0004871694034223045","-0.005175189939643834","0.0011830473820429056","0.8205012370046201","-0.22609986561367815","0.7964260262176786"
"0.00236897106471404","0.005520734990603646","-0.02215938542460301","0.0007989677864560333","-0.0015967321829086392","0.0012063454646360514","0.8166281652790134","-0.225057645107712","0.7963116220898303"
"0.0023699338840471647","0.005518865299268415","-0.021230021949537606","0.0009661011169170553","-0.005388911366661259","0.0011801351217187624","0.8193309563393286","-0.22641648956485771","0.795968409706286"
"0.0025114683260167928","0.005677789062763079","-0.022462977493124373","-0.0015848002217322776","-0.004541444879462267","-0.0005276628700308876","0.8191080457364164","-0.2281579212963454","0.7976681281771725"
"0.0023660826067146497","0.005989508157042485","-0.022781026326813426","-0.00019054625183796754","-0.005388672036955752","-0.0035299605758621977","0.8192473648632368","-0.2248861404674897","0.7957396014505898"
"0.0023670454260477742","0.005911604351407845","-0.022778961074646616","-0.0007065800371323677","-0.00917893658306432","-0.003557141672220868","0.818662224530591","-0.2269573888147895","0.7972268551126155"
"0.002220696887412506","0.006764599087236724","-0.021238282958204853","-0.0022395662243045195","-0.002851777158585429","-0.004364323158729229","0.8212814241148141","-0.22744551740619137","0.7960174400467925"
"0.002658779683985185","0.0055181381970824915","-0.020288266961471325","-0.00313039842865696","-0.007907856517118585","-0.0005514463293447242","0.8180492203725811","-0.2270233521379519","0.7995639680100842"
"0.0026626309613177004","0.004121042508353121","-0.022762439057312116","0.0008167786540454856","-0.0007595568730464321","-0.00029395397901839485","0.8174362162145716","-0.22790726066832825","0.795494449748058"
"0.0023680082453808988","0.005831726982697128","-0.021849597599581206","0.0035531055655450075","-0.004134584380100989","-0.0009509113704730351","0.8221730665264647","-0.22699696680868695","0.797978653667046"
"0.0026626309613177004","0.004275551722861822","-0.02214286340726851","-0.0007335370259164035","-0.004967212425558569","0.00031956219593444246","0.821615790019183","-0.2274191320769264","0.7953963890670455"
"0.0027955000292891907","0.006303824044843043","-0.02322712079484482","0.002179358162118553","-0.0062423610964979165","-0.0005366423393636628","0.8209191943850812","-0.226944196150157","0.7966548344733747"
"0.0025124311453499173","0.005677165832318003","-0.022153189668102573","0.00045998365249678275","-0.006654008189969328","0.00031446574036719175","0.8209191943850812","-0.22495210379065209","0.786374806413879"
"0.002442145334031674","0.005365550609779445","-0.022310148832780284","0.0004588283529774669","-0.0045462314735724","0.0007561585561955793","0.8220337473996444","-0.2252819204064642","0.7859825636898281"
"0.0023699338840471647","0.005364927379334368","-0.02215938542460301","0.001680365044734062","-0.002444198670107631","-0.0017983791247987108","0.824541491682411","-0.22620540693073796","0.7937457009366652"
"0.0026530027679864208","0.0061461467422385336","-0.02261374090130165","0.0007777872952685766","-0.004126925829524776","0.0033322955012605984","0.8213928794162701","-0.22514999376013936","0.7932390540847665"
"0.0024411825146985326","0.005597703950570671","-0.02153567927022578","0.0009600357944406472","-0.009181569209824892","0.001581784358090181","0.8244857640316828","-0.22685184749772963","0.7928958417012221"
"0.002442145334031674","0.005133189525506527","-0.022929724482823887","0.00013457428788949319","-0.007074989141955497","-0.0014047386043186862","0.8256003170462457","-0.22768298536957604","0.7976354412835016"
"0.002513393964683042","0.005366589327187907","-0.022617871405635277","0.00048742201608053355","-0.003706662866655127","-0.0024502400606861005","0.8197489137197898","-0.2252687277418317","0.7970470771974255"
"0.0026568540453189363","0.005521358221048724","-0.021837206086580335","-0.0007324780013570306","-0.0037025942616615132","-9.373608173354873e-05","0.8180213565472174","-0.22584920498566094","0.7942196608948934"
"0.002506654229351153","0.006768442341648032","-0.02246504274529119","0.000406936149568198","0.0009284355398918597","-0.003053077947783746","0.8209191943850812","-0.2252819204064642","0.7975046937088179"
"0.0026520399486532962","0.006611907628192831","-0.021839271338747145","-0.001757710049789879","-0.0024353434710038847","-0.0005080051128429213","0.8220616112250083","-0.22645606755875516","0.7966875213670457"
"0.0023670454260477742","0.005832973443587282","-0.02246917324962481","-0.0005630340718573769","-0.006228001314167519","-0.00011023889023702704","0.8176869906428481","-0.22736636141839645","0.7886465455240059"
"0.0026626309613177004","0.004276195727655069","-0.022454716484457127","-0.0009540066841858394","-0.001176947879450002","-0.0035086040001518137","0.8208913305597169","-0.22776214135737094","0.7902318598670443"
"0.002445996611364172","0.004586252874080934","-0.022153189668102573","-0.0010594277653234083","-0.006649939584975715","-0.0018323554952470486","0.8173804885638432","-0.22588878297955842","0.7959030359189442"
"0.002302536530728295","0.004275333592206046","-0.022778961074646616","-0.0018894141949918825","-0.0036982863269623936","-0.004383010162475815","0.8204455093538918","-0.22623179226000295","0.7955761669822352"
"0.0025105055066836682","0.006143965435680763","-0.021845467095247588","0.0011535484639260474","-0.007499081380113254","-0.0009737240763454904","0.8220616112250083","-0.226944196150157","0.7964750565581847"
"0.002440219695365408","0.005677477447540541","-0.022467107997457998","0.0003176892617010508","-0.0028625469953332274","-0.0026567678553399234","0.8227582068591105","-0.2270893154611143","0.8007733830759072"
"0.0026568540453189363","0.005367108685892137","-0.02261167564913484","0.0015497199240914312","-0.004551018067682532","0.0033257429155312762","0.8184950415784064","-0.22604709495514816","0.8006426355012236"
"0.002227436622744395","0.005206626846284781","-0.021234152453871228","0.002697413721571756","-0.0075007566880518","-0.0011914155355751957","0.8191080457364164","-0.2254798103759514","0.7987304522214764"
"0.0027290654953034455","0.005058090256874734","-0.023691802532377525","0.002685957001338541","-0.008349898483189337","0.000512984819129621","0.822702479208382","-0.22474102115653238","0.7958376621316025"
"0.0029456998452569564","0.0050584018720972726","-0.02337375369868847","0.0023271402256310357","-0.007507218590100479","0.002446240297640025","0.8242628534287703","-0.2235932593335064","0.796736551707552"
"0.0020704970714447405","0.007392399888911073","-0.023724846567046518","0.0005558735125999959","-0.0007449577610105269","0.009358247488633602","0.8192752286886007","-0.22355368133960896","0.8021625760569202"
"0.0030785689132284467","0.007086601483859901","-0.024455945834097968","-0.0105231600527589","0.0015918574835562492","0.004230485122898435","0.8216436538445473","-0.22609986561367815","0.8018030202265404"
"0.002657816864652061","0.005211612689845396","-0.022766569561645737","-0.0032965690095185522","-0.0028467512347697898","0.009760382101725711","0.8185507692291346","-0.23040067428386748","0.7995966549037551"
"0.001950144654803903","0.00294821629528475","-0.02217177693760388","0.0033163654390452077","-0.003492941439637702","0.007605794838580421","0.8171575779609309","-0.23212891335072272","0.8008387568632492"
"0.0022293622614106613","0.005049572774125347","-0.020614576803827625","0.005785721886622832","-0.009617627933257981","-0.0022769605713995793","0.8171018503102024","-0.23210252802145778","0.7999888976278059"
"0.0027935743906229247","0.006771558493873419","-0.023384079959522533","0.0009636942429184808","-0.008765135522243348","0.0011604773645307958","0.8194424116407847","-0.23346137247860346","0.8000542714151477"
"0.0029351088325925696","0.007085770509933132","-0.0243072476780875","0.0016526378562704822","-0.0035027539575634738","0.001198822125465348","0.8155972037405427","-0.23359329912492827","0.7995149376695779"
"0.002223585345411897","0.005909630788331767","-0.022165581181103445","0.002688556425257002","-0.0037080988448881663","0.00012298462405477544","0.816070888771732","-0.2313109681435088","0.8018847374607175"
"0.0025143567840161664","0.005132462423320603","-0.022462977493124373","0.002691348399095348","-0.005818986847456681","-0.00011023889023702704","0.8181885394994014","-0.23124500482034638","0.799367846648059"
"0.002794537209956066","0.0067695849307973415","-0.022452651232290316","0.00267527048078487","-0.007084801659881269","0.0011733398476290948","0.8198325051958825","-0.2313109681435088","0.801132938906287"
"0.00243636841803291","0.006456515503886936","-0.02246917324962481","0.003558593238261758","-0.005821380144511747","-0.001816823440184951","0.8169068035326542","-0.22967507772908094","0.7926997203391967"
"0.0027935743906229247","0.0069261196442525425","-0.022764504309478927","0.002712143790443033","-0.007087673616347349","-0.0031091389590235034","0.8188015436574114","-0.22851412324142248","0.7929612154885638"
"0.0024411825146985326","0.005521669836271262","-0.02246504274529119","0.002713299089962349","-0.004555565332087158","-0.002669144961717532","0.8221452027011005","-0.22831623327193523","0.7968999861759064"
"0.002438294056699159","0.0059890926700790995","-0.022467107997457998","0.002227014267290331","-0.011297483136209046","-0.006569146912465989","0.8211978326387219","-0.22524234241256674","0.7960174400467925"
"0.002942811387257583","0.005680281984543388","-0.02275417804864487","0.0023933773980718094","-0.004140806952444161","-0.005235817060729086","0.8223123856532851","-0.22489933313212218","0.7956088538759062"
"0.002434442779366661","0.006768130726425494","-0.02246917324962481","0.0016723742230587942","-0.00939648728536985","-0.0018410922762194777","0.820556964655348","-0.22478059915042986","0.7977008150708432"
"0.002513393964683042","0.005289620367220883","-0.02308255314316798","0.000910743014949839","-0.006236138524154744","-0.002040339420062943","0.8245693555077752","-0.22439801187608785","0.8008060699695781"
"0.002942811387257583","0.005835777980590129","-0.022599284136133966","-3.458081673033161e-05","-0.006237574502387784","-0.0018238614026349638","0.822368113304013","-0.22158797430936902","0.7977498454113497"
"0.0026558912259858117","0.005679035523653234","-0.022766569561645737","0.0002782165281244269","-0.0020196277725388614","0.002060123116330704","0.8262133212042557","-0.22294681876651476","0.7974229764746407"
"0.0020810880841091273","0.005520838862344493","-0.022791352587647484","0.001337241087497263","-0.006863900341698646","-0.00204300899202674","0.8232876195410277","-0.22281489212018993","0.7992697859670462"
"0.0029437742065907073","0.005524474373274109","-0.02275417804864487","0.0018262216090476843","-0.0024499425830397893","0.0011997928789067292","0.8218108367967313","-0.22135050634598435","0.8011492823531225"
"0.0025162824226824324","0.004898158937493862","-0.022151124415935763","0.0025338425646286244","-0.007504825293045412","-0.001836238509012573","0.8238727598736735","-0.2202555151814883","0.7982074619227422"
"0.002220696887412506","0.0065328612334088825","-0.022167646433270256","0.0004020261266111057","-0.006230633940928092","-0.0031045278801769428","0.8256003170462457","-0.2198465425778813","0.7956905711100835"
"0.003016948475908341","0.005291697802037807","-0.023059835369333044","0.0013331012642197144","-0.006243079085614437","-0.0013984287069497092","0.8267984615369014","-0.22054575380340294","0.7959357228126153"
"0.0024411825146985326","0.005520734990603646","-0.022000361007758484","0.00021544525424160063","-0.010445230054899923","-0.00142609518002907","0.8283031081065615","-0.218197459498821","0.796622147579704"
"0.0027974256679554397","0.005913993401447306","-0.02307222688233392","-0.0005534065758630784","-0.006655444168202367","-0.0011843775731251826","0.8241792619526778","-0.2215483963154716","0.7962952786429949"
"0.0026597425033183094","0.004976654812051324","-0.022144928659435324","0.001477995078933907","-0.006237095842976771","0.001599015231674695","0.8295291164225809","-0.22090195574847993","0.796229904855653"
"0.0021571508114261516","0.004662951767521758","-0.022165581181103445","-0.000697337640977841","-0.004542162868578787","-0.00395806284351125","0.8262133212042557","-0.2187911294072827","0.7939908526391969"
"0.0024450337920310476","0.00466480068450882","-0.02246504274529119","-0.0010832076804293254","-0.00412022459777059","0.0011837754471239416","0.8286374740109301","-0.22102068973017228","0.7947099642999568"
"0.0026568540453189363","0.005675815499687003","-0.02121763043653673","0.0014939767222844427","-0.0053948946092989255","-0.0005325166372377933","0.828553882534838","-0.2188043220719152","0.7942686912353996"
"0.0027983884872885643","0.005990027515746715","-0.0221407981551017","-0.0008007369479566071","-0.00412668649981927","-0.0022361889268615737","0.8301142567552263","-0.21900221204140244","0.7945301863847667"
"0.0022264738034112703","0.00536430414888929","-0.022165581181103445","-0.0003787637985265034","-0.00959848155681745","-0.001849100992110872","0.8308387162146924","-0.22014997386442842","0.7934842057872982"
"0.0022264738034112703","0.005518553684045877","-0.02139111161854894","-0.0003757792747682709","-0.008544952193177247","-0.00226870916714784","0.8322876351336242","-0.22045340515097553","0.7975864109429953"
"0.0028022397646210793","0.005365446738038599","-0.0215212225050581","-0.0013867626291295576","-0.00749644875335268","-0.0039760217821768","0.8311173544683335","-0.21877793674265025","0.7928468113607158"
"0.0024431081533647986","0.005363369303221674","-0.02122589144520398","-0.0008807414396692276","-0.0070718778557839115","-0.003115934233113171","0.8335415072750075","-0.21851408345000053","0.7946282470657795"
"0.002373785161379663","0.004585307641239234","-0.021847532347414395","-0.00018890957751893682","-0.006231351930044611","-0.0035420949938794605","0.8289161122645708","-0.21781487222447898","0.7835800770050175"
"0.0028041654032873284","0.004898719844894431","-0.021828945077913088","0.002693177623334265","-0.007929156860908676","-0.0005543585896688676","0.8304207588342313","-0.21814468884029106","0.782975369472106"
"0.002663593780650825","0.00442908454300657","-0.021058606019692203","0.001163175959920346","-0.00623781383209329","-0.0016151494127380334","0.8330678222438186","-0.21930564332794952","0.7873390697771704"
