"AccX","AccY","AccZ","GyroX","GyroY","GyroZ","MagX","MagY","MagZ"
"0.0023381608460539705","-0.004935617673418515","-0.017971054030308246","0.00256465055181038","-0.0048733951809999685","0.0014548583456296057","1.6409237110244854","0.3766861741090894","-0.07116584904199884"
"0.00241037229603848","-0.004313114330527322","-0.019197813817394584","0.003437286788733597","-0.006813162444131239","0.0005566687239917691","1.6384159667417186","0.37702918338953395","-0.0729587251598473"
"0.002339123665387112","-0.004160215128001736","-0.01765713570095282","-0.0007164963580064952","-0.008647385307134084","-0.0033802218575291667","1.638137328488078","0.37805821123086764","-0.07081773362440381"
"0.0023400864847202365","-0.003228797227833987","-0.017805833856963285","-0.002284045255798179","-0.007571358951176257","-0.0024861579380172005","1.6359082224589514","0.37734580734071355","-0.07019014526592268"
"0.002051240684782199","-0.003850054109835026","-0.01674016373888829","-0.0009040399799754299","-0.006230633940928092","-0.000506063605960159","1.6389732432490003","0.3803405422122872","-0.07150415839149257"
"0.002337198026720846","-0.004779394575185851","-0.018586499176018227","-0.001433648534621791","-0.008350377142600353","0.001016805855206397","1.6361868607125922","0.38065716616346673","-0.07026205643199863"
"0.002768541087961636","-0.005712162807984602","-0.018883895488039155","-2.6012345295405967e-05","-0.005385800080489673","-0.0013904199910583154","1.6370227754735152","0.378915734431979","-0.0697701186822517"
"0.00291200116859753","-0.005941303868291289","-0.021349806575212703","0.0013792169700324044","-0.003262466933234813","-0.00314262995275115","1.6378586902344372","0.38118487274876606","-0.06959197511174534"
"0.002193737946084969","-0.0050922562586145645","-0.0167422289910551","0.0019190306704327219","0.0005301909099288205","-0.00684387013637683","1.6294995426252141","0.38132999205972334","-0.0699678743889606"
"0.0020541291427815895","-0.002532025590237771","-0.016116457584511062","0.0027405449036262135","-0.009630073077944324","-0.0005526597711464505","1.634515031190748","0.38255690987054425","-0.06859829354415019"
"0.00204931504611595","-0.004465390302607832","-0.019829780980439058","-0.0024939246684738854","-0.015181325597170706","0.002955400477644397","1.6347936694443885","0.3815278820292106","-0.06987471674199855"
"0.002913926807263779","-0.005558224888050554","-0.018569977158683734","-0.0023129277437810743","-0.009614037987675381","0.002763919361331981","1.634515031190748","0.3818972766389201","-0.07423351401301213"
"0.002768541087961636","-0.005632908669718963","-0.019809128458770937","-0.002642862031505684","-0.009676981700223625","-0.00030608839703565835","1.6334004781761848","0.3818708913096552","-0.07186371422187239"
"0.002624118187992617","-0.0059436929183307495","-0.019199879069561394","-0.0012514963104096632","-0.006222736060646372","0.00014992303205310019","1.6339577546834663","0.38118487274876606","-0.07248803389098646"
"0.002193737946084969","-0.004702425615218828","-0.01782029062213097","0.002040625944840712","-0.006807657860904587","0.0014463642530175213","1.632285925161622","0.38151468936457805","-0.07035194538959359"
"0.0023400864847202365","-0.0038506773402801025","-0.01719245396342012","0.0013452319091725306","-0.008325965512638676","0.0009990896049011926","1.634515031190748","0.3818840839742876","-0.07227883777149273"
"0.0021927751267518444","-0.005244739974176764","-0.018284972359663674","-0.0025919325776958446","-0.010407894620840887","0.005841450458870323","1.6325645634152628","0.3811980654133985","-0.07534159970845541"
"0.0026260438266588835","-0.005326694777704406","-0.017035494798742407","-0.0003832887216438237","-0.006654247519674835","-0.000297836992783919","1.6378586902344372","0.3800107255964751","-0.0754331230107339"
"0.0023362352073877215","-0.005398989509333351","-0.01920607482606183","-0.0037024642406381777","-0.009193057035689211","0.0027816356116371855","1.63535094595167","0.3784407985052097","-0.0769628696345317"
"0.00248065810735674","-0.005634674489313347","-0.017968988778141435","-0.002303300247786776","-0.006634861813528797","0.0014720892192141197","1.6328432016689034","0.38031415688302217","-0.07314177176440431"
"0.0024113351153716043","-0.004393926544905655","-0.017347347875931018","0.0018589550954282992","-0.006137056026074998","0.002985979211047901","1.634236392937107","0.37911362440146623","-0.07439204544731597"
"0.0021947007654180934","-0.004470687761390987","-0.017200714972087368","0.0002171782035205744","-0.007048184214938754","0.0010170485435667424","1.6300568191324956","0.37786032126138036","-0.07335750526263221"
"0.0021947007654180934","-0.004469649043982525","-0.01781822536996416","0.001498212820521934","-0.008672514926212281","0.0049490853578807725","1.6292209043715733","0.3789289270966115","-0.07665724717870885"
"0.0026982552766433754","-0.005013417607312308","-0.018883895488039155","0.00012793131565342716","-0.005094296499182593","0.0023423696794122504","1.628384989610651","0.37735900000534606","-0.07750547206946853"
"0.0024094094767053553","-0.0049352021864551305","-0.018429540011340513","0.00030623254146783555","-0.006619066052965359","0.0010170485435667424","1.630614095639777","0.3758022655787131","-0.07633854996541764"
"0.002482583746022989","-0.004469129685278295","-0.01888802599237278","-0.000574587067050535","-0.008089029104187106","0.002986949964489282","1.6334004781761848","0.3758022655787131","-0.07519941172098703"
"0.0026260438266588835","-0.005091217541206103","-0.01857823816735098","0.0012497271489090894","-0.007425607160522717","0.0031985742147103554","1.630614095639777","0.37928512904168854","-0.07707400507301275"
"0.0024835465653561136","-0.004005238490659227","-0.01796072776947419","0.0011659679337586925","-0.005933386446688852","0.0027709573237819935","1.6294995426252141","0.37648828413960217","-0.07659350773605061"
"0.002627006645992008","-0.004315503380566785","-0.018419213750506452","0.001329057715902109","-0.009552530253360175","0.004061088647377438","1.6292209043715733","0.3775305046455683","-0.07706093031554438"
"0.0021234521347667083","-0.003850885083761795","-0.016428310661699672","-0.0007428756970308731","-0.007691741793046095","0.0014580132943140941","1.6297781808788547","0.3768444860846792","-0.07659514208073416"
"0.0023400864847202365","-0.00385181992942941","-0.01657494356554333","-5.701288239704719e-05","-0.003987396611214409","0.004110354384527528","1.6303354573861362","0.37702918338953395","-0.07854654963288647"
"0.0024094094767053553","-0.0050922562586145645","-0.017351478380264643","0.002375181430642585","-0.0056811329370848596","0.004084144041610238","1.6320072869079811","0.3765146694688672","-0.0787230588587093"
"0.0023381608460539705","-0.00447058388965014","-0.017659200953119635","0.0017082847831175274","-0.007731709853865703","-0.0016326229746828924","1.6269917983424473","0.3766597887798245","-0.07729954463934191"
"0.002697292457310251","-0.00524733676769792","-0.018268450342329174","0.0011081066828329583","-0.005826406068327386","-0.002497564290953428","1.623648139298758","0.3780450185662352","-0.07913164502959545"
"0.0021956635847512175","-0.0035398930916683133","-0.017041690555242843","0.0010128907474493461","-0.0032155583109555125","-0.0007189012979829589","1.628384989610651","0.3780714038955001","-0.0790417560720005"
"0.002337198026720846","-0.005245467076362689","-0.01828084185533005","0.0018713745652609443","-0.008548063479348831","0.00033703575787930176","1.630614095639777","0.377385385334611","-0.0789829196633929"
"0.002772392365294151","-0.0038506773402801025","-0.018410952741839206","0.00022815354895407467","-0.003208139090084807","0.00015744637122380343","1.6317286486543405","0.3763431648286449","-0.07785522183174708"
"0.002193737946084969","-0.00477970619040839","-0.01797518453464187","-0.0024901699450361092","-0.011326920689986362","0.0027610071010078373","1.6272704365960882","0.37544606363363603","-0.07682885337048104"
"0.002627006645992008","-0.004316645969716093","-0.01780170335262966","0.0010281984660802806","-0.005210132076647803","-0.0038100229437006364","1.6325645634152628","0.3758022655787131","-0.0758678586965568"
"0.002339123665387112","-0.004159176410593274","-0.018274646098829617","-0.0007260275790408507","-0.005376466221974914","-0.0007239977535502096","1.634236392937107","0.3773721926699785","-0.07435118683022736"
"0.0024094094767053553","-0.005090905925983563","-0.018121817438485524","-0.0014248875132669794","-0.003645155132339921","0.0003896991320742249","1.6300568191324956","0.37734580734071355","-0.07334443050516384"
"0.0021956635847512175","-0.004083557783257251","-0.016736033234554665","-0.0016022259894819578","-0.007949739215582246","-0.0002951674208201211","1.6317286486543405","0.3784144131759446","-0.07725051429883556"
"0.0024094094767053553","-0.005169329090322434","-0.017661266205286446","-3.28478674513579e-05","-0.006657837465257435","-0.0007368602366485086","1.6328432016689034","0.3777152019504231","-0.0741697745703539"
"0.002337198026720846","-0.004934059597305822","-0.018896287001040027","0.0011933100223825003","-0.007538570781521849","-0.002506058383565512","1.6336791164298257","0.37910043173683383","-0.07200917089870787"
"0.0020522035041153235","-0.0032281739973889106","-0.017353543632431453","-0.0014141047177533652","-0.007137214865387222","-0.0027048201506882866","1.634515031190748","0.3789289270966115","-0.07264493098060675"
"0.0021927751267518444","-0.005398781765851658","-0.018904548009707277","-0.0007587610654214654","-0.006971838038882138","0.005194928666910529","1.632285925161622","0.3783880278466797","-0.07180324346858125"
"0.002913926807263779","-0.005248375485106382","-0.018260189333661928","0.0003053660668283487","-0.003602075785348727","0.0019101417096373282","1.63535094595167","0.3784144131759446","-0.07391971983377157"
"0.00204931504611595","-0.004468090967869833","-0.018287037611830485","-0.0004133265091460349","-0.006963940158600419","0.005413105502860925","1.6331218399225442","0.37751731198093585","-0.07176892223022681"
"0.002337198026720846","-0.004935098314714284","-0.018278776603163238","0.0019497423826545341","-0.004852334166915385","0.002775811090988899","1.6389732432490003","0.37702918338953395","-0.07229844990769527"
"0.0020502778654490745","-0.0038470418293504853","-0.018437801020007763","0.0018903407323697123","-0.003231832730929964","-0.002039854043342252","1.6384159667417186","0.3777152019504231","-0.06993191880592262"
"0.002627006645992008","-0.004159488025815812","-0.018881830235872345","-0.0026401663326272797","-0.0062447543935529835","-0.0002823049377218219","1.63535094595167","0.3787442297917567","-0.07088310741174561"
"0.002482583746022989","-0.004469129685278295","-0.01888802599237278","-3.823926520816511e-05","-0.006416832451812253","0.0005802094949452602","1.6400877962635632","0.37910043173683383","-0.06906571612364396"
"0.002625081007325759","-0.005324513471146636","-0.018270515594495988","-0.001414489817593137","-0.006054726607380716","-0.0020434943687474313","1.636465498966233","0.37927193637705603","-0.07087493568832788"
"0.0024094094767053553","-0.005247959998142996","-0.017043755807409654","-0.0015797939238152423","-0.005447307814804877","-0.003791821316674742","1.6350723076980294","0.3811980654133985","-0.0726841552530118"
"0.0016170091655420354","-0.0036080329536634127","-0.02076740546417171","0.0004756764709674893","-0.007879615611868802","0.0018929108360528143","1.6350723076980294","0.38047246885861197","-0.06832372363731469"
"0.002625081007325759","-0.005011755659458771","-0.019658365050593662","0.0030905043830189646","-0.008756998312256124","0.00010478299702888025","1.6339577546834663","0.38082867080368904","-0.07052518592604932"
"0.00204931504611595","-0.004779290703445005","-0.017826486378631407","0.0006356854543927306","-0.005256083380105077","0.004540398159059342","1.6378586902344372","0.38118487274876606","-0.06872086939541604"
"0.002770466726627885","-0.004937279621272054","-0.01826225458582874","0.003448454684086983","-0.007722854654761957","-0.0018675453074971122","1.639251881502641","0.38014265224279986","-0.06844956817794762"
"0.0021927751267518444","-0.00477669390992385","-0.019672821815761344","0.0012723517644956908","-0.004918149835929709","-0.00029225516049597816","1.636465498966233","0.38117168008413355","-0.0687486532550363"
"0.002627006645992008","-0.004473180683171295","-0.017031364294408782","0.00021207563064359617","-0.007462942594581752","0.001887329003764873","1.6409237110244854","0.38136957005362077","-0.06845120252263116"
"0.0024816209266898645","-0.005091529156428641","-0.01796485827380781","0.0017061667339987817","-0.00599896278599767","-0.0007438981990985217","1.6373014137271558","0.38171257933406527","-0.07026532512136573"
"0.0024084466573722307","-0.005399924355000967","-0.018896287001040027","0.0022182532459355197","-0.004876267137466048","0.0014565571641520225","1.6373014137271558","0.3799711476025776","-0.06957072863085925"
"0.0023381608460539705","-0.004391433623125347","-0.018584433923851416","0.0003150898377825902","-0.003204070485091195","0.0001625428267910541","1.6384159667417186","0.38135637738898837","-0.06806386283263109"
"0.0020502778654490745","-0.004312594971823092","-0.01843986627217457","-0.00021885109006120523","-0.009409889748878223","0.001004914125549479","1.6409237110244854","0.3820555886145099","-0.06737743806554233"
"0.0027695039072947606","-0.005248271613365535","-0.017956597265140564","-0.0012625679308031065","-0.006404147977420401","0.001902618370466625","1.6389732432490003","0.3829263044802537","-0.06786937581528928"
"0.0023381608460539705","-0.0040794029136234046","-0.019507601642416383","-0.0008994187818981667","-0.006235181205332718","-0.0007290942091174602","1.6370227754735152","0.38168619400480036","-0.06657497482592191"
"0.002625081007325759","-0.005090386567279333","-0.01904085465271687","-0.001595775567165778","-0.007101794068972241","-0.0007327345345226391","1.6406450727708446","0.38118487274876606","-0.06692799327756756"
"0.0021927751267518444","-0.005244428358954227","-0.01843986627217457","-0.0014252726131067513","-0.005149342331449118","0.0001625428267910541","1.6375800519807966","0.3815278820292106","-0.06873557849756794"
"0.0023381608460539705","-0.004468402583092371","-0.018894221748873216","0.0010042260010544775","-0.007483046289844308","0.00034868479917587444","1.6398091580099223","0.3818708913096552","-0.06674167798364347"
"0.0023381608460539705","-0.004468402583092371","-0.018894221748873216","-6.0960155754709605e-05","-0.005684004893550939","0.004977237207680825","1.6375800519807966","0.3809869827792787","-0.06567935393933944"
"0.002625081007325759","-0.005556251324974476","-0.01888802599237278","-0.0023805127656610493","-0.009254086110593402","-0.0007419566922157598","1.6389732432490003","0.38115848741950104","-0.06500273524035195"
"0.0023381608460539705","-0.004470064530945909","-0.017966923525974624","-0.0010758907834736585","-0.007095810826334575","-0.0007332199112433297","1.6409237110244854","0.38081547813905653","-0.0643048700604784"
"0.0024816209266898645","-0.004934163469046669","-0.019199879069561394","-0.0003136819256050455","-0.008300835893560479","0.002984280392525484","1.642874178799971","0.38014265224279986","-0.0651253110916178"
"0.002193737946084969","-0.004701594641292058","-0.018282907107496863","-0.0012548659340076676","-0.007721897335939931","0.0001436131346841232","1.6409237110244854","0.38081547813905653","-0.06495860793389625"
"0.0021956635847512175","-0.0036146807450775672","-0.018584433923851416","-0.002490940144715653","-0.010459829166935825","0.0032046414237189872","1.6437100935608933","0.38049885418787693","-0.06598497639516229"
"0.0030593125265659226","-0.004470999376613526","-0.019484883868581455","-0.0011626345223822883","-0.008816830738632781","-0.0007526349800709512","1.6437100935608933","0.38085505613295395","-0.06730062386541573"
"0.0023381608460539705","-0.004155644771404504","-0.02028000595280408","-0.002300508273948429","-0.006203111024794828","0.001475001479538263","1.6417596257854075","0.3794302483526458","-0.06425910840933914"
"0.0024113351153716043","-0.004316334354493553","-0.017347347875931018","-0.0024912289695954827","-0.0048631040036631835","0.004338481443252079","1.639251881502641","0.3790872390722013","-0.0673431168271879"
"0.0027695039072947606","-0.005091425284687794","-0.018881830235872345","-5.3546983839099766e-05","-0.00765297038075402","0.003203427981917261","1.6448246465754561","0.3784012205113122","-0.06461376120566832"
"0.0021947007654180934","-0.00400160297972961","-0.01920400957389502","-4.854068592206446e-05","-0.009176543286009255","0.0018815044831165867","1.647332390858223","0.3799711476025776","-0.06373121507655422"
"0.0022649865767363363","-0.004856051919930336","-0.018898352253206845","0.0013343528386989736","-0.007413162015836372","0.003640995095619779","1.645103284829097","0.37822971587108994","-0.06373121507655422"
"0.002915852445930028","-0.004082934552812175","-0.019179226547893273","-0.00024494160420575404","-0.006941443166282796","0.006719011569878812","1.6417596257854075","0.37961494565750065","-0.06643442118313707"
"0.002193737946084969","-0.004624002450879956","-0.018282907107496863","0.0026496613414400357","-0.006587474531838483","0.0014439373694140687","1.645103284829097","0.3778867065906454","-0.06503051909997222"
"0.0023381608460539705","-0.0040023300819155335","-0.019199879069561394","0.0013379150122168639","-0.006564498880109846","0.0032060975538810593","1.6495614968873493","0.3761716601884226","-0.06512367674693426"
"0.0020522035041153235","-0.0026055667827568703","-0.018431605263507324","0.0020175199544543955","-0.0047790992770303554","0.006288967795346997","1.6464964760973007","0.37683129342004673","-0.06324091167149082"
"0.0021956635847512175","-0.0035365691959612353","-0.018894221748873216","-0.0007557765416632329","-0.013017785059390734","0.0031764895739189365","1.6490042203800679","0.3761716601884226","-0.06665505771541559"
"0.0029148896265969036","-0.004314049176194938","-0.020106524770791872","-0.0005954787333581628","-0.007359791491508392","0.007376939714774834","1.648168305619145","0.3751294396824565","-0.06664525164731433"
"0.0024094094767053553","-0.004778875216481621","-0.019047050409217305","0.0022139208727380852","-0.010462222463990893","0.0009789464709925354","1.648168305619145","0.37478643040201187","-0.0683792913565552"
"0.002339123665387112","-0.0036914419615628998","-0.019505536390249573","-0.0017961237588071297","-0.009801672476792582","0.003642208537421506","1.6478896673655044","0.3734012006156012","-0.06921934452389715"
"0.0027695039072947606","-0.005091944643392025","-0.018572042410850545","0.0010116391729700874","-0.004282011478693075","-0.00029249784885632325","1.6492828586337085","0.3730449986705242","-0.06853618844617548"
"0.0026260438266588835","-0.00477970619040839","-0.019193683313060962","0.0011881111745455789","-0.0083810113449052","-0.0016369913651691074","1.6456605613363784","0.373559512591191","-0.06948247401794784"
"0.0021956635847512175","-0.0029147929552559657","-0.019507601642416383","0.0009379888286137038","-0.006266054737343073","-0.003154764370768413","1.6437100935608933","0.3730186133412593","-0.0677680464449095"
"0.002337198026720846","-0.005325240573332559","-0.017045821059576464","-0.000917229649487619","-0.010058233921095693","0.0012223628964188392","1.642874178799971","0.37440384312766994","-0.06759807459782086"
"0.0024113351153716043","-0.004315814995789323","-0.01765507044878601","0.001349756832289851","-0.007047944885233248","0.0005683177652883421","1.6420382640390483","0.3730186133412593","-0.06932230823896046"
"0.002051240684782199","-0.003226304306053678","-0.018433670515674138","-0.0012783570242337562","-0.009572394618917226","0.004082445223087821","1.642316902292689","0.3763431648286449","-0.07178363133237871"
"0.002770466726627885","-0.005404702455079892","-0.017186258206919682","0.0009989308782576134","-0.00574934190315425","0.0014543729689089151","1.6448246465754561","0.3768708714139442","-0.06913926163440347"
"0.002051240684782199","-0.003536880811183775","-0.01828084185533005","0.003088290058940276","-0.004875309818644022","0.0010143789716029446","1.641202349278126","0.37458854043252465","-0.06980934295465677"
"0.0023400864847202365","-0.003384293223880727","-0.0176530051966192","0.0011694338323166398","-0.007456241362827566","0.0016640557122472267","1.636465498966233","0.37631677949937997","-0.07189476677085974"
"0.002627006645992008","-0.004705437895703367","-0.017341152119430582","0.0006534963219821828","-0.007914079089461758","0.000564677439883163","1.6356295842053108","0.37493154971296927","-0.07231152466516363"
"0.0024835465653561136","-0.004005550105881765","-0.017805833856963285","0.0005591468612380574","-0.003575031528626478","0.003010248047082428","1.6373014137271558","0.37528775165804623","-0.07207454468604965"
"0.0024113351153716043","-0.00400409590150992","-0.018425409507006888","0.001854622722230865","-0.007838929561932674","0.0036325010030076946","1.6400877962635632","0.3737310172314133","-0.07285249275541691"
"0.0023381608460539705","-0.004314360791417477","-0.018274646098829617","-0.00012036180603953135","-0.006653529530558315","-0.0005167418938153511","1.6389732432490003","0.3746149257617897","-0.07550176548744278"
"0.0024122979347047458","-0.0036950774724925158","-0.0176530051966192","-0.0010815710061102945","-0.009447464512642762","-0.0003114275409632541","1.6378586902344372","0.37493154971296927","-0.07205166386048002"
"0.0024122979347047458","-0.0036950774724925158","-0.0176530051966192","-0.0011754390920547051","-0.00748232830072779","0.0014584986710347847","1.6367441372198737","0.37527455899341383","-0.07208108206478384"
"0.0021947007654180934","-0.004002122338433841","-0.018896287001040027","0.00033732935352941975","-0.006302672182285588","-0.004686613301267744","1.6395305197562817","0.37582865090797807","-0.07334443050516384"
"0.002265949396069478","-0.004313945304454092","-0.018278776603163238","-0.0028947173267165325","-0.00627131999086422","-0.00159379283702765","1.6359082224589514","0.37458854043252465","-0.07425802918326531"
"0.0022678750347357272","-0.003772981278127156","-0.017041690555242843","-0.001163789821901604","-0.0049430401253024","-0.000278664612316643","1.6375800519807966","0.37563076093849085","-0.07207454468604965"
"0.002193737946084969","-0.004935409929936824","-0.01766746196178688","0.00023739594510860127","-0.005397766565765004","-0.00226409808830128","1.636465498966233","0.37615846752379006","-0.07449827785174638"
"0.0024113351153716043","-0.004315814995789323","-0.01765507044878601","-0.000890272660703583","-0.002831434133617365","-0.002023351234838774","1.6361868607125922","0.376672981444457","-0.07299304639820174"
"0.0020502778654490745","-0.004157722206221429","-0.018284972359663674","-0.0016013595148424713","-0.006651614892914262","0.00015404873417896965","1.6398091580099223","0.3773721926699785","-0.06968513275870737"
"0.002193737946084969","-0.004780225549112621","-0.01766539670962007","-3.612121608941941e-05","-0.009230392469748246","-0.0007521496033502606","1.6400877962635632","0.3787706151210217","-0.07144695632756852"
"0.0023381608460539705","-0.004859168072155721","-0.017353543632431453","-0.0014300863611039008","-0.010093654717510676","-0.0003116702293235996","1.639251881502641","0.3784144131759446","-0.070806293211619"
"0.0024094094767053553","-0.004935409929936824","-0.018276711350996427","0.0011871484249461493","-0.0023475094690829502","-0.00027648041707353555","1.6398091580099223","0.3778867065906454","-0.0688254674551629"
"0.0021234521347667083","-0.0036924806789713615","-0.01828084185533005","0.0006588877197389899","-0.005773514203410421","0.0001448265764858495","1.639251881502641","0.377002798060269","-0.06685771645617512"
"0.0026260438266588835","-0.004937071877790362","-0.01796072776947419","-0.0016141640845148883","-0.007684561901880895","0.002336545158763964","1.641202349278126","0.37822971587108994","-0.06815211744554249"
"0.002337198026720846","-0.004701179154328675","-0.018894221748873216","0.0011761730795126488","-0.0061813320215937245","0.0010153497250443256","1.639251881502641","0.378559532486902","-0.06645893635339024"
"0.0024094094767053553","-0.004780017805630929","-0.018429540011340513","-0.0003893540441202317","-0.005977423112502073","0.0012451756022912942","1.642316902292689","0.3777020092857906","-0.06681849218377006"
"0.0023381608460539705","-0.004390810392680269","-0.018892156496706402","0.0013527413560480836","-0.005759393750785528","0.0005777826113418075","1.6437100935608933","0.3778867065906454","-0.06679397701351689"
"0.002482583746022989","-0.004859271943896569","-0.01765507044878601","-0.0009212731978052245","-0.00917893658306432","0.002323682675665665","1.6467751143509413","0.3789421197612439","-0.06545544871769382"
"0.0022669122154026027","-0.004003576542805689","-0.018276711350996427","-0.0005595681732994294","-0.003623136799433311","0.0010435015748443768","1.6459391995900192","0.37927193637705603","-0.06265254758541475"
"0.002265949396069478","-0.004779498446926699","-0.01828084185533005","-0.00021779206550183233","-0.006614040129149719","0.0014609255546382373","1.6456605613363784","0.3787574224563892","-0.06503705647870639"
"0.0023381608460539705","-0.004158033821443967","-0.018892156496706402","0.00100076010249653","-0.004453610877541332","0.001686140353038646","1.6478896673655044","0.3782165232064574","-0.0612927728087056"
"0.0020522035041153235","-0.0029167665183320447","-0.017968988778141435","-0.001266322654240883","-0.006819385016474412","0.0023447965630157036","1.648168305619145","0.37614527485915766","-0.06362661701680736"
"0.0022649865767363363","-0.004622132759544727","-0.01951379739891682","-0.005104516482287869","-0.015193770741857054","0.003627889924161135","1.647332390858223","0.3777152019504231","-0.06433101957541511"
"0.00248065810735674","-0.004619432094282725","-0.02166579015673494","-0.00021403734206405602","-0.0029489450190211225","0.002360571306438146","1.6484469438727865","0.377002798060269","-0.06146764768984488"
