"AccX","AccY","AccZ","GyroX","GyroY","GyroZ","MagX","MagY","MagZ"
"-0.0017846315383947984","-0.018902835178041765","-0.0114469224353491","-0.07422059905023669","0.14750280239125846","-0.29826138366701077","0.17531436069943096","0.8134425294320621","0.14688841863652832"
"0.01276549422381673","-0.04467237536457205","0.03985807189259492","-0.01848124824164605","0.04308325187871391","-0.24105731025002763","0.09749069645756554","0.822215651412663","0.20623147409603457"
"0.03787100833509688","-0.03873922152743791","0.03586180894981368","0.1280761977803613","0.08237161633468298","-0.2551599308696912","0.014345041571161636","0.8491550725921927","0.18544260972134666"
"0.03474377114110117","-0.045953113929205536","-0.000701621936642878","0.14172798710027656","0.14308716932466103","-0.28420972760301977","-0.0632835758931552","0.8765562370338593","0.1498465825137442"
"0.013576188102309466","-0.06506551424490375","-0.014685237832910333","0.0650045460225129","0.13443061387648608","-0.39943816109495295","-0.16011036903332068","0.9046566127010475","0.12641007975171387"
"0.008115076844814514","-0.051373141366559516","-0.018976831835545695","-0.024838283846681353","0.0493417236777124","-0.517287628878615","-0.30912610708040134","0.9433902760620169","0.13396075218969017"
"0.017776968852741493","-0.0543802282640566","-0.013396520480819638","-0.06876277157106886","-0.007323892035682397","-0.5383529785565844","-0.4849468451277234","0.9753429098018899","0.18011464605299107"
"0.02805313959520336","-0.03833619917295471","0.01113103382788987","-0.046243095690805223","-0.022507925871845306","-0.43533176959001807","-0.66530938670939","0.9980342929697601","0.20822537460995902"
"0.032489811082251435","-0.04932479063707273","-0.022677763718472823","-0.010202564436148759","0.059218860623971185","-0.25967393437211317","-0.7770154625939721","1.006424827676019","0.2345383240150279"
"0.016940278852254343","-0.11975814067005455","-0.03472851011182092","0.03490129154754033","0.03943826046384786","-0.24644741873329604","-0.8653437889980943","1.01349609591903","0.22731452051376058"
"0.019707421615660643","-0.06715125880109518","0.0028367746007561443","0.007268163719824917","0.05782596173792258","-0.1700539766638126","-0.9559848129074349","1.0267019532161452","0.20886276903654144"
"0.022122172503142544","-0.04403564159318493","0.00027111183392558065","-0.10736421676020876","-0.019450010224587037","0.15758987110391978","-0.9529197921173864","1.0215568140094768","0.2557684614542729"
"0.01943879502171827","-0.08841068800008406","-0.0411039435507696","-0.07552801300626243","-0.07465499674527483","0.35990944958935583","-0.8356409511599888","0.996253283244375","0.2896974570846598"
"0.014849998080036154","-0.08349963209287639","0.0033446201085752182","0.05101001784520059","0.002085594666016436","0.4277408463058582","-0.6913341995994372","0.9806331683195155","0.29342376296314165"
"0.03212682819366265","-0.049002788240449555","-0.028090789647687107","0.08723154602454988","-0.014158191106129847","0.48292817944837213","-0.5545785447125503","0.9739576800154791","0.24767845527072688"
"0.028443081425119685","-0.05583131648367782","-0.01730604283259478","-0.01425766574894729","-0.04443962142506226","0.4733177203786995","-0.38745132017882","0.9503691956526003","0.2134879644909728"
"0.03204113727301437","-0.06003396711831451","-0.02059185902999269","-0.07034360641333268","-0.1064499481218312","0.40296236471460634","-0.22990925157033212","0.9162133869191024","0.224585164892241"
"0.031890937457046596","-0.06844342325722173","-0.0033629058787968346","-0.014609069352739187","-0.03970328655308596","0.3266854130580886","-0.08476658524885809","0.8877172313129398","0.1849032759757769"
"0.024350136439997852","-0.04870052147458715","-0.0007530467155964947","0.05537897552741326","-0.05687040632907684","0.31304632720668457","0.031732068598345375","0.863020563120932","0.15045129004665567"
"-0.00021716166406443414","-0.02150793843846411","-0.03852650884658821","0.08156865288070349","-0.039854064267555146","0.4120146405554848","0.151240015584869","0.8317539479419481","0.1181566390998134"
"0.015936058287803135","-0.03470276567815512","0.0051884772431049836","0.0813337419784426","-0.011796246242484872","0.4067725719720271","0.2977201455238183","0.7891284485143963","0.03880430167967002"
"0.046305305693287245","-0.029649405485988167","0.0010703644224818298","0.0411379834526469","0.020083667179526348","0.31469660805703237","0.4245562785810944","0.7464237930990498","-0.014516193620974178"
"0.033097350081454424","-0.023057704811889203","-0.047510355772220465","-0.011371342449856598","0.001016748201223808","0.2588297475055517","0.540832021825385","0.7162389764199294","-0.08432886112326744"
"0.017067371004227085","-0.02539481898092839","-0.08420782152430312","-0.05423295461647356","0.004860622601365861","0.30275634072804525","0.645878643447953","0.6843786913324836","-0.09071424580187638"
"0.011442580460100573","-0.04013110285477681","-0.02740306067613871","-0.086595782401308","0.02857987172501187","0.27072147716246986","0.7246496777521972","0.6588772705978947","-0.054471018099590235"
"0.006886519375744765","-0.012086771543715038","0.010844562699831375","-0.06818704731060982","-0.09485681718708984","0.2671782271014289","0.7990739552996454","0.6388771910150508","-0.040069172748194784"
"-0.0011587989718623952","0.011957355155619256","-0.004746831355777567","-0.0075964975454520965","-0.09233906868516005","0.32923364084171397","0.8893527494792529","0.6052490888668524","-0.052748418803134176"
"0.011420435615438658","-0.012772325033299867","-0.009669153370157318","0.002601138761628771","-0.16454005424240148","0.37507747211093506","0.9870990488564328","0.5738769323708085","-0.08480935846022956"
"0.023875466508766357","-0.09945537020425904","-0.08312356413672681","0.027374515179197752","-0.021656869439063708","0.03646653733920002","1.0405975935554594","0.5617528735735569","-0.0999679054001062"
"-0.003527334531354217","-0.011358630640383274","-0.06482129943443876","0.008624581630461634","0.042992306590621386","-0.07601223703002129","1.0460867671521827","0.5636262319513695","-0.09125521389212966"
"-0.006608356397359819","0.03698743241906555","-0.014685237832910333","-0.10913567602315967","-0.03162830228929212","0.012012044709009106","1.0358328794182021","0.5640352045549765","-0.05489758206199539"
"-0.10906196163537786","0.006606298554187137","-0.005908742224826003","-0.11697245776251868","-0.13139049673267758","0.010384091187813048","1.0322105821208725","0.5591539186409578","0.0007436826892822121"
"-0.030389993925590674","-0.0421628341057282","-0.032016834016796746","0.08020925044630854","-0.062274471079416645","0.05531371540361353","1.0089442879418686","0.5686790225056103","-0.014620791680721045"
"-0.033249567344977145","-0.01617620198082938","-0.063763890325031","0.10165834877200619","0.05583234529105231","-0.02391675359830608","0.9947894646569179","0.5640483972196089","-0.03425090567477583"
"-0.013588796562528807","0.001513986459202867","-0.03132703979308154","-0.02234379963455861","-0.04325254608574935","-0.03327481677321962","0.9929504521828889","0.5584151294215388","-0.04735181265806974"
"-0.006531330850709687","-0.009811980419183564","-0.00906961066613179","-0.08622704930472636","-0.10318070434461059","-0.07988554326113177","0.9502630717251236","0.565090617725575","-0.038353110830472895"
"0.0015361323415593884","-0.01567346275513384","-0.007882916771081605","-0.07011447200866838","-0.05646354582971556","-0.10763210349940625","0.9021422453213639","0.5740484370110308","-0.013502899917176498"
"0.014227053971503159","-0.020494150247805334","0.0052027274830559874","-0.02248724932487366","-0.024085826620250543","-0.13572328120937102","0.81899659043496","0.5960142236241145","0.01212525906548716"
"0.019971234112937365","-0.032989920671601516","-0.009467584758676467","6.361964241151311e-05","0.006061818393303658","-0.1493259638067233","0.7631853482307147","0.6084944843664432","0.023771599280426325"
"0.021380801616634935","-0.05035208215404151","-0.024011916618233382","0.020999187331773278","0.01570273692022741","-0.2235861751887718","0.7122781392905471","0.6177953129323435","0.020656538313590225"
"0.019052704469134443","-0.06525040594360997","-0.01723375900675636","0.05143940416654632","0.030908549759591415","-0.35665220316608226","0.6255101871068133","0.64333631166083","0.02709749071143969"
"0.02353077718750699","-0.02889633536485332","0.03527114683010544","0.08316681721575704","0.007302982246061064","-0.5388383552772749","0.5034109043614307","0.6884684173685532","0.03004584852055424"
"0.011985610563984063","0.024460500473015512","-0.004203256985472645","-0.06442462187603795","-0.036862442948722214","-0.5179428874515473","0.34759639292551514","0.7514238129947609","0.039090311999290334"
"0.03224236651363786","-0.021692830137170323","-0.026550111531245348","-0.16215429646376156","0.08687340809526278","-0.3718202256876615","0.23126492203049634","0.7835215660455912","0.13265327644285443"
"0.0192057927431016","-0.0624770304630168","-0.006104941180673145","-0.06787511644039455","0.10639553217343893","-0.32291852107809","0.13081583159300084","0.8052894626891877","0.2031752495378061"
"0.015632770197868212","-0.0466646353540019","0.01329046149350851","0.04119478567901326","0.10992325203260674","-0.3474543143089966","0.02869491163366095","0.8304346814786998","0.23140038222262221"
"0.01172661216337297","-0.04956369564101896","-0.0035295717286585645","0.13586484203974877","0.13992801721197345","-0.3941232860033916","-0.07442910603878576","0.8639440496452059","0.22394777046565856"
"0.004788536048861564","-0.055483346151843096","-0.014767847919582813","0.1268149958051082","0.15462046783302577","-0.41933860664326494","-0.19644479730807646","0.8978228124214215","0.20141015727957787"
"0.005236247038765505","-0.05390761184320646","0.014263401789293648","0.050094442976142815","0.11311351700701015","-0.45251410550246307","-0.331640077974575","0.9349997413557578","0.1923885746264114"
"0.01462566117541763","-0.04620344482464484","0.01896515487225788","-0.014905596229363584","0.0006465051468050448","-0.4125918702256665","-0.4707641580174084","0.976767717582198","0.16784071747957077"
"0.039891003295996805","-0.029403229460182707","0.011793587375524831","-0.04030100516312419","0.014455350495126829","-0.27086186778403","-0.5736652650869426","0.992480181159485","0.1819941424390674"
"0.02799440761588262","-0.07091349325454403","0.0008027077416629935","0.0024068558924638275","0.04643147445875171","-0.1557038139165969","-0.6279997245468916","0.9911873000255017","0.2082580615036299"
"0.003500283781137975","-0.10168445776281816","0.008698683088427021","0.04654093420464722","0.046283090041337606","-0.25576665177055435","-0.6971856029258932","0.9957255766590757","0.20556139277578125"
"-0.014320539255705146","-0.062492611224143735","0.010422838207368362","-0.030628259937652478","-0.01830003098962766","-0.11024585714032478","-0.7714148336957929","1.0078496354563273","0.20583923137198387"
"-0.005010076304369419","-0.0595301891752105","0.02003330329293305","-0.10906828355119959","-0.12911447123330946","0.13545183887322446","-0.7773776923237051","1.0103166637426015","0.2208098286732528"
"0.009519830251846443","-0.07100801653871407","-0.025325416996325824","-0.0529313171580444","-0.16976222841655625","0.2992858971751079","-0.7165509615539264","0.9952242554030415","0.24285713845427018"
"0.023068623907606146","-0.07923258097891506","-0.019941304597446908","0.0653626888735008","-0.11380933656616021","0.35520129539865763","-0.593504308746165","0.9846569310324227","0.22550039791502596"
"0.04386455868381092","-0.05726266907253827","-0.04174830222681495","0.10181238870791497","-0.0747148291716515","0.4120631782275539","-0.4700118347325785","0.9737070193874621","0.16143408632007572"
"0.03738478457186786","-0.04571836379489315","-0.0576590049199347","-0.05770366692241818","-0.05935464867223571","0.4145385995030756","-0.329410971945449","0.9523480953474726","0.1373111587909567"
"0.031186153705197815","-0.05007578332339065","-0.03260336563217136","-0.11072421286221892","-0.06442365183486622","0.3775771622224913","-0.23082875780734663","0.933614511569347","0.13244081163399365"
"0.027281921309368823","-0.06251338557231297","-0.00843516520048714","-0.011547525626552261","-0.025252798264300894","0.3915560117783788","-0.12291216217227861","0.9081262834993905","0.13548069274538668"
"0.0185616666092398","-0.0588249000548649","-0.007188578992599409","0.11074670499062399","-0.03983252459405955","0.4285659867310321","-0.00019987526888624955","0.8809625870211086","0.08540927467562925"
"0.01593990956513565","-0.032688692623147574","0.007204989458780233","0.11851609425802288","0.04536406397219213","0.43788521976829037","0.12644121101084096","0.8424795842881565","0.04929516020334312"
"0.029827615626155966","-0.021212942694460942","0.0602276540138618","0.0654329695942592","0.0076485743408126455","0.44943718572072516","0.2600482536315871","0.8013448559640755","-0.0026361421162881243"
"0.03429606015119723","-0.0207538295999208","0.0515969652087544","0.007134245250544224","-0.06368890963896086","0.38558587811388517","0.37225587837272284","0.7757642792416916","-0.08928909723782545"
"0.03589530306352077","-0.03785111814320302","-0.026196953410720494","-0.044068244345693196","-0.11639409738563186","0.2814968403617998","0.47549135134662596","0.7519119415861627","-0.12899059829049206"
"0.020366952858852466","-0.03143184455890872","-0.10263400135659989","-0.08352749942792506","0.05933373888261438","0.3059112894125337","0.5700054469815733","0.7348142482224651","-0.12185014636808553"
"0.004147298372999151","-0.014500750800980402","0.023692517082090574","-0.1698466657632061","-0.11628879231520896","0.35680303857693635","0.6754142983338741","0.6982177965319581","-0.0376944699230044"
"0.006022870433930077","-0.015604907406175358","0.028383117803354018","-0.048239838360022734","-0.22752684613763752","0.33729089440517684","0.788792203740301","0.6623073634023401","-0.0284702285290784"
"0.012408288251226715","-0.09939512459456824","-0.0844639127929878","0.035359560356868935","0.029269141276870973","0.09747839113000038","0.8597892307679678","0.649840295324644","-0.05757136996427443"
"0.005653147810009393","-0.03853563291537939","-0.07975307260048962","0.08389176766412773","0.0854852958033243","-0.032151169664821025","0.8886004261944228","0.6441014862095141","-0.0590635266603507"
"-0.0001478386720793154","0.02037626362294348","-0.02981320995480833","0.0015403812529769616","0.05034212184673012","0.007431301907492173","0.9073806444898103","0.6257372970410979","-0.04574198314477826"
"-0.0033058860847350663","0.02118126961450142","0.007105031253906532","-0.08049868918811874","-0.08196173265439238","0.036058820893819975","0.9191949064441783","0.6065947406593657","-0.023447887316545693"
"-0.014445705769011623","-0.002733432895738526","0.0037956711818069623","-0.0781746116550951","-0.04503794568882885","0.03249130199674454","0.9398141372135947","0.5929931034232759","0.005373781177764208"
"-0.09034475379939372","-0.01692615594973885","-0.002888104405646754","-0.04186739876139655","-0.06839413164922128","0.022008620959991038","0.9508482120577693","0.5847608806926068","0.02675427832789531"
"-0.03081363443216645","-0.03331296178563315","-0.03321881077788134","0.030964608435471663","-0.042235394837346146","0.07177526688583306","0.960823461538109","0.5720959226454234","0.009059228439157394"
"-0.026452062853102257","-0.006045383352619165","-0.06407987390655324","0.01704998847491203","0.03015705448430059","-0.03287195409504647","0.956978253637866","0.5595628912445648","0.01706424869915909"
"-0.029446430979126467","0.0026208437296598255","0.002509638657533122","-0.04157279738397102","-0.03793224673233686","-0.020202893619942448","0.9200308212051006","0.5579270008301369","0.028522639275490622"
"-0.009246481370127136","-0.002645141916019268","0.02697337667428814","-0.023461551919496667","-0.11913920910779295","-0.04874377286162699","0.888043149687141","0.549787126751895","0.031139225113845613"
"0.031247774142517927","-0.021594151983366446","0.0084364580208069","-0.03532840348206901","-0.013380130233527777","-0.13532527229840477","0.8523495893957592","0.5561855690986492","0.03378359481182085"
"0.027827839871251696","-0.033401252765352406","-0.018441931524341388","-0.05140535904294809","0.0868997343628685","-0.25215059520140987","0.7760305717235539","0.5810933199247765","0.06422980192157411"
"0.007272609928328601","-0.03751145755063599","-0.005014901087029767","-0.027998990781609556","0.09163606923484481","-0.31129374861755166","0.6883709771281697","0.6104865767259481","0.11469182837069872"
"0.006559160802481679","-0.039176521556400355","0.017476108059986416","-0.012818355097799664","0.027859489311436895","-0.375023712044219","0.5786989604951651","0.6516344977146615","0.12748874724285333"
"0.023044553424277973","-0.016631160205735677","0.033623075600989455","-0.0018631311309274476","0.045737418312782475","-0.42302746972051297","0.46838607587878633","0.6939565658556661","0.1471662572327309"
"0.02059225258280413","-0.00755900236022979","-5.168707974713532e-05","-0.03158715853868461","0.09672421877391585","-0.4356715332945015","0.35907628897551497","0.733257513795832","0.17730357319729428"
"0.013067819494418544","-0.018822853937590204","-0.015350249030623802","-0.04100958886830457","0.12407003092510388","-0.3545408144310784","0.2309305561261274","0.7730993609859299","0.21639709802768228"
"0.028618314543748757","-0.036749038972824985","-0.014728608128413385","-0.01543799675784829","0.10962169660366837","-0.31148789930582793","0.13803256236229688","0.7933105232028935","0.26415264968085694"
"0.03404861558258366","-0.06499280402631143","-0.030112671518996072","0.03995572694454704","0.16013701754495366","-0.3194480775251527","0.02858345633220453","0.8209359629433123","0.2787800345985816"
"0.011332819056124122","-0.06348250891440789","-0.029693425329133234","0.07786014142369971","0.2157572411046955","-0.39456012505201304","-0.08501735967713486","0.8497619351652869","0.2928680857707364"
"0.012866590253795043","-0.047949528788269226","-0.04220472295568041","0.028442204484965455","0.22709907584865488","-0.4262552249131051","-0.21553151768246886","0.880593192411399","0.3050602971099795"
"0.018351771994618175","-0.047682578414294526","-0.03305565585670319","-0.001693590926467851","0.23984098936982812","-0.4275657420589695","-0.3669992723615879","0.9105141557978699","0.33572060337327714"
"0.022372505529755497","-0.06293406612274002","-0.020032175692786636","0.033778725514605125","0.2412051686912159","-0.3841245255571666","-0.5064855821341545","0.9307912813379957","0.36574351520999243"
"0.02466401554259717","-0.06990801480315295","-0.03217585843364127","0.07266995833317338","0.2061194338639433","-0.33371815311345443","-0.6525756185180069","0.960369235444022","0.34783109747834307"
"0.027694007983947073","-0.07320386514020244","-0.01958608122475524","0.07168795374175493","0.18212423758984814","-0.28780151533612974","-0.7617460862944583","0.9800394984110536","0.33322005600745386"
"0.023949603597417126","-0.07516392488996997","0.0023305812946705206","0.06492752605455852","0.14906801866527183","-0.22251591951964916","-0.8474830769397215","0.9951846774091438","0.31287246469732294"
"0.010144699999045704","-0.05254377588589603","0.01907729806491577","0.05566298665924507","0.02552841797980228","-0.05194240545097763","-0.8924831549027048","1.0093799845536953","0.2814113295390885"
"0.0009025972203619891","-0.048861522672898734","-0.018576172915184166","0.00551990672222025","-0.07187159227023268","0.2423851842085564","-0.8368669594760084","1.0062269377065318","0.27322326267452973"
"-0.003334770664728853","-0.07828423198498939","-0.042338964346523185","-0.016906189896978813","-0.05762429490142274","0.38274642429784556","-0.7213714033419116","0.9878099778795861","0.25872662533148866"
"0.008931547639305999","-0.0796241774419052","-0.021380785357714878","0.01621432182260692","-0.012272991015854086","0.4200233564468787","-0.5952040020933737","0.9703956605647088","0.2588900597998432"
"0.029447301989570893","-0.05643792745021954","-0.0282270962906967","0.04809577480772643","-0.03916240141864097","0.45099039122693485","-0.4743028638386462","0.9604351987671844","0.22764138945046947"
"0.03030902529271934","-0.06142480972824494","-0.018811611662200734","0.009908504496261284","-0.051801403166446325","0.4379822951124285","-0.3343707328602546","0.9374008063188697","0.19488912199223468"
"0.04279390358537397","-0.05503981381842988","-0.023262230081680622","0.02441887390894811","-0.11195692464553887","0.34512972844432904","-0.20889992724581855","0.9128624501024518","0.17011245658969784"
"0.04200439173221003","-0.04388295013414104","-0.0553211394671035","0.035194930175366436","-0.04406387378741684","0.30205254448304397","-0.10583163722409987","0.898165821701866","0.10748436831626684"
"0.009925177191092803","-0.03737850172235287","-0.04441454277416926","-0.01820493910660968","-0.015396483002421173","0.3762666450766269","-0.0021782068697356414","0.8727699422843368","0.09140078228550393"
"-0.004114654324561537","-0.03771296872787759","0.00969130523736188","-0.03287724300192061","-0.04368094625860623","0.402671138682192","0.10431733367176445","0.8405798405810789","0.08461825184879362"
"0.010181287133704522","-0.035046581140356","0.041080701175347636","0.001781742577554025","-0.07898447111788985","0.40776759424944264","0.2231565488495502","0.8101839412678389","0.050118869923849625"
"0.028801250217042842","-0.02723127135908896","0.043957597443716766","0.038419178583857","-0.1462935574945757","0.39939484581753093","0.3445870997861953","0.7726508103884256","-0.0038537289055288926"
"0.04191196107622987","-0.02426365572311343","-0.004305693492946521","0.01931052453437332","-0.12866692468401206","0.3489884733738188","0.46289690228206354","0.7408037179656123","-0.08159623681238079"
"0.040445587231877814","-0.029310783610829606","-0.042341029598689996","-0.1154320584034309","-0.11324451846116457","0.3227295927844608","0.5665781964617917","0.7179276374928872","-0.11157502134264029"
"0.020821403584088294","-0.030897943810959328","-0.054168728758022394","-0.21499962197646608","-0.10383646773769876","0.27445887791178697","0.6577486330530496","0.7074790471039608","-0.09123887044529422"
"-0.006415792530734472","-0.023995666631730264","-0.018398561228838334","-0.1271198385405093","-0.15254006280829882","0.2782690851692077","0.7447116320143322","0.6951043276786921","-0.04281323747186625"
"0.015005974812002701","-0.06824191207998012","-0.025265524683488274","0.02014330293788014","-0.1453123057019985","0.25700958480296227","0.8309223076907846","0.6633495839083062","-0.0519328808060454"
"0.016973977528913786","-0.08483022909311604","-0.08452793561015896","0.06527892965835042","0.06901462547035773","-0.028501136725228193","0.8752536538450303","0.6538904433668162","-0.0305491149665472"
"-0.007099394257254483","0.004921717048317776","-0.0463476188023053","0.07990887257128643","0.09280160490066211","-0.01067543396950792","0.8915261278576508","0.6406318154111711","-0.030372605740724375"
"-0.0006263598806433092","0.029797430517692552","-0.0024717495688174533","-0.03326138009209312","-0.011129713012648897","0.06035192576438129","0.9212846933464842","0.6177029642799161","-0.05178742412920991"
"-0.03346138759826503","0.010058268117728437","0.020609715172690283","-0.08158467073627561","-0.06706824508071453","0.07383811794876784","0.9441051663196631","0.6011989408246802","-0.02956360512236977"
"-0.06271183893865584","-0.014908966742505914","0.006146960773722439","0.004665947827525973","-0.11698763505528832","0.06848926648675813","0.9605448232844682","0.5861988811375474","-0.028478400252496126"
"-0.030245571025621656","-0.035611643410559245","-0.05141574761966198","0.10871530333582699","0.06290453808877336","0.03797363205694414","0.9646408056129872","0.571515445401594","-0.0315264530873069"
"-0.03611876895769488","-0.008579022855339334","-0.05194651742653267","0.07682518560431262","0.05206290242932283","0.0021406956519653326","0.9561702027023081","0.5619771488723092","-0.036225194052497765"
"-0.017372676541716942","0.017302698811304834","0.0025627156382201912","-0.03880970603360735","-0.03403117253257873","-0.015076344696009008","0.9475881444901726","0.5566605050254186","-0.04989158429629813"
"-0.008235521070344056","0.006312133784110737","0.004686620966569664","-0.08119764539730483","-0.09380137318580559","-0.09565057914916036","0.9101391632008536","0.5650642323963101","-0.03715840486680176"
"0.018630989601224925","-0.02061256403236999","0.015853026382088853","-0.09177922624463832","-0.011213239079870709","-0.20835262680989933","0.84538363305474","0.5931514153988657","-0.007866045103631"
"0.015482570381900445","-0.04351524417154554","-0.011847581355710629","-0.07129769126636767","0.08360177102098709","-0.2404894194868197","0.7496156652784096","0.6297346744247403","0.050071473928026834"
"0.020218678681550948","-0.050313649609928415","-0.042877995162061124","-0.030461704256951112","0.11901778084185884","-0.28928191433423583","0.6621511174605738","0.6607242436464422","0.09639370529373285"
"0.008456877708074503","-0.053351898029679365","-0.04640544586297604","0.05602209225983241","0.10167355708379303","-0.36400566048454386","0.5674141112227142","0.6955396856115641","0.10895527853145702"
