"AccX","AccY","AccZ","GyroX","GyroY","GyroZ","MagX","MagY","MagZ"
"0.00589288982395796","0.04362483665913683","-0.028890042236243356","-0.11399756150028043","0.13248964996482726","0.4516699186359016","-0.10014741684982817","-1.019440753288026","0.10653644839981093"
"-0.0005512599726594092","0.043464874178233706","-0.0028244946389089447","-0.07221037788662717","0.11307522425412911","0.46353737945678525","-0.243673981300186","-1.0787681661403006","0.05051111264790035"
"0.0013243120882715","0.04060736258755513","-0.010949196663147406","-0.016019497515903917","0.15207639306349022","0.503653765421858","-0.4084327806779696","-1.1370533584866094","0.037585080545745705"
"0.0019549587514695256","0.05583080492597215","-0.02490204030212936","0.03829113288713283","0.15268668381253214","0.41635876220566514","-0.5792101663343939","-1.1800086745299732","0.04414697445017747"
"-0.0012358245185125443","0.06488945944516804","-0.004914736356939383","0.051399931432969684","0.10713266766639937","0.315230522449792","-0.6886314085391219","-1.2081486281910587","0.07397866795891797"
"0.02127489148999099","0.07447058882082024","-0.032632279162506724","-0.07071041401071546","0.01446899228834071","0.18692846698605925","-0.770383872157322","-1.2359851505655972","0.07694990659360214"
"0.0132392013357151","0.07532545324798436","-0.010976044941315958","-0.09901717773315194","0.1422806282171037","0.10240496484500931","-0.8282849012638728","-1.2540063304535685","0.008390781463587632"
"0.0033991877511596615","0.029461924794759373","-0.003863729529248748","-0.010528936550355477","0.07707524995182118","-0.13937331414896384","-0.8344149428439696","-1.2559720374838084","-0.0035481064497060433"
"-0.003074809444784636","0.06382269666667771","0.017166733285397976","0.07716599896251078","-0.004083367823122569","-0.28559305125698775","-0.7621361798495554","-1.2363017745167768","0.030071998035490946"
"0.007423772563629491","0.06402836271355315","0.014829487408216822","0.06578918694604824","-0.10868768086831823","-0.3251027163211974","-0.663163872156356","-1.2147053825134027","0.07298498639132282"
"0.030308062473386216","0.05406498533158699","-0.01654809528737477","-4.8829510801893374e-05","-0.18170956731544743","-0.40065160289667934","-0.5371079262092743","-1.1792303073166568","0.08191668008689433"
"0.023331473585549743","0.061892759721755564","-0.04863178769879939","-0.008119655677782276","-0.23262456886492883","-0.4489708554414221","-0.4093801507403483","-1.1394676161143538","0.06133210879764946"
"0.028431527593122168","0.04998074848151496","-0.041566560036135486","0.01931148728397275","-0.16280730717453343","-0.4056995207918609","-0.23537056134169113","-1.0834119840909346","0.08501212891752791"
"0.02658195165418567","0.0459951897852468","-0.039780116911843105","0.06713992463404833","-0.09759474901808574","-0.34762419616123824","-0.13650970894994804","-1.0412614205901525","0.10281014252132914"
"0.01528037832194382","0.03610556133928143","-0.027539367319148304","0.04621359934084108","-0.07484406721262508","-0.3398096309581206","-0.049128752608204464","-1.0009050594793878","0.10938020814917863"
"0.011281789631468404","0.031711786701487756","-0.020418377847980482","-0.012560338205152465","-0.054625493691424616","-0.39043442292614355","0.058425613297130655","-0.9539127880584843","0.12225884425551044"
"0.018235270855309838","0.04305250336707435","0.00945245882427007","-0.039523103486784866","-0.03439495368494882","-0.41635353981101814","0.16419669437916434","-0.9026460932966566","0.11153754313145757"
"0.03569985073889604","0.03768441180014346","0.04151646938254497","-0.04946830684889522","-0.04926690158513107","-0.3496627783881385","0.25854360706192736","-0.8454954701087414","0.12637739285804298"
"0.03646432928939868","0.031949652988025525","-0.0083323156425799","-0.03534958397325647","-0.07794099360188093","-0.2524903589058933","0.32207312889202133","-0.8079491465646955","0.1085303489137354"
"0.010236167835692755","0.03062321085741973","-0.06090351607399637","0.0308818119699207","0.009165206684608188","-0.2144028476333069","0.36938590436022306","-0.7757722375260704","0.10867743993525443"
"0.000840013963708742","0.03061282368333511","-0.03791106370087823","0.10168723125998907","0.002559706812625078","-0.17244203012961004","0.39858719334177495","-0.7352575644397158","0.1611725911707086"
"0.0032066238845343147","0.018318564436780534","0.03458135260639023","0.05536934803141896","-0.1287506900809394","-0.18025174156552076","0.41193396569116775","-0.6990964706820807","0.19312402973400647"
"-6.985030609604187e-05","0.006048922792806503","0.009053514063206994","-0.09135465367128975","-0.09122379225749913","-0.24562227830812217","0.4346987110136182","-0.6647691573083608","0.20562676656312306"
"0.0058245296513059494","0.015171250689141096","-0.01984423774560674","-0.11418048392417209","-0.13820900004256156","-0.2403583677722333","0.47078236486009717","-0.6313125598003846","0.17741797732514236"
"0.01510129392598225","0.0582915264666183","-0.09453408235836318","-0.021345428299949856","-0.0194667633039725","0.0017815168786543363","0.47922510394541223","-0.6138454718269776","0.15767509354792303"
"-0.005953639250833629","-0.009508674935912701","-0.05097791416029784","0.08049422432773978","0.06772224506062191","0.08244142032300758","0.41862128377854624","-0.6156396742169952","0.19583704190869058"
"-0.0021697592716454924","0.004829312747661009","-0.008079115726928748","0.13361200797708292","-0.020127552620876323","0.03716305293339094","0.3558998128840102","-0.60631246032183","0.2414025716859154"
"-0.125872787191771","0.0020150637370448684","0.04144831606104018","0.0009667750416366563","-0.13181171701436925","-0.08131255081996193","0.31613813408947317","-0.5934364196405267","0.2599687272909827"
"-0.03401982281147855","0.022010166106453982","-0.05628561222900471","-0.12749531088428695","-0.06746553239185556","-0.09548069729691869","0.3528069282685979","-0.5924469697930905","0.2031752495378061"
"-0.01030558263656658","0.02037107003590117","-0.08036232198969916","-0.03695737580430432","0.009137444438769413","0.046800207722701534","0.3813952130921401","-0.5890564549825424","0.16368948198336733"
"-0.020184108994447066","0.0007402458616396278","0.01052261053954705","0.051399931432969684","0.013448490424060417","0.06394371349749126","0.39162123700075596","-0.5943862914940655","0.14814686404285773"
"-0.01140319667633107","0.002786934643272877","0.018334013810080128","0.10394006532265494","-0.10203670835228888","0.09269500354759515","0.41059650207369197","-0.6062728823279324","0.12343557242766261"
"0.018775412501193946","0.03063463674891281","-0.012035519302890523","0.0901602303060155","0.021124751398480208","0.15061743451120027","0.4148875311797597","-0.6281858982824862","0.11975829688968714"
"0.010592410988949646","0.042438621378673394","-0.01070962741179721","0.023869143887673663","0.05766321753817806","0.135937215593915","0.4088968087264833","-0.6512334833954335","0.12224250080867502"
"0.01184311330268131","0.05472353216855181","0.0032634556984195073","-0.035612414613900814","0.046919707057985253","0.17874501547521682","0.4011785291006343","-0.6643469920401213","0.1210003988491811"
"0.0171078094162184","0.051630231726152394","0.0028772535432256613","-0.11895572193734416","0.06695639000300067","0.23945593569918905","0.3882497141317029","-0.7018537375902697","0.08863056804689576"
"0.023253485219566477","0.0304632483765166","0.005047420520111723","-0.15692656613885747","0.08386982029115451","0.272662984045232","0.34873880976544236","-0.7503367801146436","0.03329982878549163"
"0.017474643582139696","0.005666674786492539","0.004232058964654341","-0.08411092568517956","0.1397556998240087","0.3070033870340874","0.3144941683929927","-0.7998092724864538","-0.007321808324010638"
"0.0011019008223192247","0.0003006606543785682","0.003538134236605505","0.02958113726109097","0.1608621865526388","0.296664862883379","0.25277579521156346","-0.8424875425725354","-0.0043979656851492605"
"0.012633587975178363","0.02419562753385774","-4.5284798030019707e-05","0.05334949937181513","0.13687656346676388","0.34093121981035585","0.19649086797612916","-0.8738728917332118","0.03204465206852935"
"0.023757039730791768","0.044417378041793236","0.001320053409449403","-0.02976371079736447","0.12986420309541952","0.3651515181728136","0.12176008834967608","-0.917632960319157","0.05131357588752076"
"0.022122172503142544","0.05577990777295752","0.0033943926857953883","-0.0810744134485778","0.1443986961108374","0.3978416403113212","0.028750639284389156","-0.9682004438554631","0.02535037624473046"
"0.006468655785167752","0.04617384917950224","-0.017403109684434946","-0.07269175268634209","0.13257580865880966","0.4632461534243709","-0.09067371622604231","-1.0284777285612767","0.01239329159358848"
"-0.0018327725050511264","0.037571191602621117","-0.018051598864813913","-0.009788582108393923","0.1352323683899333","0.49622750159529283","-0.2405253690340453","-1.086512260279568","-0.006761228097554818"
"-0.0018231443117198644","0.03924352663024471","0.0014685450402431863","0.03050730237574249","0.03713112210276391","0.4557228142536676","-0.37229339918076243","-1.133821155651651","-0.009390888693378164"
"0.01052886491296329","0.06454148911333331","-0.037721060501531525","0.02236436626376481","0.025779714170584243","0.3657825079097113","-0.5006899064584265","-1.1764466550792028","0.005615664190928809"
"0.011871997882675114","0.1091544018067702","-0.060073284702937935","-0.05491458133286989","0.04114707456116524","0.3076343767709851","-0.635829459474197","-1.2124362441966154","-0.018124826682240767"
"0.021882430489193975","0.053216353208873655","0.03639464400885118","-0.10625705472086441","-0.06306904570169866","0.2970288954238969","-0.7617460862944583","-1.2451672451498053","-0.05660710660098309"
"0.026690750238828997","0.002289181261137953","-0.0009416042384264331","-0.0018334784432650082","-0.09546232134202162","0.03571420342212969","-0.8510496465863232","-1.2593361669650915","-0.11169432850453904"
"-0.0007496007552835202","0.07047464295046746","-0.06673165768873987","0.13669280669525846","-0.003492462780226689","-0.27831240044662975","-0.7983591528228547","-1.2512094855514821","-0.08393334970984964"
"-0.008476225903625732","0.09957638858334339","-0.029009826861918452","0.15839318266640728","-0.030206683838582715","-0.3016590207118445","-0.6985230665433689","-1.2238083211098156","0.029215601421313554"
"0.02084836252541584","0.05164477376987086","0.0036583319127139638","0.038839900158807845","-0.13153888115009169","-0.3428917731345056","-0.6135383991829358","-1.194217174339157","0.0734344311792976"
"0.032940410530154764","0.04735487087292337","-0.006038233535685118","0.01401828998630743","-0.14177501265461043","-0.4303809270389746","-0.44950405926461817","-1.1469478569609715","0.12062449957196579"
"0.02450515035263126","0.06046556200252898","-0.03432165543495895","0.035809164419802676","-0.24203022629133955","-0.43445809149277514","-0.31609206342142043","-1.103530797655471","0.11219128100487542"
"0.010755127456248063","0.04856289921896452","-0.03302880757853463","0.11114143232639022","-0.2268806559327696","-0.33286874385224596","-0.21968322766171605","-1.0661427860870147","0.10893893508462156"
"0.019405096345058836","0.03883738812353612","-0.05866684797733896","0.13236043349782414","-0.20218661691859505","-0.29250966952682794","-0.13043539502057935","-1.0202455058306075","0.16671301964792493"
"0.020567219280142834","0.036271756124635325","-0.058920873993856836","0.011800114909221055","-0.15468206367258322","-0.38065408200422923","-0.0429429833773795","-0.9792558968174836","0.1861290344884354"
"0.020481528359494548","0.042471860335744176","-0.043753662080789416","-0.04529671283456569","-0.10523415321785749","-0.44901939311349115","0.10874768190465253","-0.9125405917710185","0.192045362242867"
"0.03391093241794653","0.03718063385703945","-0.019301076425735184","-0.06239322022124097","-0.02399583865098005","-0.41676611002360514","0.21150946984736635","-0.8616037136250029","0.170521042760584"
"0.029896938618141092","0.022566918637389542","-0.00518611049165848","-0.06612483766863107","0.007268279438762603","-0.376358498026118","0.2971628690165369","-0.8173159384537583","0.14319479965171744"
"0.023867763954101343","0.035931056814659836","-0.0011361509925401244","-0.025906935902048487","-0.08586998674531574","-0.33837776963208355","0.3751537162105869","-0.7599542326317237","0.13811198768589356"
"0.004725952792208334","0.04249471211873033","-0.04939180049618621","-0.004328925404987182","-0.03848749164911226","-0.24979651810606074","0.4169773180820655","-0.719518715533164","0.14064522194538776"
"0.003325050662508903","0.015203450928803415","-0.002906278624714702","-0.028925155896261066","-0.02786244937314523","-0.27467207504145075","0.45230864864371445","-0.6718800035452689","0.16331358270615204"
"-0.0014283883851378913","-0.0058448070210451826","0.03133477620016174","-0.06781831421402817","-0.10143120419735709","-0.31639020418480224","0.4797266528019658","-0.6284101735812384","0.14724797446690818"
"0.005345045623408831","0.012343342544603684","-0.009630946205071296","-0.07927407169764397","-0.1271687207275405","-0.2788220460033548","0.527318066523808","-0.5845181783489685","0.12379512825804243"
"0.014017159356881519","0.04959122945334176","-0.07131858275122935","-0.0496127192888097","-0.052284849171569725","-0.10919744342363323","0.5318041424074246","-0.5586341703400374","0.11742118399221829"
"-0.0001892399034037549","0.001354647208744818","-0.056021259951652774","-0.011483021403390461","0.04558185400420316","0.02513420435287774","0.4815099376252666","-0.5663254938207748","0.1246286440466502"
"-0.0314490951920301","-0.02364561886507862","-0.011448987687515913","0.05310784922235824","0.04068277493248237","-0.022068196357556177","0.43737363824856973","-0.5513386267982745","0.1529191505188081"
"-0.0870615398734315","-0.0024105995251885795","0.0020689138451354394","0.015995777663536343","-0.16308732292997621","-0.05248360049454757","0.4213798024895896","-0.5409559997325105","0.14858813710741478"
"-0.026182473439826746","0.012564277737383523","-0.10520110979994722","-0.12220981558341706","0.013314944448387718","-0.0555851577397601","0.4379030509304869","-0.531734327154405","0.12011785272006696"
"-0.019182776887995266","-0.01012775051135597","-0.04317952197841568","-0.034540874309735396","0.01640086167119026","0.03774065123101268","0.45749132016143257","-0.5283833903377545","0.08360168945562887"
"-0.03271038851842617","-0.021170355280714006","0.0318779375200333","0.08782363702819923","-0.07351339405000819","0.07310519910052513","0.47537989604516956","-0.5321037217641146","0.05776923738752212"
"0.012831928757802475","0.0018805498326490576","0.017056242294473535","0.11802509196231364","-0.1318428298760851","0.13507809879829275","0.5201291995798765","-0.5346630987028163","0.021751549251565135"
"0.027930861539896257","0.02615464856621681","-0.011475835965684467","0.11518498064399559","-0.020940794960187862","0.23359743868045424","0.5164233108064542","-0.5635550342479534","0.015524696007260018"
"0.01615076699909041","0.03887270451542382","-0.007983081501171987","0.10182201620390927","0.05430302847286492","0.32692810141843387","0.4903706340910428","-0.5950986953842196","0.04573392313789933"
"0.009152033266592025","0.05046271335904126","0.023300738746046334","0.09315534430984175","0.13181474019529857","0.4376182625719106","0.4383488721363123","-0.6485553724750396","0.08385664722626182"
"0.004184848326991093","0.02285256592471655","0.028879604424255627","0.027985861174835702","0.04527072538704454","0.4214552177729158","0.36136112265536907","-0.718014751765061","0.09714386950347982"
"0.009647885223152294","0.003603491172412914","0.006223581629111165","-0.006760542068267155","0.04716621665465709","0.380877723923187","0.2923424272285519","-0.7844925888481414","0.09993696456765763"
"0.01956011025769224","0.01878079368354606","-0.004383760024852014","0.020303119371385493","0.08468354128987707","0.39941911465356544","0.2098097765001574","-0.8420257993103984","0.10040602149183495"
"0.013504939471658081","0.054793126234918756","0.01046284214183951","-0.020750449047502208","0.14135920885090317","0.3884253319299248","0.12992418918135043","-0.8901922178835928","0.11505138420107856"
"0.01484518398337053","0.05000152282968419","0.032224899884057724","-0.03582614502497424","0.154881337212028","0.38893497748664985","0.036273872132689886","-0.9433190783586006","0.11755193156690186"
"0.019090254423126386","0.03151027552424616","0.01726194141028801","-0.04091812765635873","0.1156719515588761","0.42795926583016897","-0.08437649169376094","-1.0058786940458337","0.10221360671183534"
"0.018446128289264584","0.041440413949141545","-0.001691497300195874","-0.004329888154586612","0.12250242135403541","0.4139076097661779","-0.2189030405515219","-1.063820877111698","0.10467329546057003"
"0.01807544284601079","0.05796121433072743","-0.004842452531100964","0.04928862156142002","0.15585780241049504","0.4476412918541702","-0.38023458940952426","-1.1149424525625682","0.12201369255297875"
"0.007693361976904987","0.08548826437237518","-0.039439350304319123","0.008116731216762388","0.18141582166154852","0.49804766429788233","-0.5419562318226236","-1.1590587230935905","0.14275352658716037"
"-0.003950975037929994","0.06939126069344174","-0.03959630946899684","-0.07092992091938546","0.12322759036172054","0.4834135561690627","-0.7281701767307462","-1.2107211977943928","0.1275050906896888"
"0.005492356981377223","0.0710075049810084","-0.01068071388146184","-0.05110786941672426","0.025047365271733946","0.3838142530833647","-0.9134646154018544","-1.2557873401789539","0.0844188617974012"
"0.004089529213011544","0.07301638444897363","0.03124597035698883","-0.0854539613763842","0.046632511411377295","0.30176131845062965","-1.0793936954449295","-1.2872122673335278","0.05575082170334448"
"0.011812303084021241","0.013152711149277165","-0.010903761115477542","-0.07045143436846882","-0.008715115613792462","-0.0004577686222514507","-1.1697003534499009","-1.3011173358561645","-0.013282263384897977"
"0.00849635330073271","0.05679057981139092","-0.023536908619866622","0.10098442405240528","0.0369396583383586","-0.33568392883225107","-1.1050562786052436","-1.2919220486073237","0.004741289785232431"
"0.012842519770466878","0.07618135639255692","0.026038437018372336","0.1324567084577671","-0.09130277106031633","-0.3977150737365016","-0.9690808108285509","-1.2607741674100321","0.11523116211626845"
"0.033700074983991773","0.06407406627952547","-0.027735566274995446","0.03252522553614745","-0.20740639779569475","-0.49952284090134147","-0.8085015852553785","-1.2248241562865168","0.1461039331884269"
"0.052190057457357976","0.0761626594792046","-0.03347283679439922","0.03054099861172253","-0.2604777599917909","-0.45508660212212293","-0.5753370946087873","-1.1656682480744642","0.18338333542008037"
"0.05278026570856468","0.06133496847341156","-0.01977814967626876","0.024975343177418563","-0.11760271239844036","-0.4102620619663519","-0.4309188877467792","-1.1249424923539901","0.18295840580235878"
"0.03634590251142409","0.0475366464194042","-0.04896842380198974","0.08912142348823067","-0.17467566727060743","-0.3417511378408828","-0.32289083681025493","-1.086670572255158","0.1928788780314748"
"0.0038160885224035497","0.04782956472859045","-0.06912115444574136","0.10660688171307561","-0.15434700208487392","-0.3593703128019492","-0.2053890852499448","-1.0335569044447825","0.23578042597452184"
"0.015833999438491696","0.04494816263751725","-0.008009929779340546","0.03759121392834733","-0.05188038196926351","-0.39570076034563584","-0.09276350312834812","-0.9769603731714317","0.2652640040656673"
"-0.0025452588115649237","0.05205922201584714","0.055797688116050036","-0.05308439434435375","-0.10743598650851853","-0.4981637860834079","0.05505409042807729","-0.9103506094420265","0.2811334909428858"
"0.04634189282794606","0.049524751539200204","0.026764992730656807","-0.14240830217945533","-0.15656319515786538","-0.38082396385647094","0.17985616423377546","-0.8613134750030881","0.22317962846439257"
"0.0407979791078022","0.031146724431284505","-0.062378106121100146","-0.156782153698943","-0.05090631006785152","-0.29263101370700056","0.2603547557105921","-0.8285956667145311","0.15463521243653"
"0.0007572115010598459","-0.0014420994135387413","-0.057834551354113715","-0.026274706249030694","0.09741109502871989","-0.37883391930163973","0.3298192723432346","-0.777157467312481","0.1568252343124798"
"-0.017305279188398092","-0.027651951909516016","0.1452065849216757","0.06386946424478512","-0.289197324652587","-0.4714680664454285","0.41221260394480846","-0.7028959580962357","0.1734465197441289"
"0.03733471796654528","0.11133570836454013","-0.04720469845153229","0.02525839155965094","-0.2160773130262001","-0.18307663407993968","0.47824987005766967","-0.6382782867263356","0.1326696198896899"
"-0.026163217053164236","0.05969587240285873","-0.14249130292390494","-0.06584756578399528","0.10127387647559696","0.07930588670734673","0.44032720373716167","-0.6233837683562625","0.1622022283213417"
"-0.0016016958651006966","-0.03408369010271185","0.012018513989012327","0.014026954732702298","0.12263405269206407","0.010564651327909928","0.39624663201119265","-0.6241225575756816","0.20103425800236255"
"0.001696923170191558","0.02801914631440585","0.011871302814561967","0.0788498480119136","-0.0697439511882787","-0.0382450743930907","0.36389673076349993","-0.6030011014990767","0.24203996611249787"
"-0.05827324181294151","0.02249940200583952","-0.004647079676120544","-0.0636842674340764","0.05570789384418887","-0.048933069782696306","0.32338272868413287","-0.5943071355062707","0.25910252460870403"
"-0.06627427047122485","-0.00031623361450693055","0.011637495616757178","-0.04991502266303068","-0.0929685058106425","-0.04729006958315884","0.293847073798212","-0.614980040985371","0.25514741047452594"
"-0.01814293200821835","0.029427647120280127","-0.10613047327501263","-0.006339435393476539","-0.0035542098442474007","-0.01984832592547801","0.31232079001459473","-0.6174602619362778","0.23296935311882505"
"-0.014850089888924858","0.01329802771472098","-0.06039752929312743","-0.027733271892166917","0.02978848673782037","-0.0001828027099802623","0.35060568606483566","-0.6054945151146159","0.20422123013527463"
"-0.025999537766532677","0.0026274915210739813","0.027467591517806252","0.007680605648220665","-0.021555154314223394","-0.003957092090069869","0.37724350311289273","-0.6099008651018651","0.17691133047324356"
"0.0055202787420379025","0.011511226028684885","0.016100650116889617","0.007653744934396573","-0.037298023012744284","0.026991983751320763","0.40574819646034277","-0.6186476017532012","0.1361834609593109"
"-0.0002470090633913624","0.01151465379613281","0.00268105458737852","0.0006096912152081245","-0.006871798221980365","0.03491333183299031","0.41251910602381314","-0.6381463600800107","0.11951314518715546"
"0.0038170513417366742","0.018236505761512048","0.0002075020671877724","0.012962153675732883","-0.013890141835962416","0.06937022523481146","0.4232745426143469","-0.6505738501638093","0.09222612635069398"
"0.005115894622124667","0.031185156975397595","-0.0048781813935868095","0.005004546861645451","0.019016256692966763","0.11891262711569443","0.4493272193297582","-0.6540699062914174","0.07368448591587994"
"0.012453540759883669","0.05911938424116241","-0.011285832766337763","-0.00915990661996623","0.12818410856276294","0.2559902936895121","0.4373179105978412","-0.6831333464767767","0.06936981595132205"
"0.011713132692709193","0.055312484939149684","0.01906180867366468","-0.04614489523166338","0.20470738860145418","0.4593388708228121","0.3667667047759997","-0.7511019546633276","0.07704960161929837"
"0.010429694521651227","0.011033935379496661","0.030878768521729657","-0.015612254435345094","0.08493483748065904","0.42208620750981346","0.2550884927167815","-0.8291233732998303","0.08427013643119863"
"0.04039648344588835","-4.730967745615526e-05","0.02677077543672388","0.019547360935833064","0.11432691861392882","0.3509299802565809","0.1718313825289215","-0.885825445890241","0.08535697564575581"
"0.04750305294369694","0.039091873888609276","-0.011126808349493238","0.009296773400783557","0.21267706779482512","0.3922355391873455","0.08751544697722612","-0.9277121560983738","0.10563755882386137"
"0.01726667460618432","0.07148219883667546","-0.027529041058314243","-0.0032319685113968094","0.2516638768218558","0.45264067207728265","-0.03107299377228315","-0.9773297677811412","0.13163998273905675"
"-0.004384243737837033","0.044717567372838704","-0.013373802706984707","-0.013672313992493943","0.10747730244232892","0.504624518863239","-0.18440762475079517","-1.0359843547371592","0.1282405457972839"
"-0.0035465909180167413","0.043073277715243594","-0.04510020649355084","-0.004647595522398462","0.07495957535514253","0.4731235696904233","-0.320689594606493","-1.0906547569741678","0.1291557788200689"
"0.007365040584308759","0.03623332358052224","-0.0303584365268467","0.01996615701158505","0.11687577997757446","0.450674896358486","-0.48444529627117","-1.1423831949981325","0.12222615736183959"
"0.005242986774097394","0.06483544613992802","-0.0029310616507164456","0.046279066313602304","0.10208520417726447","0.43232765631638376","-0.6218696829667949","-1.1825284734747774","0.14103746466943848"
