"AccX","AccY","AccZ","GyroX","GyroY","GyroZ","MagX","MagY","MagZ"
"0.01147916759475939","0.042070915416077895","-0.003344525134512209","-0.026974625207816197","0.08313268479819408","0.49134946555235287","0.04716862785004367","-0.9235696594037741","0.1732340549352681"
"0.016045819691779584","0.01780232188477499","-0.0120830201027272","-0.03522924027332774","0.04640993478525613","0.451136004243142","-0.0901443035441251","-0.9879894408041873","0.14669229727450295"
"0.015336221843265177","0.014077377386289914","-0.020317180491806697","-0.013936107382737721","0.09915820187891833","0.34097975748242493","-0.20655936591523594","-1.0412350352608875","0.13270230678336076"
"0.006608264588471131","0.03668620437061161","-0.008966141532574506","-0.017538716383804224","0.13062766485598565","0.25674262760658245","-0.30193724013646955","-1.074678440104231","0.12116383331753557"
"0.0030622009845652958","0.056534016611500836","-0.007922363087467715","-0.003963080557203838","0.09016658484303407","0.22122033230284557","-0.3571912058334331","-1.0962616394429727","0.12314139038462457"
"0.0068672629890822404","0.0735263946965284","-0.004386031802235508","0.01020772707176408","0.11832611799294465","0.24248954020350488","-0.42793745843282316","-1.117528214830535","0.13476158108462702"
"0.01749871406546786","0.07537115681395666","-0.00796077677777042","-0.027469478501923137","0.1347632821671403","0.2661589359879788","-0.5208633160220179","-1.1455362418452957","0.13314357984791783"
"0.018928500775161092","0.07825048147021295","-0.003411645829933601","-0.07192925500359364","0.12773416871641047","0.2785360423655875","-0.6122566632161884","-1.1795865092617337","0.11271427130360971"
"0.021331697830645473","0.06909418751462165","-0.01630439553169095","-0.08219890498071188","0.09780838233986089","0.27055159531022815","-0.7234333264188533","-1.2137687033244964","0.061714545453598904"
"0.026580026015519412","0.0654160891712582","-0.03466448729464975","-0.05229397692322183","0.07826471858818915","0.2787301930538637","-0.8278669438834115","-1.2423835929123512","0.032544761541694"
"0.03386856836728895","0.07294782910001514","-0.04505890145021461","-0.030334621309826375","0.14676327360124294","0.24885525589536123","-0.929402723510106","-1.2657741873057433","0.020164600563843293"
"0.025776071872358572","0.05896877021693544","-0.008033473654042205","0.02795216493885566","0.1483380630634766","0.18693817452047304","-1.0382388253821884","-1.2782544480480718","0.02385004782523648"
"0.019800815090973936","0.04893787620341925","0.007846043731358682","0.04506696456792012","0.06394083571361708","-0.06873643998687015","-1.0567961330746631","-1.2782412553834395","0.05529157084726845"
"0.009329192023887345","0.061248754928509216","0.02270863094982133","0.08946223684642884","-0.053756726860435526","-0.31124521094548263","-0.9887526715355887","-1.2634654709950588","0.10129837368905033"
"0.0006830744124090874","0.1558343621430462","-0.03644060415810808","0.04173296270509455","0.008824161854261232","-0.3761400785018072","-0.8593252027194538","-1.236499664486264","0.15733188116437863"
"0.021716825563896175","0.0729052416862682","0.024921961696993764","-0.09862245039738571","-0.11688711657897553","-0.24552520296398408","-0.7623869542778321","-1.2231223025489264","0.13208125580361382"
"0.05443920341954207","0.04419613123379086","-0.03791106370087823","-0.05526598493666179","-0.08589870630997652","-0.3090852845384097","-0.6842010603062336","-1.2085048301361359","0.07028668331879061"
"0.03388397347661898","0.07368843461224846","-0.026775224017427858","0.01014033459980399","-0.07407342556089372","-0.36021972206315767","-0.5210304989742024","-1.1703648366836283","0.0697375435051196"
"0.01984703041896402","0.05993166125457958","-0.03354925112457126","0.05109762805874871","-0.11232788568907415","-0.26460050808712215","-0.4296092879546677","-1.1416971764372432","0.07195861793005678"
"0.02178518573654818","0.0628805799772028","-0.023865283714389732","0.09508950825509632","-0.06441647194370102","-0.20300134846428616","-0.3799280873305196","-1.1184780866840736","0.11186441206816648"
"0.019717049808991905","0.06438048791502173","-0.00040360604897190345","0.0353422308640792","-0.10381014147009303","-0.22982083916604173","-0.3098505665398674","-1.0914067388582191","0.148669854341592"
"0.017989751925362504","0.04772049940070195","-0.009739165418612245","-0.02849673232451479","-0.12213561702073603","-0.22619264817887996","-0.2489402442939963","-1.0698235395194775","0.12861644507449915"
"0.007189807465679704","0.026490154289149987","-0.04951778087836174","-0.016866717163402187","-0.08984046655967079","-0.22950291741398943","-0.16512585759885434","-1.0438076048642215","0.12528238192006805"
"0.0024960632166867664","0.037990833435639706","-0.08213017784449023","-0.015261813581152627","-0.016336570085651227","-0.3278693636291335","-0.08939198025929475","-1.0138866414777508","0.11784611360993989"
"0.026683047684163984","0.04808301177625514","-0.016182545653849044","-0.009504570976562118","0.07438757735898166","-0.34602245298295947","-0.0012308368073570247","-0.974915510153397","0.11650595096943331"
"0.02719430475005429","0.04206572182903558","0.03126868813082376","-0.02399202694878251","0.05213230804391975","-0.32155946626015647","0.08205413720586725","-0.9306145423175199","0.1302507897580438"
"0.021345177301309252","0.03407694624055541","0.03971143898875127","-0.03334032555924637","-0.013477776753374485","-0.2944269075735555","0.16193972452467453","-0.8955088617304835","0.1242037144289286"
"0.01523608863261999","0.03665088797872391","-0.011537793530688829","-0.005986876490165327","-0.05604232554802389","-0.2467629136017449","0.2405993035274618","-0.8464981126208102","0.13995879717829904"
"0.014045081117542197","0.034716796164167917","-0.0576073736157644","0.021483450380286494","-0.009778457495358439","-0.2241904692060315","0.2882464449000325","-0.81604944264904","0.143325547226401"
"0.012306229401915277","0.0449221947023057","-0.024078004687571368","0.01460075349396249","0.007136648100733955","-0.22699837353522628","0.3273393918858316","-0.7814978539765677","0.15244519056058015"
"0.0034117044024903143","0.032351636625100266","0.008260292010977836","-0.04436477122231759","-0.016961938606140065","-0.1715368025455222","0.3635066372084031","-0.7523420651387809","0.15571387992766944"
"4.279955587979959e-05","0.010721489183031336","-0.011517141009020706","-0.05642128445597761","-0.039241380221458164","-0.18529965946070232","0.3840144126763634","-0.732473912202262","0.13927237241121027"
"-0.0007832994319429636","-0.011024163634858555","-0.00794198298305243","-0.022664395251168753","-0.06867414740466406","-0.26612944475729733","0.4294603118451718","-0.6935423588718055","0.14791805578716144"
"0.017905986643380483","0.025084769635501093","0.01137995867155572","-0.048090612172111115","-0.13302990521539804","-0.23472071716141266","0.47682881496410173","-0.6562994666143068","0.12832226303146113"
"0.004636410594227549","0.04389905805497077","-0.072289251269631","-0.07030702192855436","-0.0038028734082687934","-0.059871034183457524","0.491234412677329","-0.639439241213994","0.10593174086689941"
"0.0044409582696028115","-0.0008578208712789446","-0.05329512709146091","-0.001934567151205143","0.05796237967006136","0.0262469304850608","0.4651260083111894","-0.6389379199579597","0.11722506263019294"
"-0.0009662351052370483","-0.004782095240447853","-0.013231300307474676","0.09868345250976794","0.0016854353984093438","0.01945238446047433","0.42018165799893425","-0.6391490025920793","0.15566484958716312"
"0.0005482797057713481","0.01203214280902851","-0.0039056541482350333","0.011530545021380697","-0.025868354266863958","-0.006157304764960068","0.38373577442272266","-0.6314181011174445","0.1874365102352711"
"0.0016131578882095374","-0.0019686252678880584","-0.012196608971901862","-0.028739345223571112","-0.00870386711763365","-0.014039094643893333","0.3443641891832825","-0.6324339362941457","0.18442931601754894"
"-0.047739998308534815","0.004026810065057461","7.388025199503338e-05","0.013418496985862631","-0.023396557068391437","-0.005063993701604636","0.328537536376487","-0.623779548295237","0.19276447390362664"
"-0.030351481152265627","0.006058582864705198","-0.004604535481484218","0.012561649842370065","-0.0943973041525171","-0.020992358856145605","0.3273951195365598","-0.6149272703268411","0.19163677607198085"
"-0.01284742567602119","0.013158735710246243","-0.0856824115714069","0.0036070195431130796","-0.04891030032392618","-0.029265605060315784","0.33157469334117146","-0.6124206640466694","0.17544042025805337"
"-0.018114047428224544","0.02195719151862243","-0.05679572951420727","-0.01208570265263355","0.006844187200604847","-0.018103639302955884","0.34355613824772424","-0.6065103502913172","0.15708672946184696"
"-0.013790988622485434","0.0023914949258714464","-0.005277601162648253","0.03999327417892481","-0.021554436325106875","0.03131911721627689","0.34483787421447176","-0.6075921487911807","0.1365430167896907"
"-0.016592792881884276","-0.005942030970477212","0.02514583503187619","0.09083608052481523","-0.06927965155959584","0.033969274111247214","0.3688007640275776","-0.6036211567368034","0.12925383950108157"
"-0.006695010137341247","-0.001376244729842259","0.022773273342642546","0.09998316446899824","-0.08585323366593026","0.04243181723648671","0.39599585758291617","-0.5990828801032293","0.12485745230234645"
"0.010753201817581815","0.01417304325960925","-0.0009911702904299205","0.08708905908383427","-0.03439734698200388","0.07324838523312883","0.4111816424063377","-0.607790038760668","0.11843447769601599"
"0.006243356061216104","0.025674761123507427","0.003438176031731803","0.1054130722097826","-0.006359871981901675","0.10027901480838478","0.420432432427211","-0.6158771421803798","0.13714772432260225"
"0.006788311803765842","0.03499828858186109","0.01645773221653141","0.07080511235907776","-0.012988826165024432","0.09877677385784757","0.41558412681386153","-0.629439201422572","0.1495033701301998"
"0.011960577261322774","0.0331784556822359","0.003048462947854376","0.002037063771322821","0.03605892502209419","0.14063566225019938","0.4202095218242985","-0.6435025819207986","0.15394878766944123"
"0.004901185910837405","0.017750386014351898","-0.009928549042308905","-0.010170793699367573","0.07539276212210953","0.2067925092803194","0.402237354464469","-0.6723417468074059","0.1584759224428599"
"0.003875783321057406","0.009770958882547887","0.003835530548626435","0.04194187936817083","0.07357624965731417","0.23759694285894425","0.36336731808158274","-0.7099936116685114","0.16759556577703905"
"0.015134992602641676","0.03332699227164595","0.013102110495895254","0.0874577921804159","0.06257904968928434","0.26011599581538164","0.322379630971026","-0.7450333289323856","0.20258688545172998"
"0.024453158108642417","0.051317577786205375","-0.002650393881246691","0.051088963312353845","0.08050484463173124","0.28836492095957084","0.2593516579974853","-0.7835559096592352","0.2284258748985709"
"0.02623437387492691","0.06693053915279559","-0.014383711016555781","-0.030685062164018836","0.1208031804449383","0.343746404790361","0.19579427234202734","-0.8215243984715205","0.25272858034287987"
"0.025632611791722687","0.0419265336963017","-0.017454740988605246","-0.07403575112714615","0.08009080424120477","0.382722155461811","0.10905418398365722","-0.8795061595312819","0.23249539316059709"
"0.0226064706277053","0.026119332174329105","-0.026847507843266276","-0.07455467316123886","0.10454312025281759","0.36160826811177266","0.004453383566914368","-0.937804544542223","0.19289522147831023"
"0.014326224362815205","0.02532990694389809","-0.038980864323286846","-0.04693627540239472","0.1302255909507345","0.3194047622477306","-0.08772015073745004","-0.9905620104075213","0.1637058254302028"
"0.0048289744608528955","0.03963720052805175","-0.04530879696239885","-0.02485657608907052","0.12098746431817843","0.2958639912942396","-0.1816769698651159","-1.0293220590977556","0.14257374867197048"
"0.005675292654671308","0.0492442978389155","-0.018330407907333538","0.004913278199619502","0.14366874050904216","0.3221956783917012","-0.2533705925268844","-1.0575015907527388","0.14798342957450322"
"0.008373112426092483","0.0554973766378559","-0.022876027926486776","0.02166155905618102","0.15454388232726363","0.3351552368341385","-0.3448475311971471","-1.0881613433586284","0.16612465556184886"
"0.009270460044566614","0.06298341300064052","-0.024404314529927668","-0.0007505776938263117","0.19104166241702536","0.3153275977939301","-0.4572780665411954","-1.120100784433869","0.18093181839476338"
"0.006563974899147301","0.07170240692726938","-0.027018923773111676","-0.08406663920360578","0.17551155782669986","0.2668384633969456","-0.5542163149828173","-1.1525415467651439","0.1751298947681799"
"0.011195135891486992","0.06595726094106683","-0.02711599062495184","-0.1270428185725549","0.12394557947824043","0.2152550524055589","-0.6470028534451917","-1.1893226957605059","0.10578464984538039"
"0.017664318990765666","0.06923337564735554","-0.015534056473470073","-0.07681520922070015","0.12941426324906702","0.23437646831716255","-0.7173311486641205","-1.216789823525335","0.06510907936132115"
"0.015376660255256493","0.06950551960837255","-0.0012214459070294598","-0.03988894833456821","0.12430218073944532","0.276764417335067","-0.8127926143614462","-1.2458664563753268","0.04905327719017852"
"0.0196015114890167","0.031015846037818314","0.009580731636350764","-0.0059664661986574144","0.017053753107812358","0.17346411675410378","-0.9246380093728489","-1.2637029389584435","0.03444387006397289"
"0.0098779990437696","0.056902761291504796","-0.020955343411351607","0.05029565764242364","-0.014554760428154338","-0.08425150686374314","-0.9405203898303726","-1.264045948238888","0.04901895595182409"
"0.0006262680717546045","0.11139803140904783","-0.020852080803011003","0.08016496396473477","-0.03796335959405273","-0.19142996744302382","-0.9103717307864418","-1.2489271545700629","0.09162141881778246"
"0.01324401543238074","0.09496344457236428","0.002040619890450114","0.01562319356855699","-0.09942801456226656","-0.20479966921444462","-0.8549784459626579","-1.2375814629861277","0.13621614785298178"
"0.03860660230560571","0.051867059295281695","-0.013198256272805688","-0.018947219047770098","-0.16665333554202505","-0.22650571616372536","-0.7897770946107192","-1.2239138624268755","0.130038324949183"
"0.04729604678707468","0.06657737523391856","-0.026182496645552812","-0.03848525941859949","-0.14187313783386815","-0.2832389741616387","-0.7161330041734653","-1.209956023245709","0.10179031143879728"
"0.05264258254392755","0.07078210330337217","-0.051372377324158926","-0.010894781398138821","-0.10871400713592397","-0.2213243196703539","-0.6110863825508972","-1.1874625300473258","0.07631414651170328"
"0.037882562167094395","0.0706751154103006","-0.06781384982414936","0.1022359985316641","-0.027567355846255553","-0.19032088163624594","-0.5660863045879138","-1.1702065247080384","0.10130491106778451"
"0.031027288515231902","0.08049203363767364","-0.045042379432880114","0.10816653606415197","-0.035072256751532596","-0.19009275457752137","-0.5167673336934986","-1.1428317455956367","0.16584681696564624"
"0.03212201409699702","0.07869089765140078","-0.038018456813552454","-0.011507090143376206","0.0023653710917536925","-0.20441622160509912","-0.45323781186340445","-1.1185440500072361","0.19539576884413354"
"0.01752952428412791","0.06442930763321943","-0.02839025121187485","-0.0728082453878731","-0.01371854243711416","-0.24078064551923403","-0.38825937111437825","-1.1067761931550615","0.16328089581248117"
"0.010584708434284633","0.042282813767404115","-0.03204987805146574","-0.0656001391369418","-0.0258843893571329","-0.23711362439441702","-0.29753475572894544","-1.0833064427738748","0.15283743328463084"
"0.01328349102503893","0.018156524521060483","-0.03808041437855682","-0.029068605586576122","-0.0005594772392428858","-0.24518543925950068","-0.23311359148720087","-1.0639396110933903","0.12711284796563807"
"0.0049291076714980675","0.020150861945307255","-0.040304690962213355","-0.0053704279216503946","0.030365271328091355","-0.36102059365229705","-0.14489672038453508","-1.0328445005546285","0.11186441206816648"
"6.87956778742127e-05","0.0510662081733576","-0.007109892885043871","-0.024549458966852396","0.00962424105976991","-0.4160380449425693","-0.01828349793017182","-0.9804168513051421","0.12270011732006751"
"0.024013149673403487","0.04393749059908386","0.02353390571567941","-0.054800014130537734","-0.020218976568379853","-0.3475513896531347","0.07982503117674107","-0.9359839568229403","0.11219128100487542"
"0.02855573128709552","0.021103365808866778","-0.0005487932762987876","-0.058687597013035483","-0.029947011108108015","-0.30384321595495195","0.17043819126071783","-0.8929099067978843","0.11500235386057223"
"0.015435392234577225","0.022112999129891706","-0.025754989447022723","-0.007414345321239968","-0.03628805165550629","-0.31136655512565525","0.24397082639651518","-0.8555087025647957","0.10704309525170978"
"0.016770822649624033","0.04431350630094704","-0.021715356208738424","0.030357113438231432","-0.03384928195639369","-0.25171375615278835","0.313909028060347","-0.8188594802157589","0.10221850974588598"
"0.016619660014323145","0.046333811660405365","-0.019557167694419873","0.04837112119316338","-0.01616257738974791","-0.17618671152973753","0.34918463097126773","-0.7846113228298337","0.12796270720108127"
"0.012182988527275049","0.03901708623520002","-0.03166367589627189","0.03226817139309968","-0.009696128076664156","-0.09052257409506487","0.35626204261374306","-0.762671921546015","0.15169339200614962"
"-0.00767708585713054","0.010110411731633222","-0.03307837363053812","-0.005185965098399635","-0.0030384543288806036","-0.10516638975829833","0.36202985446410696","-0.7383050699698194","0.19595144603653872"
"-0.004201308064542931","-0.0017813445191423838","-0.0019110336055279916","0.04428136089478537","-0.061432030516033284","-0.2114007926158359","0.37866455820646033","-0.7132258145034698","0.2092059814200858"
"0.005252614967428673","-0.0025765865670607847","0.025150378586643173","-0.056279760264861416","-0.1284658877313865","-0.2915631849214814","0.42374822764553616","-0.6789776571175447","0.1938267979479307"
"0.014305042337486414","0.030311595634881172","-0.0369775697214792","-0.12631112887698823","-0.0937941932946404","-0.24581642899639836","0.4689433523860678","-0.6441226371585254","0.16409806815425348"
"0.006630409433133064","0.044408029585117074","-0.0876980976862154","-0.029542278389495604","0.01482176427425749","0.0008631841231078425","0.45916314968327726","-0.6404814617199601","0.15223272575171937"
"-0.0027281944848590086","-0.006024920619672469","-0.05576310343080127","0.08639491662264534","0.08602139434365917","0.06991384716198486","0.4211568918866768","-0.6338851294037188","0.19405560620362694"
"-0.0012647090985063308","9.935722061865963e-05","-0.001168575451559072","0.0938985870006016","-0.01134056248320024","0.03395228592602305","0.3646769178736942","-0.628014393642264","0.23537183980363569"
"-0.008745815316901228","-0.0008531466429408668","-0.007997125215906313","-0.0123389057972836","0.021289888895279788","-0.008667915852731864","0.319760431386803","-0.629082999477495","0.251927751447943"
"-0.08044697105485069","-0.009947013682283607","0.0214729905784177","-0.0008533030760854771","-0.07246273664283406","-0.01143650466755068","0.3103981860644732","-0.6254550167035623","0.25124132668085425"
"-0.009323506916777285","-0.011504051077567934","-0.05665529236686406","0.011061685966458358","-0.05696853150833456","-0.018717883542989755","0.32026198024335656","-0.628805953520213","0.23694081069983852"
"0.0030544984299002826","0.009963744833558408","-0.0899471572958737","0.04931461580060463","-0.05385485203969325","0.02121503002166201","0.3471505717196901","-0.6082517820228048","0.23546990048464833"
"-0.0003481050933696755","0.01263272921460116","-0.032146944903305906","0.054970769697255006","-0.015446502910872056","0.04338072872543671","0.3411877130917777","-0.6071304055290437","0.2275760156631277"
"-0.015784024642057807","0.003429661814106822","0.01570804567997865","0.06478118811544518","-0.07425531613707877","0.04660120326721841","0.34419700623109784","-0.6089641859129589","0.22595801442641847"
"0.000706182076404127","0.004959100487848319","-0.014414689799057962","0.058947888292499716","-0.03317915878097512","0.05567289417692453","0.3500205457321902","-0.6074602221448558","0.21628269389983418"
"-0.008851725443545164","0.005755900611879411","-0.005220806728060922","0.051375862692983935","-0.03240133723807855","0.05869193737961966","0.3564292255659277","-0.6136343891928578","0.20618244375552822"
"-0.00948718620340883","0.0067322949758335604","0.010865070653847819","0.05448939489754008","-0.07768251751993376","0.06780973907779138","0.3728131548800043","-0.6168533993631836","0.1972098914428681"
"-0.0057418189975457406","0.019309500844453147","0.0020117063601147456","0.01853743660603115","-0.09405984926775275","0.04504071711019834","0.3935995686016054","-0.6281990909471187","0.1703576082922295"
"0.004204104713653635","0.02600091838976445","-0.011054524523654815","0.003216046930784617","-0.04505230547115923","0.03983262489718889","0.416726543653789","-0.6360751117327109","0.15708672946184696"
"0.0060276845305957","0.02102026841618983","-0.009571053892233746","0.0051345180575684815","-0.035158415445514984","0.0775682380472746","0.4330826091425017","-0.646299426822885","0.14425712369602145"
"0.01287332998912693","0.02318391677801589","0.012722930198068569","0.030044219818416727","-0.03443324643782988","0.13262937324240898","0.4303240904314583","-0.6678166628384642","0.12794636375424587"
"0.015121513131977899","0.036958348331628615","0.02425674397406362","0.0074633130636293475","0.027352110335762837","0.140628381599389","0.4214633939656818","-0.6857982647325382","0.13012004218336023"
"0.018007082673358796","0.058299836205885996","-0.0049514978455086345","-0.07373344775292519","0.11206525289689112","0.17384513747984584","0.3962744958365569","-0.7176453571553514","0.12350094621500442"
"0.017147285008876592","0.07608787182579535","-0.05631659101150689","-0.11163882498167729","0.16512943520182208","0.3006206831570069","0.3577388253580392","-0.7584766541928855","0.11420152496563533"
"0.008274904854113543","0.07017341490201352","-0.0402613206667103","-0.08216905974312955","0.1827201685565597","0.4467918825929617","0.2680173076857132","-0.8213397011666655","0.10977245087322936"
"0.032607275040892905","0.002237557005937399","0.011139398099165457","-0.013852348167587325","-0.06380618119465911","0.5132642244915306","0.14522142930622867","-0.892685631499132","0.07913829412486842"
"0.054716495387482585","-0.007837378625697567","-0.005860828374555965","0.06517880370000971","0.06623122099531557","0.43703581050708196","0.030143830552593134","-0.9575671561616822","0.07379725569904451"
"0.01769031511276008","0.029675900580902515","-0.026907400156103826","0.07556879737705667","0.16751555236572319","0.3651272493367791","-0.08058701144424678","-0.997633278650532","0.10947826883019131"
"-0.027501535926210404","0.06052269145999437","-0.04333235063875976","0.02715789651932603","0.12985462990719923","0.3320488258217191","-0.1676057380562573","-1.020232313165975","0.14595684216690788"
"-0.021714991734118613","0.057093885294661785","-0.030988338437724364","-0.08737368407764733","0.16111108944636565","0.3157644368425516","-0.2490238357700886","-1.056525333569935","0.1408249998605777"
"-0.0012935936785001517","0.03444569092055938","0.0003115907763950965","-0.13015249977871332","0.11209636575860696","0.2519131292357116","-0.3309156185151089","-1.0982933097963752","0.0822778702619577"
"0.016807409784282853","0.04553192182107281","0.025860412281593144","-0.07937323490638526","0.08728266189167912","0.22887715007173878","-0.3912965280790627","-1.1248105657076655","0.041654598807771885"
"0.011458948388763724","0.0763236606775162","0.005419165910137886","-0.03611400715520377","0.12010194440780388","0.2716679617678164","-0.4828570582254176","-1.1572909060328378","0.014130599992196433"
"0.012191653901273187","0.07228824354564187","-0.00042880212540700996","-0.029729051811784996","0.05775176952921551","0.3418534355796679","-0.5798231704924034","-1.192409779284507","0.0014807721415608492"
"0.024853690951223143","0.06824347795709139","-0.014749260650081508","-0.03520035778534484","0.013812750235841517","0.38048942254663454","-0.7158543659198245","-1.229336047590826","-0.015673309656923796"
"0.029706300390181996","0.07721176406175108","-0.009291831799280763","-0.029392089451984547","0.02720611921540379","0.34978934496295816","-0.8729784771478513","-1.2606422407637072","-0.04629439164781635"
"0.027019071631425216","0.04426468658274934","0.01948518536786114","0.009792396894570043","-0.030026468570336216","0.26145078179728065","-1.0147217567749078","-1.2835183212364325","-0.03962463099427064"
"0.027914493611233097","0.05683316722513785","-0.028538949367885317","0.04376436435989154","-0.0654910623214258","0.014543041619049905","-1.0798952443014826","-1.2896924882844343","-0.03496838299085193"
"0.015396879461252158","0.10289197455115366","-0.025304764474657702","0.07958923970427573","-0.08241885239191006","-0.20547919662341135","-1.042084033282431","-1.282634412706056","-0.0017715737786930016"
