"AccX","AccY","AccZ","GyroX","GyroY","GyroZ","MagX","MagY","MagZ"
"0.014721943108730302","-0.03164166547541802","-0.02217177693760388","-0.007362838217670472","0.1347202028201491","-0.27559429081076275","0.07408508315174148","0.8220045687785433","0.2089117993770478"
"0.006342526452528151","-0.04505358465347756","-0.004650384079587445","-0.023388382949939997","0.08760575699411308","-0.23508474970193058","0.01587755196618567","0.8289439103752292","0.24890421378338537"
"0.008777496546005717","-0.05444359002597278","-0.011093764314824244","-0.024069046916736902","0.08185705746784373","-0.25336403700313626","-0.05397705822155365","0.8436669241050799","0.2863143635897224"
"0.014470647262784225","-0.05617097707624485","-0.015833518037657816","-0.016720379224288852","0.07764485465092696","-0.2618338607791861","-0.11915054574812842","0.8500653664518341","0.3237898871834012"
"0.013521307400321233","-0.05963406091605669","-0.029464182338617098","0.004818543639035604","0.11652875190458985","-0.24809769958364392","-0.18713827963647475","0.8660021053278731","0.33495246137201123"
"0.011571598250739565","-0.06180290286492505","-0.02645924043590562","0.05575829886958862","0.17164877637982276","-0.24010354499387077","-0.2584139449177823","0.8893135437334703","0.33351423805049185"
"0.013825558309589297","-0.050877673162723215","-0.023850826949222047","0.08492768623311425","0.1541106955602966","-0.20751292508310473","-0.32436761955455107","0.9116619176208959","0.32393697820492023"
"0.028674158065070107","-0.054821683162652894","-0.02981320995480833","0.10060895170862764","0.13752275367163178","-0.11744884767537235","-0.3727949480373159","0.9318466945085944","0.28523569609858296"
"0.020286076034869815","-0.07343238297006403","-0.012783140587276472","0.06934365846714326","0.1401601670263149","-0.0596113576378881","-0.38725627340127144","0.9407517431355202","0.2693498657745289"
"0.008052493588161267","-0.06465625958596978","0.018141325782916565","-0.012219524846954299","0.09350762753190667","-0.08409133254591526","-0.40712318088585797","0.946266276951898","0.2629759215087048"
"0.010677139090264808","-0.047995232354241545","0.022954395957671958","0.004012529674392933","0.04994244123853405","-0.05972784805085381","-0.4379127079131624","0.9547491603105844","0.2704612201593393"
"0.006924069329736706","-0.040780301235065465","-0.009852341237353542","0.022401913498142568","-0.02473967537569467","0.09773078702475946","-0.4298879262083084","0.9527042972925496","0.27194847382136494"
"0.0012241788776263284","-0.08792664568774082","-0.010928544141479283","-0.006073523954114013","-0.06443083172603142","0.18247513557372358","-0.39043274949277623","0.9411343304098623","0.26189725401756536"
"0.007471913530285836","-0.06221942854571826","0.00177853939048167","-0.04229967333154056","-0.1375125505995373","0.193966429436072","-0.32932738046935667","0.9281131704176018","0.2761487396580746"
"0.024940344691204555","-0.047843579612606116","-0.016025586489171333","-0.044907761996396026","-0.156369338096405","0.2441228328686285","-0.27660902288052414","0.9185484885590517","0.2628124870403503"
"0.026189121366269955","-0.07513484080253302","-0.03217379318147446","-0.0070048879166024515","-0.1760087337302794","0.30566860105218846","-0.18914447506268825","0.9015299511831492","0.24401752317958686"
"0.02851625569443732","-0.062258899807239816","-0.0360316842290793","0.029808346166556417","-0.16674667412717267","0.2488309870593267","-0.08599259356487744","0.8818860735453824","0.21386386376818808"
"0.031998773222356794","-0.04330853940726163","-0.05586223553480824","0.011259049634341477","-0.10001676563781288","0.22738704353921882","-0.0024847089487406338","0.8672290231386941","0.17583266298210412"
"0.02636531730423215","-0.04465160101640282","-0.07026736939832204","-4.209026360588452e-05","-0.028883669226542043","0.27979802183938285","0.08617798335975066","0.8398938220201899","0.1672686968403301"
"0.020609583330800405","-0.03827699228067238","-0.060566879970806016","0.024454495644127015","0.08639474868424951","0.2721533384885069","0.15463940227928633","0.8211074675835345","0.13860229109095695"
"0.01758729344411552","-0.04406888055025572","-0.023369623194354847","0.009856612292852014","0.1602112097536607","0.28113280782128186","0.21502031184323978","0.7961733314281423","0.14162582875551455"
"0.008117002483480764","-0.03235734176984824","0.05102695561071429","0.00228631964261521","0.08938876330013751","0.28169099105007595","0.2851256964592559","0.765474000828355","0.15579559716184668"
"0.004663369535555086","-0.027222961619821268","0.053088077273192674","0.024699996791981628","-0.04127089612415442","0.3000139622561437","0.36657165799845143","0.7287588151561556","0.1408086564137422"
"0.005367190468070746","-0.028011348132843818","0.013920363404386172","0.0205515087680384","-0.10907539499123899","0.28858334048388157","0.4613643918870392","0.6912652622706398","0.09614365055715049"
"0.019692979325663742","-0.024926357429712095","-0.060529705431803395","0.002507655775524133","-0.07005029321132719","0.2773711382359302","0.5493862162121569","0.6573205361712616","0.033901267629036065"
"0.031019585960566882","-0.024998028930895963","-0.05240500340756494","-0.04637595513552655","-0.0014536130190156706","0.3023923081875273","0.6252036850278083","0.6206845064868572","0.003613591953586618"
"0.02916904720229726","-0.023453456144513173","0.0015385570886981147","-0.09556379491999704","-0.03855450396665412","0.3158615121866897","0.7163462577937025","0.5755655934437663","0.005064890032574267"
"0.01801863650535631","-0.05187795802707198","0.003450567544732675","-0.06667841868830324","-0.07740728835860113","0.16893069818285417","0.788012016630107","0.5412382800700463","-0.010593766380467022"
"0.007049235843043184","-0.04366793563058943","-0.045042379432880114","0.026563880016477817","0.02548294533575602","0.05369983780731749","0.8424857952168762","0.5267659269682127","-0.01683206003755695"
"0.003536870915796792","-0.021872528248834226","-0.0737493845515671","0.033820123747380595","0.08660057223098522","0.015888748577164415","0.8750864708928457","0.5203279066275611","-0.018458232997683875"
"0.005731136175992666","-0.008266368915392317","-0.051378573080659365","-0.02650095240489671","0.026607794951637204","-0.0157871789034603","0.8833620270259764","0.5202487506397663","0.00036614906738339473"
"-0.0032384887314161797","0.009407096174363696","-0.015505142943134704","-0.04628256842438186","-0.03319112526625045","0.0042159238212777185","0.8908573960489129","0.5221616870114764","0.03084831176017466"
"0.0019511074741370275","0.003679369479101053","0.00563477823635306","-0.03675231013962576","-0.05453694170038715","0.08210651038573111","0.8956778378368979","0.5266867709804179","0.034742955141061564"
"-0.005337434877632505","0.003953133839275261","0.0032122374446825687","0.009736749967722997","-0.036821756898786084","0.11780111442531312","0.9259936798330133","0.5142724735612516","0.040373272575872886"
"0.0023805248967115515","0.006267261192065186","-0.011153656627661795","0.0505199782990908","-0.05665500959412087","0.16012596446952782","0.9693219282741523","0.5037051491906329","0.013867470498145741"
"0.008193065210797771","-0.007775055581189856","-0.029069719174756006","0.05002223675618557","-0.06744638601541501","0.1582427027932486","1.0096687474013348","0.49056525521668026","-0.021970439722621325"
"0.006609227407804256","-0.044650562298994355","-0.0586399996991704","0.027282091217652484","-0.04099327366576672","0.053248437457075304","1.0341889137217217","0.4824253811384384","-0.03521190034870008"
"-0.001852028891713651","-0.016759961164384947","-0.05339632444763471","0.01264540905752046","-0.0038483460523150536","-0.015264185486916248","1.032377765073057","0.4887314748327651","-0.04233600882427121"
"-0.0560202445734249","0.016503925124197665","-0.016610052852379133","-0.036262270593515965","-0.03220508687956312","0.008924320700336262","1.0235727962580088","0.4881641902535684","-0.015140513290088241"
"-0.03885317586377487","0.012501643077653272","0.0035860480868755433","-0.04819844012724725","-0.08893101367874556","0.01588899126552476","1.0149071465697808","0.4917262097043387","-0.009526539302112369"
"-0.021820901860762548","-0.013748719397254014","-0.03173182921777668","-0.006554321104069283","0.0025053789694750726","-0.03792229887383149","1.0010030977131068","0.5048661036782914","-0.008137346321099416"
"-0.015418153295469637","-0.024726923687287416","-0.029090371696424124","0.0028033161775090397","0.022359692678894445","-0.07654129765557398","0.9748668295216033","0.5194044201032874","0.008400587531688899"
"-0.008813212670220097","-0.00624845260597346","-0.010083442954819805","-0.017805398022846294","-0.08585562696298532","-0.06999356569345863","0.9390339501034011","0.5320034148273084","-0.0025478875033767157"
"0.01983258812896712","0.00040567498437406237","0.006882397070324196","-0.053526296410492044","-0.06635025596419462","-0.09674995742152442","0.90225370062282","0.5443121709294148","0.002554536598649692"
"0.018022487782688824","-0.002989476736924374","0.001244258654927402","-0.07678440123351839","-0.04130918887703549","-0.07885169084606092","0.8658078170466085","0.5621222681832664","0.017302863022956607"
"-9.77720667567211e-05","-0.015006606178901327","0.003608765860710475","-0.06208899134782114","-0.050492269677325036","-0.036640904331208486","0.8307829885639642","0.5705259955541578","0.03555032141473261"
"-0.002121618304989164","-0.01980548060599512","0.0022754390618166397","0.004873805466042877","-0.04682334529190833","-0.013736462258542784","0.8164609823268291","0.5657370582925667","0.03843003674713828"
"0.001202996852297538","-0.009870148594057429","-0.009276755458463036","0.03841436483585985","-0.01363381972136481","-0.052401086452030184","0.7916621777528011","0.5690088391214223","0.02486497587371769"
"-0.005655165257564347","-0.014953631591069773","-0.010786041741969257","0.011867507381181143","-0.01572723665543134","-0.09343726130281152","0.7640491268170011","0.5734019964440391","0.024243924893970734"
"0.006454213495170851","-0.021240988064489416","0.0001100221649142442","-0.025773113707727738","-0.010313598716871273","-0.12227106539543282","0.7199685550910324","0.5862780371253423","0.018561308429285987"
"0.015041599127328376","-0.016151272763026296","-0.006957477275133146","-0.02080340027547085","-0.0035563638115969605","-0.13772546018221948","0.678702229726835","0.5999060596906969","0.02962582193688325"
"0.02005114811758689","-0.033979818361865664","-0.031866070608619464","-0.00026746994483241255","0.014514943591797985","-0.16499392435061377","0.6346773856515945","0.6129667976768548","0.04781280957536813"
"0.0293827930942514","-0.05836370952550784","-0.047396766903045805","0.021155152766880913","0.03976853545744702","-0.2603049241090109","0.5668289708900685","0.6365420893751015","0.061838755649548306"
"0.029808359239493425","-0.07083351201409246","-0.017206910728587804","0.08708231983663825","0.14077524436946695","-0.44989307121073413","0.47883501039031506","0.6738245596264975","0.08971086988271876"
"0.02502988688918534","0.0006724176148670679","0.016792509592771638","0.07417762420588053","0.09321564529118859","-0.46265847896489526","0.3695530873124074","0.7255002269919324","0.08407728375854037"
"0.025468932505091142","0.0142343275867085","-0.018914874270541338","-0.029027207353800634","0.1184577493309733","-0.3235737796510222","0.2656767463551306","0.7626507705970037","0.12119652021120643"
"0.0008563818923718929","-0.041568687748088015","-0.029517878894954212","-0.024119109895907254","0.11341985903005866","-0.20170539262004245","0.20161781184311908","0.7739568841870413","0.18050688877704177"
"-0.007532662957161522","-0.06384709872477799","-8.110259027402982e-06","0.035257508899329375","0.06947653180198554","-0.2404457355819576","0.11852788460744339","0.8009094980312034","0.19786362931628598"
"0.010033012956403005","-0.035749792825884676","-0.010947131410980594","0.05373074821318936","0.11422640013761601","-0.2360943332809669","0.05647514552164521","0.8193132651935168","0.20972897171882013"
"0.017313852753507525","-0.038041203428951544","-0.008535329930577524","0.02977368718097694","0.16073773510577533","-0.21332045754616696","0.0038961070596329013","0.8304742594725972","0.21868518058464478"
"0.015919690359139982","-0.05589779439781938","0.0008842852022520682","0.024153155019505473","0.18468506543876914","-0.2146261209248245","-0.06236406965614053","0.8453291998487726","0.23749648789224373"
"0.018146691476662175","-0.061807057734558905","0.0015505355512656226","0.04620974834244336","0.1463540198048266","-0.25302427329865285","-0.1299895738147543","0.862611590517325","0.2577460185213619"
"0.017852068760725374","-0.058109223760434675","-0.02682892057376497","0.036573587601749974","0.10381316465102236","-0.2747691503855888","-0.21971109148708015","0.89319218713542","0.24689396982262546"
"0.018207349094649158","-0.06160243040509192","-0.026680222417754505","0.012191953996189005","0.061013833415270946","-0.25865464325866305","-0.2894263825479993","0.9112133670233915","0.2594947673327547"
"0.020141653134900808","-0.07327345920656937","-0.014484908372729572","0.028938983278271258","0.08857504230141494","-0.21731753484105354","-0.3496122453344043","0.9258836100947123","0.25867759499098236"
"0.02172741657656057","-0.07366713310437642","-0.015354379534957425","0.021265868970815345","0.14440826929905767","-0.19912804223317573","-0.41353186071959547","0.9437069000131965","0.24967235578465138"
"0.023921681836756446","-0.05763972349180992","-0.0019207402907120074","-0.016521090057206873","0.10225752156522923","-0.13270666489027932","-0.46644526508597656","0.9545644630057296","0.2794664593656703"
"0.010828301725565698","-0.0386550854173525","0.006192396321392304","0.010509067696385625","-0.017144786501147136","0.04556735085214757","-0.4807115436723839","0.9613059146329282","0.2736155053985805"
"-4.481700343473616e-05","-0.061953516889152016","-0.03953435190399247","0.003961407670663208","-0.03514405566318458","0.2677606791662576","-0.41269594595867326","0.9435485880376064","0.2740077481226312"
"-0.0036910138179857602","-0.0967432790507651","-0.01362369821916896","-0.004842648591242949","0.007126835582808181","0.2615963948134878","-0.34259056134265714","0.9284561796980464","0.2680750769213641"
"0.01716461575687288","-0.047391737539925205","0.014243988418925617","-0.000989435869444858","-0.12712564138054935","0.26873143260763865","-0.272903134107102","0.9177569286811028","0.2537909043871839"
"0.027383017339347126","-0.05296757258854848","-0.021211434680036296","-0.016131176469437784","-0.13014119566993293","0.3626275592252228","-0.176995847203951","0.8953293988058822","0.24504716033022003"
"0.025634537430388946","-0.06967845825588288","-0.00022599436262606926","-0.002559295366275173","-0.20494608842308656","0.30545018152787773","-0.04322162163102024","0.8638517009927785","0.2109547302314786"
"0.03617740912812691","-0.05166813711056268","-0.035697113378055756","0.009120686499047837","-0.1676106543640516","0.21812605570844343","0.050177920989363835","0.8429281348856609","0.18258250652514352"
"0.01599575308645699","-0.041227988438112526","-0.04593869887327652","-0.032693357828429505","-0.1338460195111756","0.24516639281811314","0.1096671881416669","0.8284030111252975","0.1599468326580501"
"0.009072119261942502","-0.0415063647035803","-0.04403040587114223","-0.021594780446202184","-0.09203751325622168","0.29047630969457466","0.20264877338158988","0.7966218820256465","0.14355435548209727"
"-0.0004357216526842113","-0.0327614028417399","-0.04803079931825709","-1.946564801928295e-05","-0.028528503943570198","0.2996499297156258","0.2935127078938431","0.7632312478408328","0.13343776189095588"
"-0.0002864846560495529","-0.03192523532792811","-0.03876401284577159","0.02989788187930339","0.03669554203874184","0.372771932687655","0.3862156548801253","0.7229672353824955","0.11006663291626739"
"0.023608765553490254","-0.025505961743633808","-0.006697048976898151","0.08156576463190521","0.04392808573915232","0.40888396070703087","0.49585980768776594","0.671159641370736","0.08596985490208506"
"0.03768710984246967","-0.01892153209139408","0.0031058769580917505","0.07232625672617693","0.008482638364503265","0.3729903522119658","0.5910147713060868","0.6206449284929598","0.03834995385764461"
"0.024133502090044334","-0.007549653903553632","-0.026486088714074176","0.005151847550358218","0.012810676758885241","0.3147451457291015","0.6700087162132434","0.5683623985544307","0.009351776137511883"
"0.010918806742879624","-0.020845236731865446","-0.01716147518091794","-0.05191657908024533","-0.026761293398109207","0.3312236853965451","0.7467735550912737","0.5169769698109106","0.0011261193452316571"
"0.009054788513946227","-0.024944015625655947","0.02456219476953511","-0.07296709907177902","-0.08084645622673148","0.2651639137105632","0.8101080301438193","0.46737255079277557","-0.02215021763781124"
"0.01864832034922121","-0.025078010171347524","0.028920702942375184","-0.030189246120312464","-0.085266875887439","0.21054932509846416","0.8717985394998848","0.4240214548104374","-0.04516832816085409"
"0.004515095358253569","-0.007991108802149923","-0.028278727594867003","0.005799874305734451","-0.011944152000487972","0.1857150251843329","0.9259379521822851","0.3950371706128728","-0.06627262105946614"
"0.00385556411506174","-0.011536251317230253","-0.040201428353872755","-0.014993206442911697","-0.03491429914589821","0.20413749861814218","0.9816656029104379","0.359456554099067","-0.08806333872516696"
"0.017992640383361895","-0.0533290462466932","-0.053646219959818955","-0.04555954347521003","-0.03141769214844629","0.012376319937887353","1.013040270270388","0.3450501643203959","-0.0951727380985862"
"-0.00039528324069287916","-0.009968826747861306","-0.036645064122622466","-0.001117096466329256","0.04343745984286372","-0.0666832964583492","1.0148235550936886","0.3606702792452554","-0.08942147915719256"
"-0.0013513628384877593","0.019252371386987748","-0.016002868715336398","-0.035026100107848034","0.03554915274936506","-0.03756312010052051","1.0125108575884707","0.370498814396455","-0.052357810423767"
"0.00038267478047353877","0.016810346759693912","0.00040246187173482534","-0.045894580335811626","-0.018790417556210755","-0.0031977202105495255","1.0161052910604365","0.3835727450472455","-0.02980221944616729"
"0.001028726553001591","0.013385487720513465","0.004418964285750828","-0.01910992373007374","-0.036089407999935784","0.020442067593962332","1.0215387370064315","0.3926492983143935","-0.03164576024920565"
"0.0025239849773474455","0.0034593691319888312","-0.0032945460320753586","-0.015739337382469833","-0.017100510505628407","0.014175126064766478","1.0341331860709935","0.3982429881185662","-0.027630175361736453"
"0.002508579868017419","-0.002565783906012781","-0.018755849853696813","-0.010309429641685472","-0.020576535148406766","0.008853213010755099","1.0369474324327654","0.41291323118988693","-0.034427414900598655"
"-0.01815256020154963","-0.017787252681353723","-0.0404162145792212","0.0003784387614250744","-0.001844199098402498","-0.0004990256435101463","1.0468669542623767","0.42106629793276124","-0.024443203228824387"
"-0.05823472903961644","-0.013965811335622543","-0.024567469451105817","0.06906927483130575","-0.049747954293199406","0.0360830897298545","1.049207515592959","0.42654125375524166","-0.037114277560346055"
"-0.01883616192806962","0.0015924096235417375","-0.027686000222991957","0.0706549234215667","0.008704975660918927","-0.03050574258168011","1.0434954313933233","0.4277022082429001","-0.058736657723641776"
"-0.01880727734807582","0.019736413699330973","-0.020335767761308","0.005748174652245068","0.0280653128581726","-0.09342512688479426","1.0249659875262123","0.44597404875888863","-0.048871753213766266"
"-0.020617377694354105","0.01087189546377661","-0.00440193424391996","-0.06378150514361883","-0.04088078870417861","-0.0771868486940924","0.9931454989604375","0.46841477129874165","-0.04911853926098151"
"0.00047799389445308773","-0.00938506756430574","-0.01824986307282787","-0.08683550705156604","-0.058998047411030825","-0.08616874491047076","0.9694055197502441","0.4901167046191758","-0.035739793681485"
"-0.0018424006983823887","-0.016194898894181697","-0.022072644833596906","-0.08873982575923828","-0.03865023584885677","-0.09828132097530308","0.9314271257790082","0.518876713517988","-0.0217056758838871"
"0.0013291261849371395","-0.02400813124063181","-0.0002449946825607404","-0.061553702570538146","-0.054852856911655916","-0.10407186525314116","0.8934487318077721","0.5446683728744918","-0.005651508057428002"
"0.009338820217218607","-0.0222734731685005","0.005146139573685337","-0.025749044967741993","-0.05374236707810514","-0.10503776492731533","0.8530740488552253","0.5611196256711978","0.0012421578177633297"
"0.01554419081922055","-0.017237771172277403","-0.008488035655957526","-0.012769254868228743","-0.03119750881938018","-0.11865015505908141","0.8014702442809556","0.580723925315067","-0.0038700723523643326"
"0.010431620160317475","-0.012249850176843552","-0.00617784458216161","-0.028199242698290963","-0.01552667836221678","-0.12322483065158972","0.760398965694307","0.5936527366549001","0.00851662600422056"
"0.0016131578882095374","-0.023837781585644067","-0.00964540297023898","-0.03892042223754179","-0.005419545568966108","-0.13088164842048292","0.716597032221979","0.6099060994821187","0.0175185965211845"
"0.0035349452771305254","-0.039125624403385725","-0.014441538077226515","-0.01512028939003644","0.02845302698109335","-0.18480700208920148","0.664770317044797","0.6279800500286201","0.03392578279928924"
"0.011975019551319676","-0.04034715607573686","-0.005655335783958171","0.01084314180738778","0.004524843024540053","-0.2528301226103766","0.602829033260455","0.6487980748186778","0.04725713238296294"
"0.017620029301441836","-0.025772912117608508","-0.014166859539040521","0.04455478178102344","0.021761368415127855","-0.26265900120436","0.5223861694343666","0.6784815702417638","0.047881452052076987"
"0.022237710823117752","-0.028616920381977082","0.0012595415209618102","0.02072769194473406","-0.0011010803628043987","-0.2346187880500677","0.46562755716774296","0.6985080351538727","0.05503497873195193"
"0.03142974699647888","-0.050131874063447594","-0.012717052517938487","0.042905591717200105","0.02200548471474462","-0.27705042097283433","0.39842001038959063","0.7270569614185651","0.0515930488284069"
"0.023748374356793632","-0.02704741837779121","-0.013179669003304377","0.002573796673004963","0.05572943351768445","-0.3331357010486258","0.3235777754616814","0.7554607683723005","0.06711278594334688"
"0.016890212246931748","-0.025815499531355444","-0.032400970919823774","-0.02731062481801721","0.12396472585468096","-0.331533957870347","0.2338562577893554","0.7835611440394886","0.11751924467323095"
"0.015300597527939485","-0.030243551843628355","-0.024612904998775678","0.0017969540212250169","0.11236920162288454","-0.30323649505408873","0.14076321724797633","0.8092472620789325","0.1614013994264048"
"0.01528037832194382","-0.04499853263082908","-0.017902900708803453","0.022583873172434814","0.1076209002656329","-0.2928494332313113","0.057561834710844195","0.833337067697846","0.19206170568970246"
"0.010231353739027116","-0.04669060328921345","-0.011923995685882673","-0.007637895778227578","0.16458855006737708","-0.2845252224714686","-0.03419374221305942","0.8574268733167595","0.2164788152618595"
"0.007906145049526","-0.05956966043673205","-0.006214606070730864","-0.035217687278134575","0.16240586315315655","-0.2957616935554545","-0.13787503639278761","0.8778755034971076","0.25746817992515936"
"0.012364961381236009","-0.07015938441600071","0.0025304977044179238","-0.026370018459374242","0.11056944223747465","-0.27336155789558625","-0.22430862267215287","0.8893135437334703","0.3068090459213723"
"0.02102840974071055","-0.06532207744479383","0.006264886672447405","0.01860097807959352","0.06840672801837089","-0.2757884414990389","-0.308596694398484","0.9069521363470995","0.3126273129947913"
"0.025926271688326348","-0.06383567283328491","-0.014532409172566247","0.05428529198246095","0.0681697916099193","-0.2817828439995671","-0.38717268192517945","0.9288123816431234","0.3145558397213739"
"0.024762223114576102","-0.06800508451085081","-0.023084618395334794","0.07392634656042935","0.06709280793513946","-0.28100624124646223","-0.47385704263282086","0.9576119685358332","0.2859874946530135"
"0.02662912980150888","-0.06985504021532139","-0.03552363219604354","0.04862432433781342","0.04965045899781594","-0.23007566194440426","-0.558451616438157","0.9806991316426779","0.2552127842618677"
"0.03153854558112221","-0.07091660940676942","-0.018995419105047005","0.007990514744277134","0.06426393081605104","-0.1542646719397495","-0.6138170374365768","0.9933113190313314","0.2538889650681965"
"0.032895158021497804","-0.039223263839781135","0.001280400567846613","-0.00019738177399391947","0.05081360136657819","-0.028789935874039066","-0.642043092530386","1.0019788996948724","0.23774163959477543"
"0.005593453011355536","-0.05430751804546427","-0.035585589761047906","-0.021917301562011184","0.014703296070031704","0.24360833354469655","-0.5836405145672818","0.9881793724892955","0.2628124870403503"
"-0.018980584828038622","-0.09573156829492324","-0.015713733411982716","-0.018529385721617542","0.03388581129609394","0.3559778981517625","-0.49907380458731004","0.9658837692603998","0.2790251863011133"
