"AccX","AccY","AccZ","GyroX","GyroY","GyroZ","MagX","MagY","MagZ"
"0.012457392037216167","-0.006395327247529969","0.004635609238049407","-0.03131470040204597","-0.0339761267003122","-0.004811355118485212","0.865055493761778","0.5518187971052975","-0.010912463593758234"
"0.010435471437649991","-0.008250788154265389","0.00655815248013471","0.020744058687924366","-0.03514405566318458","0.00849257810728203","0.8566127546764633","0.5411855094115163","-0.01256315172413832"
"0.018006119854025657","-0.005623871828265343","-0.008736692016841694","0.04869556780817123","-0.00695388831096914","-0.008263111667675956","0.8389749532210025","0.5393121510337039","-0.03239592445895265"
"0.0056078953013524386","0.00018920627645061045","-0.013629893975669397","0.023547585521464093","-0.009456559041452015","-0.018964940293821234","0.8341266476076533","0.534589177095275","-0.030640638268825692"
"-0.002468233264914775","-0.0019633278091049015","-0.001898848617743801","-0.014190273276987204","-0.028903294262393586","-0.021840311987191968","0.8201668711002508","0.5350773056866769","-0.03547502984275077"
"-0.013155527862621768","-0.010219157643300614","0.001989814687146538","-0.03788161541975698","-0.029314941355864998","-0.0457125952409146","0.803727214135446","0.5386129398081823","-0.02978587599933185"
"-0.00528929391097616","-0.006774770716841084","0.006304952564483558","-0.047602498125200184","-0.03274836531106318","-0.08110869259727191","0.7779531756736751","0.5456974007158254","-0.014798935251227403"
"0.0009054856783613627","-0.012533420029353638","-0.00183338012405586","-0.054542959987489974","-0.0044050269473234855","-0.10640167351245572","0.7410614708916381","0.563177681353865","-0.003518688245402233"
"0.006070048581253281","-0.028215975462310805","-0.011913669425048614","-0.04839580379513038","0.03336167924103443","-0.13893647510034235","0.7023864812863001","0.5777423831081261","0.028424578594477945"
"0.012987905489769021","-0.033694171074538655","-0.005211926143743632","0.008897617416859939","0.04027830773017615","-0.1599508602226391","0.6561046673565695","0.598296554605534","0.04249792066448094"
"0.018586699911901094","-0.041891728862119657","-0.03668223866162508","0.10679943163296159","0.04540714331918332","-0.16255976009635073","0.6169559927200421","0.615895569225266","0.0359262206919479"
"0.02494612160720331","-0.03494894170396058","-0.0319404196866247","0.15104740322275756","0.09165521561128534","-0.20562238275601508","0.5662438305574231","0.6334945838449979","0.019800141699412823"
"0.01915572613777901","-0.0535741835550902","-0.0140429444090318","0.0865942057897273","0.06291171797993855","-0.2843553406192269","0.4953861226565766","0.662795491993742","0.00845452090624587"
"0.032482108527586435","-0.025759408791298503","0.01590362506017575","-0.0008707288438351574","0.06719093311439718","-0.4092913085249708","0.41427452702175","0.7011597607450017","0.041438865309544"
"0.019702607518995004","0.014202438962268719","0.00794021923016531","-0.09956594500482696","0.08332654185965446","-0.3766497240585323","0.31864587837224007","0.7408696812887747","0.0951842902279098"
"-0.006473561690722097","-0.02753353812495136","-0.010821151028805062","-0.032976406210661884","0.0332850937352723","-0.19684191787872327","0.24048784822600572","0.7610016875179432","0.15058203762133923"
"-0.0083992003569756","-0.06138637718413185","0.0071335317338085385","0.016094940872277617","0.05465723643701474","-0.2232852416219437","0.19554349791375022","0.7710808832971602","0.17295621633906552"
"0.004493913332924779","-0.022162330405795082","-0.007926493591801339","0.03274473244481746","0.09055908556006495","-0.2865395358623343","0.10596129936824489","0.806305297865889","0.19977581259603322"
"0.011959614441989633","-0.04142430602831181","-0.018867373470704663","-0.008970630048718321","0.13075690289695927","-0.23933179600797277","0.027218128889365124","0.8243264777538603","0.23239733247958438"
"0.007778090078220149","-0.049530456683948176","0.014109333977649472","-0.02945755642474578","0.09782274212219129","-0.22553738960594777","-0.033720057181870426","0.8405138772579166","0.23805216508464888"
"0.00906249106861124","-0.05596323359455247","0.005635397812003103","-0.03652413848456089","0.040694741417757696","-0.24739390333864258","-0.10892452183951251","0.8553028543109298","0.26277980014667945"
"0.014522639506773067","-0.06644389224593264","-0.0065661119895222666","-0.01505385966767578","0.035204517973435503","-0.23028680081790467","-0.1780268087424218","0.8725456669855846","0.2893052143606091"
"0.018833181661181544","-0.07389565093423803","-0.017712897509456746","0.0638434700056005","0.053216471609864785","-0.22301343065835696","-0.2552374688262777","0.8933636917756423","0.2934564498568125"
"0.02140776055796249","-0.04412808744253804","-0.008665647342303358","0.08194797622287886","0.021318608459940585","-0.1737889505295263","-0.3067855457498189","0.9186804152053767","0.2665061060251612"
"0.02462646558860523","-0.05137106393174259","-0.047161328156029234","-0.010757108205420354","0.013861573495764872","-0.05432803203317161","-0.34217260396219606","0.9338783648619967","0.23009290647578645"
"0.014249198816165057","-0.054711579117355934","-0.01484426224975486","-0.03203772535121778","-0.007246588540803754","0.012517564563608299","-0.3419496933592834","0.9297622534966621","0.24885518344287905"
"0.013665730300290252","-0.05460251378946744","-0.030911924107552318","-0.012129989134207321","-0.02261059831550765","0.09175579959305896","-0.3210518243362261","0.9242213343510194","0.2604590306960461"
"0.007547013438269719","-0.04915547969949345","-0.022310148832780284","-0.009399631270224263","-0.03833910723169815","0.15974494374378576","-0.2710641216330728","0.9128096794439218","0.26014850520617255"
"0.016064113259109003","-0.04235499682629365","-0.03106681802006322","-0.03118280370692407","-0.0831129085378793","0.22839905400185861","-0.2005407796365956","0.8944850682694033","0.26840194585807303"
"0.007447843046957672","-0.06762803009157917","-0.019173030791392837","-0.03483932668555865","-0.06565619981822537","0.2635621705322845","-0.1283734719436378","0.876767319667979","0.26322107321123644"
"0.019433980925052642","-0.058844635685625674","-0.017919422726137946","-0.0033103363287903986","-0.0668001958105471","0.2177790113531497","-0.05757149169351954","0.8564638087985882","0.2554742794112349"
"0.025364948017113448","-0.04605906310486864","-0.024887583536961678","0.022820709573894555","-0.03663268643143584","0.21466774657352336","0.012004480240579044","0.8428094009039687","0.23950673185300367"
"0.02060380641480165","-0.04610892154047481","-0.02721925323329244","0.03602000658207781","-0.058196292897583594","0.24368842070361046","0.09459285861970149","0.8188647145960125","0.21250735768084603"
"0.019453237311715173","-0.04236953887001211","-0.03248771151082988","0.022810119328300828","-0.021445062649690337","0.22098007082610377","0.1741440800341395","0.7981786164522796","0.18864592530109414"
"0.017008639024906354","-0.03738681146162057","-0.03470992284231961","-0.00018756172807973503","0.001092137058458397","0.22085872664593115","0.22073239604287576","0.7815030883568215","0.166239059689697"
"0.013842889057585572","-0.03600116243873245","-0.01969553958959628","-0.011443548669813838","-0.009344313409569403","0.2397714305676379","0.2865467515528241","0.754735171817514","0.15854129623020166"
"0.012261939712591447","-0.03335970406901394","-0.016963210972903986","0.0029727601070086936","-0.02997764531041287","0.25184032272760803","0.356150587312287","0.7262390162113513","0.1513828665162761"
"0.012410213889892965","-0.031035054508876295","-0.0154018803347941","0.006785537345630732","-0.03120708200760045","0.25312657103743796","0.4296832224480843","0.6922810974473408","0.13270230678336076"
"0.010829264544898822","-0.027925134587941484","-0.014053270669865859","0.01498874158253272","-0.04225454121378668","0.24336564518435125","0.5017948024903142","0.6605659316708523","0.11524750556310391"
"0.023233266013570814","-0.030873014593156244","-0.006213986495080819","0.005848204335625829","-0.04270926765424929","0.19762374302647517","0.5562128534263554","0.6373864199115802","0.08271260594778058"
"0.013663804661624002","-0.01717544812776969","-0.0017043018636301098","-0.02596181262921599","-0.009372793644524693","0.13909459116200693","0.6024668035307221","0.6187187994566171","0.07185401987030994"
"0.014583297124760048","-0.027962528414646113","-0.0038889256056838543","-0.06409632426263238","-0.04455689298076051","0.11362930151097797","0.6449034095602104","0.6018585740563043","0.07521259819499417"
"0.014411915283463491","-0.040809385322502396","-0.022479499510458873","-0.018616033185566226","-0.00012557248315935815","0.0403446973375174","0.6724885966706461","0.5952490490754304","0.0689350802654992"
"0.004696105392881405","-0.019523988188301956","-0.05264870316324876","0.015271789964765093","0.025138310559826467","0.018220741031722092","0.6912409511406695","0.595130315093738","0.07363382123069004"
"0.0034213325958215766","-0.007979682910656843","-0.03905521340129208","-0.002437700091867183","-0.00034910642810255396","0.07084577046571068","0.7160397557146976","0.5939033972829173","0.06696242623246078"
"0.0017768371748410805","-0.006782041738700319","-0.009639620264171906","-0.03100276953183069","-0.04359957415873397","0.09884958036595115","0.7435970789997693","0.5874257989483682","0.06632666615056192"
"0.010548121299625816","-0.025298218261941438","-0.007106795006793654","-0.024485917493290026","-0.05143522871702118","0.11447871077218641","0.7787612266092333","0.5782173190348953","0.0639437916019538"
"-0.002564515198227448","-0.0183980185175293","-0.010631147829458353","0.03264171823767847","-0.017801267883351835","0.11361474020935723","0.8115848128881157","0.570829426840705","0.04888003665372279"
"0.007985096234842398","-0.00074491228897914","-0.01879508964486624","0.03380953350178688","-0.02246843647043671","0.1404390846783197","0.8482257432418762","0.5564890003851963","0.03339625512182076"
"0.003938366577710637","-0.003036634507268542","-0.027747957787996314","0.0026115364573026136","-0.030332331933973698","0.12460124228218755","0.893142229728767","0.546752813886424","0.013619050106246968"
"0.0012761711216151717","-0.00023801819364975267","-0.023045378604165362","-0.015584334696961629","-0.053756726860435526","0.1406089665305614","0.9233744802487897","0.5361722968511728","0.004009103367004422"
"-0.019317571594632987","-0.020912753363415467","-0.032543473319333806","-0.015622844680938821","-0.031494277654208404","0.08811062042067304","0.9582042619538854","0.5286920560045553","0.002230936351307845"
"-0.024670847086817774","-0.0318982286753081","-0.035882986073068834","-0.03133491814363399","-0.039961762635033135","0.03487935546254197","0.9621330613302203","0.5304598730653078","0.0013957862180165217"
"-0.02132986400086792","-0.018428141322374695","-0.027510453788812932","-0.011783399278412572","-0.02133975757926742","-0.027724533972123336","0.9616593762990312","0.5326894333881975","0.006981976346372142"
"-0.0189902130213699","-0.00261865462210349","-0.02317548949067452","-0.020165097291048855","0.016706485705122235","-0.06125921160463245","0.9487026975047356","0.5409216561188668","0.014799046967766195"
"-0.021869042827418896","0.003513766762669979","-0.01630439553169095","-0.04222842986118275","-0.037412901271387466","-0.04477824505358532","0.9272475519743969","0.5525839716539814","0.02368171032283137"
"-0.017700035114980046","-0.011970435193967309","-0.004047536972095017","-0.07541633405272857","-0.06538575725100289","-0.053573271232497825","0.9012784667350774","0.5624520847990785","0.03773217156726472"
"0.008114114025481373","-0.015212272225776775","0.0007279456132243996","-0.0709597661569678","-0.05211731837771509","-0.06916599838468128","0.8655849064436956","0.5789429155896818","0.04362888718549382"
"0.012586409827855161","-0.012269585807604327","-0.008814552023530505","-0.03392567731569972","-0.03371525732130998","-0.06581447212831314","0.8384734043644492","0.5878083862227103","0.051166484866001755"
"0.012656695639173404","-0.012102352304841966","-0.015600144542808055","-0.022230195181825885","-0.0300980281522827","-0.040841839848785075","0.818662224530591","0.5960801869472769","0.04886532755157087"
"0.0021898866687524534","-0.017635599939718295","-0.016316787044691826","-0.0026783874917246458","-0.030614740986471527","-0.02591407880394764","0.7972070790002521","0.5954865170388153","0.043264428321063364"
"0.005075456210133335","-0.018121719686878448","-0.012820315126279085","0.023162485681692154","-0.00737486926295531","-0.04350898492897957","0.77750735446785","0.5921223875575321","0.03906252813967006"
"0.007068492229705725","-0.03176838899925037","-0.024084200444071804","0.04573511278992444","0.031296263882512165","-0.09300770290500039","0.7440986278563223","0.5973994534105251","0.03136313033549124"
"0.009620926281824756","-0.05721281063693209","-0.03508373348451258","0.08315430147096446","0.09944539752552628","-0.19792916173307007","0.7015227027000139","0.6044839143181684","0.033438748083592935"
"0.013281565386372682","-0.030280945670332984","-0.005645835623990836","0.057370904448633624","0.0823069973141962","-0.3105656835365158","0.6367950363792643","0.6296950964308428","0.040324242235366535"
"0.021365396507304908","-0.0230088850936915","-0.015959498419833348","0.09582216070026243","0.013325235625724505","-0.3644910372052344","0.5484667099751422","0.6675448512614358","0.03952831637448029"
"0.02300700347028603","0.011432802864346017","-0.015098288266272736","-0.02822234868867728","0.03970152313990516","-0.317482301806356","0.4590238305564569","0.7031650457691392","0.05873840378486411"
"0.01875519329519828","-0.025513232765493044","-0.04075491593457837","-0.06767582727331257","0.02416423865841446","-0.2000551117696946","0.3776057328426256","0.7299065769791815","0.11326994849601488"
"0.009340745855884873","-0.06130743466108875","-0.0007090568444433995","-0.03411245073798911","0.026179394778780323","-0.24533105227570784","0.3164724999938421","0.7436929115201261","0.16717063615931746"
"0.017036560785567017","-0.0268843397446627","-0.006417207308295122","0.0049368655648055326","0.06235168646905303","-0.2748419568936924","0.24998941267515584","0.7617932473958923","0.19699742663400732"
"0.013577150921642592","-0.0210997224969386","-0.020860341811678253","0.03675843552484051","0.09164803572012013","-0.2528786602824457","0.17152488044991648","0.7879015307035756","0.21575970360109986"
"0.012081892497296735","-0.05289174621773075","-0.028799171140903627","0.018968748426575723","0.10214742990069617","-0.20347216388335604","0.10718730768426424","0.8041548935307943","0.23589483010237"
"0.007765573426889496","-0.05096077055540016","-0.011048328767154381","0.00469810366414693","0.05289098321037577","-0.2155192140908951","0.03150915799543254","0.8232182939247318","0.2457499285441442"
"0.013041823372424115","-0.04408653874619957","-0.008505590299375428","-0.023699351070555843","0.06361534731412806","-0.23245886164299479","-0.030069896059176322","0.8364637292157444","0.2751191025074416"
"0.012242683325928906","-0.04874310888833408","-0.005628074455356253","-0.003046735488466506","0.07370309440123268","-0.24171499570656332","-0.0942681496980082","0.8509756603114753","0.2959406537758004"
"0.013374958861685965","-0.05912405066850192","-0.01814040470798683","0.0428343482468423","0.07451442210290017","-0.22269065513909778","-0.16916611227664546","0.8699467120529856","0.2943226525390912"
"0.019354066920403118","-0.06224747391574673","-0.024420836547262164","0.053724008965993345","0.042956407134795385","-0.21667198380253513","-0.2302436174747009","0.8932053798000527","0.282637088051747"
"0.021949827842512856","-0.06186626462684122","-0.027564150345150047","0.04932713154539722","0.06434769621297837","-0.184702646094253","-0.29792484928404256","0.9133769640231186","0.25918424184288125"
"0.017839552109394738","-0.059116779646642685","-0.0351043860061807","0.04530187547018101","0.04522046614888815","-0.06908348434216388","-0.3233366580160803","0.9274139591920804","0.24883883999604356"
"0.002803202583954204","-0.04193327755845813","-0.011795950051540329","0.03022810499190783","0.014076252241604319","0.03785714164397841","-0.3260673129017597","0.9306725473563036","0.2278538542593303"
"-0.0005926612039838658","-0.04587624884097935","-0.010397980859825278","0.007445502196039897","0.009127392591138138","0.15302975681303221","-0.28881337838998977","0.9240894077046946","0.2247976297011018"
"0.0034521428144816293","-0.04474924045279823","-0.0012966210859014166","-0.0011718769185368144","-0.028217614656117076","0.21073619513592998","-0.23693093556207928","0.9102503025052202","0.2243563566365447"
"0.005455769846718406","-0.052817997281729964","-0.007130132356278626","-0.006488372756508337","-0.04183571422915008","0.2936312583790631","-0.15782553535346647","0.886846515447196","0.2170508359011001"
"0.0078878514821966","-0.06969196158219287","0.0058278793139499825","0.0036660360935581297","-0.05113845988219295","0.2755024378612716","-0.06612568608029105","0.8606722688163501","0.21786800824287245"
"0.02781917449725355","-0.05037597265443613","-0.0038379138771635984","0.022254612809429804","-0.06545755616265489","0.2122602780388983","-0.00593982329388585","0.8522421561161938","0.19312402973400647"
"0.030349463704710665","-0.042917981661679976","-0.016512986000538965","0.01324616480756469","-0.07302755474782972","0.22430004759562705","0.05508195425344155","0.8372289037644284","0.1676936264580517"
"0.022048035414491778","-0.04831204116382241","-0.01421849084321082","0.005682900229403724","-0.06853054958136008","0.2246980565065933","0.1251594750440934","0.8147354105660454","0.1478199951061488"
"0.01736873345549576","-0.04066708103754312","-0.02375995585388232","-0.005710759905048847","-0.03751102645064519","0.20263283078400152","0.19167042618814392","0.7988910203424336","0.11859791216437046"
"0.008651367213366117","-0.03324336771926621","-0.028510035837549946","-0.02363869784579176","-0.01089756319830746","0.2300153584817581","0.25556217774797113","0.7727563517054854","0.11952948863399092"
"0.007648109468248032","-0.03350096963656475","-0.011267245496836453","-0.01388219340516965","-0.009894771732234664","0.2543400128391643","0.3227697245261232","0.7452892239406564","0.11426689875297714"
"0.010105224406387513","-0.03150351606009259","-0.007155948008363778","0.012388354914472693","-0.04232155353132854","0.27324543611006064","0.39794632535840163","0.7130595442435012","0.09731711003993557"
"0.025317769869790244","-0.03234176100872131","-0.015558839499471814","0.03452774470296154","-0.025490931321279997","0.25176751621950444","0.47532416839444164","0.6805792039183287","0.06825192418777751"
"0.017389915480824532","-0.023418139752625473","-0.037089093338487054","0.02224017156543836","-0.025127628828320925","0.22930428158594646","0.5433676299335162","0.648283560898011","0.030104684929161848"
"0.01429926542148765","-0.016495088225227172","-0.03778095281436908","-0.03352132248393918","-0.02613975415290848","0.2568882406227896","0.6122748700588773","0.6161330371886508","0.02236933154194502"
"0.01256522780252637","-0.02826998876755082","4.785807469320351e-05","-0.042340108814716615","-0.04832633584249","0.2355389455632164","0.6671666060261076","0.5902358365150872","0.00771416276460014"
"0.011712169873376069","-0.02370794190958633","0.011767441283092992","-0.025863612170074143","-0.0703135558873845","0.20127134908246455","0.7223927078977068","0.5641539385366688","-0.007150202132238448"
"0.006534127499820373","-0.010857968849504657","-7.750273183228607e-05","-0.013963064371521759","-0.04448509406910851","0.1768326311956961","0.775529022867001","0.5433227210819785","-0.02586508310350823"
"0.003106490673889126","0.01354098371656021","-0.00963693543635505","-0.015102959897246703","-0.049355453576168516","0.2110662513059996","0.8288325207884787","0.520512603932416","-0.03758170013983982"
"-0.0012261963251812649","0.006012152196546953","0.004051968975708332","-0.012292693816510967","-0.10592102947266155","0.2541943998229571","0.8943682380447867","0.4978739914230756","-0.06427381751149104"
"0.022301256899104113","-0.06354794811114098","-0.04329930660409077","-0.029154290300925378","-0.05313207632906322","0.12009937319778281","0.9448296257791287","0.4859874005892087","-0.09909679968377691"
"0.0018240153221642842","-0.0515206392385611","-0.07329089857053481","-0.005690157063621049","0.07392567102735387","-0.10769520247309601","0.9512940332635946","0.5024122680566497","-0.07937679673212715"
"-0.004971563531044336","0.01756757175046261","-0.02610814756754758","-0.033031282937829386","0.014176052728800589","-0.05896095283216277","0.9363311590430853","0.5209479618652879","-0.05272390363288101"
"-0.0020734773383328186","0.018036033301678907","0.008097178394843023","-0.10549648253731483","-0.05649944528554156","-0.018410154702071954","0.9314828534297361","0.5358424802353609","-0.02015141408983613"
"-0.022899259513864532","-0.015986116695080863","6.272789029424882e-05","-0.05142942778293384","-0.030043460979427186","-0.015225355349261003","0.9295045218288868","0.5459216760145776","0.0078089547562457335"
"-0.026798677813027885","-0.01485806958949128","-0.012725313526605733","0.011261937883139766","-0.007236776022877982","0.00038630149502939115","0.9247119438662658","0.5519111457577248","0.01822136473510869"
"-0.02707789541963466","-0.007077037482703487","-0.02411104872224036","0.006286640503206185","-0.018142791373109802","-0.02819777627479661","0.9186933575876252","0.5611064330065653","0.016591923085614677"
"-0.022754836613895515","-0.014717842739348931","-0.015354379534957425","-0.028366761128591756","-0.04261592906910171","-0.05431104384794744","0.8965416164231843","0.5703544909139356","0.02247719829105896"
"-0.020290019121091036","-0.008697436639903989","-0.004432499975988779","-0.04566063218315017","-0.028183869167640645","-0.05260251779111675","0.8661979106017053","0.5806315766626396","0.025144448814603832"
"-0.005655165257564347","-0.011577800013568727","0.0028714708371585865","-0.03291671573549723","-0.03700604077202619","-0.0651956168094327","0.8329842307677261","0.5897609005883178","0.04037817560992352"
"0.01618446567574984","-0.018969313092183325","-0.0037827716443097183","-0.001386955179049443","-0.0029080196393794877","-0.08318367807822395","0.7998541424098393","0.6048928869217753","0.04266298947751894"
"0.011282752450801528","-0.0155955589494992","-0.011040067758487133","-0.0025661308884311245","-0.0018128469069811292","-0.07279904313904995","0.7619593399146953","0.6161726151825481","0.04472880115751938"
"0.009699877467141155","-0.013340503455728504","-0.009541933836681697","-0.01567194491050974","-0.022351404244443963","-0.06471994762315597","0.7345691995818082","0.6215816076818659","0.0493016975820773"
"0.0049291076714980675","-0.021237871912264027","-0.00543703862992614","-0.01207896340543754","-0.00508520197037334","-0.08388019367241488","0.6949189760887275","0.6285737199370818","0.04231323971524039"
"0.005635817062013117","-0.027664416518417556","-0.015321335500288436","-0.009214783347133732","0.007810839881146141","-0.12661761392921653","0.6599220114314479","0.6335605471681603","0.05109457369992578"
"0.007626927442919242","-0.045125256154661425","-0.019970218127782276","-0.01580865535362878","0.06868913707086871","-0.2100223227290748","0.6119405041545083","0.6519906996597385","0.07191612496828463"
"0.007327490630316817","-0.05507513021031759","-0.008771594778460816","0.01188291137477202","0.07747253726296219","-0.31898696964049666","0.5340053846111865","0.6779010929979348","0.0950421022404414"
"0.022396576013083664","-0.010607637954065349","-0.011228005705667024","0.08741831944683927","0.04426793392097175","-0.3144244284660056","0.4498009043609475","0.7095107174573632","0.09294523801145364"
"0.023408499132199886","-0.015072045375634424","0.009460410045112297","0.028674227138428047","0.025147883748046735","-0.19192019793092124","0.38298345113789234","0.7339699176859863","0.08026762630119777"
"0.018297854111963066","-0.04454253568851432","-0.02868351701956216","0.016187364833822885","0.07471545905552575","-0.2416907268705288","0.33528058211459344","0.747492398934281","0.10511456852512709"
"0.01450434593944365","-0.03581938689225162","0.007483591976083174","-0.021822952101267064","0.05547335073279236","-0.2637268299898792","0.2720018347127762","0.7641019637065768","0.12461230059981476"
"0.016470423017688484","-0.020053734066617507","-0.005938275330811415","-0.016652986752328763","0.046242403991401476","-0.28755882697578444","0.19782833159360463","0.7873474387890113","0.15937481201880946"
"0.012487239436543096","-0.03339813661312702","0.004337593350378435","-0.06089518184452813","0.0457709244715534","-0.23849694804838506","0.13106660602127762","0.8023870764700415","0.2040251087732493"
"0.005329640514078805","-0.04453526466665508","0.004327060564327694","-0.04433685148393412","0.015828145685912884","-0.2551841997057257","0.057338924107931365","0.8163317229865759","0.25204215557579107"
"0.011009311760193534","-0.05261025380003759","-0.009087784885199736","-0.003494125227321558","0.028730649439481046","-0.2815158868031873","-0.009422801464395326","0.832901709764974","0.27645926514794816"
"0.018575146079903574","-0.05215010198808899","-0.027634368918821654","0.0027699087664088237","0.05381240257657632","-0.2722694602740326","-0.08490590437567845","0.8542606338049636","0.27954817659984754"
