"AccX","AccY","AccZ","GyroX","GyroY","GyroZ","MagX","MagY","MagZ"
"0.0013965235382560092","-0.06402471940162498","0.011271532932798091","0.042349122448729654","0.14212985050263452","-0.16060611879557132","-0.3838847505322184","0.921068287503856","0.3534042128492303"
"0.017556483225455465","-0.062330571308423684","0.016186358081812315","0.04578710126829365","0.04892528999013085","-0.10919987030723667","-0.4420365540670457","0.9405406605014005","0.34078707189226554"
"0.01945516295038143","-0.04478767299691132","0.007400362313760649","0.04544243691169776","-0.09763782836507692","0.03684027741413174","-0.4632409251691078","0.9560156561153027","0.30242900216947266"
"0.020446866863501997","-0.045106559241309116","-0.03514982155385057","-0.0001348993249909222","-0.13739288574678396","0.15932023911318155","-0.41358758837032367","0.9525459853169598","0.2834542603935193"
"0.01798204937069749","-0.051367947779517205","-0.04144471015829358","-0.04747926617647316","-0.15342558271867338","0.2359272469397688","-0.35033670479387025","0.9386277241296905","0.27562574935934037"
"0.030631569769316806","-0.0703068822880023","-0.07441439574928055","-0.04432144749034325","-0.14732985511941943","0.3060569024287409","-0.24568017672639936","0.9136672026450332","0.2818689460504809"
"0.032534100771575265","-0.06168448908036041","-0.04097176741209363","-0.015234856592368591","-0.10127563988877776","0.28113280782128186","-0.14205461019739907","0.8868597081118283","0.2796462372808602"
"0.03752824465250375","-0.049756897078992855","-0.04319604399575017","0.013853659804804923","-0.05290710640588697","0.2643145044493548","-0.048543612275558735","0.8616617186637864","0.2620116581454135"
"0.0240458855307298","-0.04650363415569032","-0.045054770945880986","0.03287277814154163","-0.0034948560772817545","0.27632757828644555","0.04053703741339335","0.8388384088495913","0.25117595289351247"
"0.006177884346563483","-0.04234876452184287","-0.018061925125647974","0.02331941386639922","0.036743407979843164","0.29266050493768203","0.10615634614579315","0.8178884574132087","0.22832781421755824"
"0.013967092751558925","-0.0495761602499205","0.00995309660202697","0.03295076085909545","-0.0013124084927667564","0.29797538002924345","0.19086237525258537","0.7898672377338154","0.2110201040188204"
"0.02119112620800897","-0.04435037296794888","0.018574615687513726","0.058778444363000074","-0.04207265063760165","0.2671539582653944","0.2793300207835281","0.7615821647617727","0.18204317277957377"
"0.0057667604913183585","-0.027676881127319097","-0.02031304998747307","0.05235112803720639","-0.07302755474782972","0.24914648192777553","0.3550081704723595","0.7330200458324474","0.13414053010488006"
"0.007938880906852318","-0.015928987237615457","-0.04439595550466795","-0.005578189285207357","-0.044475520880888256","0.2557961430012359","0.43177300935039015","0.6983761085075479","0.11117798730107772"
"0.005070642113467713","-0.011845789104951886","-0.019482818616414644","-0.04027789917273787","-0.048022387116496576","0.28720001682991353","0.500011517667013","0.6709749440658812","0.09289130463689665"
"0.012713501979827886","-0.01929650907584881","0.003589765540775805","-0.03964633543551189","-0.10253930073385281","0.2990432088147626","0.5781138201625194","0.6329932625889635","0.07698422783195659"
"0.017896358450049204","-0.025996236360427808","0.0042045911108357405","-0.02666654533599864","-0.10828082036895696","0.2760363522540312","0.6513399532193122","0.5990485364895857","0.052635760736508386"
"0.017752898369413326","-0.019594620972077367","-0.01783061688296503","-0.0550147072912106","-0.07314003970941785","0.24395780478359375","0.712584641369552","0.5684415545422257","0.040152636043594356"
"0.0073987392609682024","-0.001555838969765315","-0.009005381323743934","-0.13843214633381004","-0.15912402300678635","0.26945949768867444","0.7840274896030442","0.5349717643696169","0.045964365738279125"
"0.003197958510536177","-0.020670732207243848","0.018512451597292683","-0.10470702786578236","-0.18760425796207583","0.28756404937043145","0.8516251299362931","0.5088239030680363","0.02284982887890715"
"0.020161872340896465","-0.04832450577272396","-0.013576197419332286","0.06501802451690493","-0.04589235273748752","0.21135019668760355","0.9207274168392027","0.4768053060050007","-0.007271143638820748"
"0.009523681529178958","-0.05866182142173639","-0.06153961374137447","0.14318173899541567","0.08620807151395433","0.03057163706641347","0.9595138617459972","0.4644437792443644","-0.03211481717338297"
"-0.005895870090846039","-0.003509043184636997","-0.051618142332009564","0.07766566600461489","0.09202617665482063","-0.03866249837288456","0.9716624896047346","0.46449654990289435","-0.029931332676167315"
"-0.0076963422437930475","0.030115278044681882","-0.016942558451235868","-0.06763346629093765","0.011271786752477581","0.0020749271063117652","0.9791299948023068","0.4601165852449101","0.004860596947131185"
"-0.031497236158686444","0.023569280936555238","0.023200987066389317","-0.1051595201775144","-0.05998408579771815","0.05259560576774652","0.9879349636173551","0.4623461455677996","0.016492228059918453"
"-0.027674843406173225","-0.013632383047506285","-0.012655094952934124","-0.05214089973691249","0.014868912226242294","-0.003874335359192133","0.9891052442826466","0.4625704208665519","0.037588349235112783"
"-0.03300886251169545","-0.009711224830562765","-0.020850015550844193","0.03756233144036444","0.014147572493845299","0.02349824211579029","0.9898018399167483","0.4654859997503305","0.043836448960303996"
"-0.017873342594942852","-0.016004813608433175","-0.01539981508262729","0.007472459184823931","-0.00014400087048336833","-0.006649962136460963","0.9903591164240299","0.46494510050039883","0.048205052299418835"
"-0.01355028378920374","-0.017859962899946055","-0.032223359233477945","-0.030768821379169232","0.015526829586680033","-0.06211104774944434","0.9752290592513362","0.4630321641286888","0.06317564960068783"
"-0.010411492763210515","-7.327761266770178e-05","-0.006711299216849154","-0.028072159751166222","-0.03513208917790925","-0.03135029807568164","0.9535510031180847","0.4685335052804341","0.057207022816382784"
"0.002620266910660119","-0.013480730305870856","-0.00955102094621567","-0.029356467716805647","-0.025028785659946682","-0.07860414871850875","0.9261051351344697","0.46855989060969905","0.06038418888119357"
"0.007800234922882064","-0.020558550727129973","-0.014800891954251808","-0.009881006069939188","0.01323524765645401","-0.13493211715464543","0.8935044594585002","0.4801562428216513","0.07232471113917079"
"0.005363339190738248","-0.009129543081824123","-0.02069099113399967","0.040695118636909174","-0.0463925518219964","-0.11675475896478486","0.8502040748427255","0.4910929618019795","0.07256005677360121"
"0.009437027789197546","0.009604867968934835","-0.007483083951586803","0.04651590271506204","-0.056221822827153864","-0.07301746266336069","0.8229532536366585","0.49245180625912527","0.05702234186714224"
"-0.0029881557048032424","-0.0011856400853895075","-0.013237496063975117","0.02028097613059861","-0.06737698040081809","-0.04424433066082573","0.7980429937611743","0.4999452397703753","0.03747394510726467"
"0.0029187409039294187","-0.011963164172108076","0.00913715677596288","-0.027462739254727125","-0.039784658652958216","-0.0339373559969622","0.7772008523888453","0.4993119918680162","0.039920559098531"
"0.008654255671365489","-0.03636990711873641","0.016620061036842836","-0.04023746368956182","0.00011256057381974281","-0.08960278520935629","0.758086268189089","0.5012117355750938","0.05364251706157188"
"0.0242259327460245","-0.03423534284434728","-0.006102049827639608","0.03691440095994814","0.04656310579678037","-0.13560679079640528","0.7280490644466147","0.5121220692261569","0.06803619068954962"
"0.03350173420136766","-0.04603621132188248","-0.02943526880828173","0.11492503825214953","0.12659495931819886","-0.22081710099723229","0.6920768659015917","0.5299585518092735","0.08107172388550174"
"0.03587700949619136","-0.0468090170737781","-0.03799367378755072","0.1488234516480746","0.1366539868406427","-0.33294155036034956","0.6308879054020803","0.567412526700892","0.0838370350900593"
"0.02826495984849123","-0.03003892451416137","-0.02151709200072447","0.1099283678311086","0.08330500218615887","-0.3889540239280374","0.5620921205781754","0.619312469365079","0.08243149866221089"
"0.019942349532943573","0.0030907698724220553","-0.039846204981181084","-0.004070812237380038","-0.010080730913413318","-0.4083690927556588","0.47437679833206275","0.6679010532065128","0.09204471409082052"
"0.0096729185258136","-0.02110491608398091","-0.01813007844715277","-0.06758051506296901","0.13158019708390206","-0.3660442427114441","0.3828719958364359","0.7096954147622181","0.12933555673525882"
"-0.01900946940803243","-0.010579592584036878","-0.008622277046800306","-0.08020505056029266","0.05808443781986974","-0.2704250287354085","0.3153858108046431","0.7289698977902752","0.19304231249982926"
"-0.006772035683991379","-0.027723623410699883","-0.0017904228789861708","-0.01130009897949879","0.108020580873829","-0.16088763729357183","0.2740637577897178","0.7370570012099871","0.22943916860236863"
"-0.014387936609023998","-0.05670903269382809","-6.180681536451513e-05","0.08853607173177733","0.13141266629004744","-0.15552665141354488","0.2494042723425101","0.747518784263546","0.23635244661376245"
"0.0011221200283148907","-0.056508560233994955","0.01809072710482967","0.10697272656085896","0.13994716358841403","-0.2240230142373933","0.21036705300743885","0.7740888108333661","0.2150079050466693"
"-0.0004559408586798602","-0.05715983604910054","0.03993861672710059","0.05159922060005166","0.10484228238470089","-0.24826758143588556","0.15628336797576678","0.8049728387380082","0.19001877483527166"
"0.017722088150753275","-0.0522695544900621","0.031058032409808936","-0.0038055747227371144","0.011954594402288007","-0.23910124206564476","0.09891175155113348","0.8328093611125468","0.20328965366565419"
"0.021758226795220624","-0.048530171819599406","0.01085823466917567","0.027703775542202765","-0.0643614261114345","-0.2297674477267658","0.02978160082285993","0.8677567297239933","0.18380826503780198"
"0.013021604166428448","-0.044539419536288934","-0.02739273441530465","0.07264877784198592","-0.06829121987585345","-0.1303283189588957","-0.018144178803351455","0.894419104946241","0.14491086156943933"
"0.010473984210975057","-0.054425931830028924","-0.04605228774245118","0.0377577696090487","0.0041194185034118145","0.029338780195859507","-0.02240734408405523","0.9005536940003455","0.10926580402133047"
"0.01669283428364076","-0.0499926859307137","-0.025436940613333674","-0.005275982185946325","0.02318538016289233","0.0830044573190086","-0.007333014562089827","0.8926908658793856","0.09756389608715081"
"0.01014373717971258","-0.0414274221805372","-0.023776477871216818","-0.04126953126015062","0.03827272479803056","0.18634358803762713","0.03538222972103917","0.877176292271586","0.1328493978048798"
"0.003724620685756499","-0.045378703202326114","-0.008602037575565548","-0.039521177987586004","0.05041631405543718","0.29712597076803504","0.0877662214055029","0.8534558812623821","0.15175876579349137"
"0.010777272300909978","-0.05776956316786765","0.0011531810343709918","2.924948171186746e-05","0.01921729364559233","0.35126974396106425","0.16890568086569346","0.8185744759740979","0.16952409250362172"
"0.01611514268376472","-0.058187127566069315","0.002887373278843039","0.04590648221862296","-0.01874087630717088","0.34296980203725613","0.2547541268124129","0.7814635103629239","0.1591786906567841"
"0.016433835883029668","-0.035590869062390014","-0.007471725064669338","0.05335142487101399","-0.027387858567125577","0.2827102821635261","0.33463971413121985","0.7409752226058345","0.12748874724285333"
"0.008506944313397097","-0.028390479986932397","-0.019755431902433826","0.02680264191713642","-0.004839649692523533","0.3144781885327217","0.4035190904312169","0.7068853771954992","0.12153973259475083"
"-0.008235521070344056","-0.03233033511722823","-0.025936731637702184","0.021237949232431882","-0.024468754149061158","0.35869600778762945","0.4702250883528157","0.674299495553267","0.09594752919512514"
"-0.00685868942397279","-0.03532911227545762","-0.0009085602037574399","0.007848701728281117","-0.04312330804477577","0.33449997826120625","0.5411942515551182","0.6308956289123988","0.0780759700805644"
"0.007665440216244307","-0.019270541140637264","0.0034069907240129415","0.016757312596685357","-0.054946195496803504","0.3236518085537728","0.6117733212023236","0.5916870296246602","0.058145136664737404"
"0.014607367608088213","-0.005169536833804127","-0.0044432392872562005","0.03438044401424878","-0.04686642463889953","0.3142840378444455","0.6799561018682186","0.5437844643441154","0.034891680507264114"
"0.01626823095773186","0.0014543640799571564","-0.02533161275282626","-0.013923591637945135","-0.06857123563129619","0.34493557775605277","0.7473586954239195","0.494140467332083","0.011012270335993253"
"0.014023899092213408","-0.005450613764533907","-0.01943325256441115","-0.058974496393665574","-0.0518396959193274","0.32251117326015","0.7994919126801064","0.4499978114717959","-0.015238573971100917"
"0.017919466114044262","-0.012892816252681441","0.009830090182971646","-0.10703688189640259","-0.07256086182209179","0.29782976701303626","0.8517365852377499","0.401053025685285","-0.023773121908571074"
"0.030075060194769545","0.0011721445600780687","0.05154120340025048","-0.13533209262364593","-0.14215794018342104","0.26863435726350054","0.8989936330552231","0.35367816699003957","-0.03613367075021927"
"0.019505229555704016","-0.012585355899776732","0.006649023575474439","-0.054464014520336716","-0.07782611534323773","0.15082857338470063","0.9329874999993962","0.3167782840129854","-0.06332589759503515"
"-0.0061943440841153215","-0.015252782204706791","-0.03564754732605226","-0.021870126831639126","0.02888142715395023","0.13100336122809567","0.9648915800412636","0.29400774485732034","-0.07132764916566975"
"0.010781123578242494","-0.043489276236333994","-0.044439325800171","-0.009603734185303392","-0.008904186081142705","0.07562673116451246","0.9944829625779129","0.2833216865050093","-0.09225379849377545"
"0.002594270788665689","-0.022744012154533724","-0.03660169382711941","-0.01936601512352208","0.038780103773704624","-0.057376197839108176","1.0020897869023058","0.28957500954080606","-0.0863881354245337"
"-0.004259077224530556","0.014640466093417086","-0.007643760570164775","-0.04749948391806118","0.01601745548296863","-0.02569808616324035","1.0064365436591018","0.30165949034416023","-0.06681032046035235"
"0.012168546237278147","0.0016623153051312206","0.000596595575415155","-0.052776314472536195","-0.00501627501518743","-0.018079613155281702","1.0160774272350723","0.3102743003491714","-0.04727009542389251"
"-0.0025260024249023822","0.011666929768213319","0.0015061326296791646","0.008668675562115521","0.013127309959270516","-0.002375006668979067","1.0209257328484214","0.31646166006180587","-0.031023074924775143"
"0.00792540143618854","0.010847589476418605","-0.003828207191979582","0.029130570448557797","-0.005063662296877742","0.004280236236769215","1.0290619698547319","0.32109228534780726","-0.042059804572752164"
"-0.004519038444474755","-0.00237652959419103","-0.03767769020602847","0.015368064924708078","0.04192010950995167","-0.005045549386218395","1.0351641476094646","0.3315012977428361","-0.03240573052705392"
"-0.023351784600434113","-0.011742956081514164","-0.0404162145792212","0.03494461527951467","0.028441060495818023","0.03425564637645464","1.0385913981292458","0.33110551780386166","-0.022987002115786106"
"-0.04966563697478832","-0.007770900711556009","-0.01743202321477031","-0.014953733709335077","-0.005365217725816103","-0.0751191438639507","1.0264984979212366","0.34387601716810495","-0.015903752257303585"
"-0.03896871418375008","0.037086110572869424","0.03611790021849837","-0.049011000789166044","-0.04869490358897021","-0.032551605459390724","1.0075510966736647","0.35030084484412394","0.00010628826269979635"
"-0.02514262856004986","0.024923768437189506","0.028992986768213606","-0.07833827908699817","-0.050027970048642165","-0.1021109433015514","0.9944272349271848","0.3669631802749497","-0.0031329829000856955"
"-0.014522731315661754","-0.004264294612329616","0.005614745290334983","-0.06858562564477377","-0.007268606873710365","-0.12129545818684484","0.9684581496878658","0.39371790414962454","0.01162351524763895"
"0.016334665491717623","-0.0040700544569472474","-0.016872339877564257","-0.02882791818671866","-0.018608048320614697","-0.042950801700185455","0.9496500675671141","0.4054593756725342","0.012303402635993525"
"0.020956198290726043","-0.0008369426513688611","-0.015453511638964405","-0.03365225642946164","-0.027685824050481336","-0.08518343016746896","0.9246004885648097","0.42330905092028337","0.005769292591182001"
"0.0035657554957905955","-0.012580162312734422","0.00545427519697369","-0.04266359268012505","-0.020025598166330493","-0.11076521023146366","0.8960122037412671","0.43892916584514285","0.018126572743463108"
"-0.0025548870048962033","-0.006980436763716533","0.015445758654793525","-0.029669361336620348","-0.021814109055581572","-0.05810911668735088","0.8671731444894482","0.4551297580138316","0.022424899261185537"
"-0.0034791935646978716","-0.004035569038986313","0.020365189316139738","-0.0038726783698173756","0.0059194172185272126","-0.03480375344339481","0.8463031392917549","0.4626759621836117","0.023596724399287054"
"0.002687664263978989","-0.019396225947061148","0.0007570656687764471","-0.013733929966857454","0.02070353111678853","-0.08299438115715466","0.8272164189173625","0.4716073961398026","0.02715959580941439"
"0.012825189022470587","-0.03423326540953036","-0.0190119411223815","-0.01640652285487472","0.05803417858171334","-0.1210236472232581","0.7987674532206404","0.4896945393509363","0.035117220073593275"
"0.008499241758732083","-0.033512395528057834","-0.01947455760774739","0.026492636546120007","0.048307819349923724","-0.1353543949016462","0.7655816372120254","0.5024782313798121","0.05158160841562208"
"0.02537265057177846","-0.035303144340246076","-0.020106524770791872","0.05253308771149862","0.032614970559853726","-0.1966162177036022","0.7310304937605705","0.5232171001820749","0.04980017271055842"
"0.029666824797523795","-0.04909004050276035","-0.04671729894016465","0.08169669857742767","0.07382754584809614","-0.2718568900614456","0.6809313357559612","0.5497211634287327","0.0586762986868894"
"0.02938760719091704","-0.048660011495657136","-0.02558770402151095","0.10023347936485","0.08829502654597218","-0.42419237385017033","0.6109931340921294","0.5924785895026091","0.06984541025423355"
"0.0371161579779255","-0.00124848248860145","-0.004223702981924083","-0.02398047395358936","0.1007808572822533","-0.49964418508151404","0.4951074844029359","0.6592730505368691","0.09567622797765674"
"0.01373601611160851","0.0014224754555173772","-0.04409236343614658","-0.08498125132306414","0.16681670962564385","-0.3969384709833967","0.39156550935002776","0.7052231014518063","0.1798041205631176"
"-0.0025837715848899896","-0.021140232475868614","-0.007003532398453053","-0.07404152762474274","0.07866918579049534","-0.24635034338915796","0.3078347141309781","0.7305002468876433","0.24566821130996697"
"-0.00029515003004769056","-0.029738735183115893","-0.021932207686253685","0.028043626150801495","0.07491649600815133","-0.15989261501615623","0.25645382015962154","0.7405002866790652","0.27596896174288477"
"-0.0056840498375581505","-0.06290602075271155","-0.031254755967243114","0.0625822680303474","0.17870182280110328","-0.15777637251394552","0.22106676194724437","0.7500121978790851","0.28595480775934257"
"-0.0036621292379919565","-0.061538029925767276","-0.020372942300310618","0.07702062377299687","0.179989416616729","-0.22724348877917502","0.16258059250804785","0.7664106800172611","0.29077612457579927"
"0.005891927004624836","-0.04321920971013391","-0.007431865697849864","0.04974400212195034","0.1451095053361921","-0.2388488461708857","0.10710371620817208","0.7949859916112189","0.2986373225036491"
"0.013916063326903205","-0.03513487212007525","0.0052456847281256765","-0.002080712540398594","0.0893169643884855","-0.14922403469537826","0.04797667878560192","0.8236140738637062","0.29533594624288884"
"0.01525534501928253","-0.054849728532681365","0.004879928569383269","0.025821600075317405","0.021907359535486903","-0.10089992838342851","0.02646580560453477","0.8316352139602559","0.30300102280871327"
"0.00542688526672462","-0.06127627313883489","-0.019117268982888916","0.10558636713767998","0.020885421692973572","-0.06484857245413896","0.014540088348710213","0.847110209574158","0.270706371861871"
"0.001990583066795218","-0.04012383183291757","-0.035792114977729106","0.10543232720177119","0.0020575930904721605","-0.021496907957303413","0.010611288972375378","0.8589572224141274","0.2123275797656561"
"-0.00463457676444997","-0.03684563969181194","-0.02737414714580334","0.008720375215604904","0.015085505609725798","0.06092224341119267","0.032177889804170426","0.8610020854321623","0.2072611112466677"
"-0.002323810364945773","-0.03485753457201594","-0.017405174936601757","-0.040811262450822006","-0.04098609377460153","0.1442347306341197","0.043323419949801","0.8595508923225891","0.198157811359324"
"-0.00044438702668234896","-0.03580796100075854","-0.01209541161572807","-0.014921000222954459","-0.025436124818718975","0.2451421239820786","0.09813156444093948","0.8372552890936934","0.21577604704793532"
"0.0045824927115724395","-0.04511486898057681","-0.02862775521105823","0.03236059535464495","-0.051892348454538856","0.3060811712647754","0.1689614085164217","0.8124530795846259","0.20118134902388163"
"0.01869742413521067","-0.0583782515692263","-0.028495579072382263","0.01744375306107884","-0.05737539200769584","0.2690954651481566","0.25104823803899057","0.7740756181687337","0.19317306007451282"
"0.028680897800401995","-0.03856160085059093","-0.02956951019912451","-0.010682013736664825","-0.07375751034962497","0.19615790532998978","0.31232079001459473","0.749867078568128","0.18815562189603074"
"0.02184102925786953","-0.03029652643145991","-0.03316924472587785","-0.02173534188771895","-0.04368573285271637","0.22239979773412358","0.3592156081023353","0.7354738814540892","0.1622022283213417"
"0.01482785323537424","-0.041122039262449415","-0.03409860820094326","0.016481003461648987","-0.005076586100975101","0.2664258931843586","0.4241940488513615","0.7037982936714983","0.15546872822513774"
"0.006469618604500877","-0.03798926755852845","-0.02713251264228634","0.020236689649024836","0.005760741623776314","0.24635556578380496","0.4845470945899507","0.6712651826877959","0.1443061540365278"
"0.010981389999532855","-0.014048908728299492","-0.019280423904067066","-0.01239859627244825","0.003738884271656267","0.23748045244597854","0.5423088045696812","0.638639723051666","0.14484548778209752"
"0.006799865635763354","-0.014581770758840427","-0.012954556517121869","-0.006575982970056455","-0.02303636586160395","0.2779293214647243","0.6058661902251394","0.5968321688313285","0.14527041739981914"
"0.011266384522138377","-0.019110578659734135","-0.009422149211006602","-0.005916884594286778","-0.0539577638130611","0.2774439447440338","0.6643523596643357","0.5620167268662065","0.10980513776690025"
"0.02229162870577285","-0.0263151226048256","-0.0036611282916844917","-0.03724523793453385","-0.0724675232369442","0.2499473535169149","0.7271295582095999","0.5182302729509964","0.09156421675385838"
"0.030579577525327962","-0.03132797281806254","-0.0010731608014523581","-0.041695066583098614","-0.061099362225379074","0.15909453893806044","0.7721574999979476","0.487253896393927","0.07096166767309454"
"0.016447315353693447","-0.02127422702156019","-0.029612880494627562","-0.04421939603280368","-0.015990260001783132","0.12575886576103446","0.8096343451126302","0.4599846585985853","0.06186490516448502"
"0.008147812702140817","-0.02933155795899884","-0.012983470047457235","-0.060691078929449","-0.03053911279953143","0.14342657839416997","0.8464424584185753","0.43225367754110666","0.07102050408170214"
"0.005851488592633504","-0.020779797535132347","-0.015490686177967021","-0.00961432443089712","-0.026563846391066234","0.08213320610536909","0.8736375519739136","0.4220161697863","0.06068654264764933"
"0.009250240838570947","-0.010212925338849842","-0.03351620708990227","-0.005354927653099574","-0.01677597942496141","0.05556125753116571","0.8970431652797376","0.4101559642816981","0.055316086017521617"
"-0.006001780217489975","0.01345321209554518","-0.033633926463410554","-0.021473473996674024","-0.031463164792492546","0.07393033952569904","0.9176345322237904","0.4041796872031834","0.05258346170663495"
"0.008722615844017484","0.01676360447631313","-0.016727772225887415","-0.07240870430410971","-0.08179180856348267","0.09612661696287725","0.9388389033258522","0.39249098633880375","0.0443414614675193"
"-0.004990819917706877","0.010854341139573606","-0.014788500441250936","-0.0759843563163922","-0.09066854734072374","0.07825261922344827","0.9667863201660212","0.38605296599815214","0.0380639435380243"
"0.017048114617564544","-0.003884435656055113","-0.03628571024559718","-0.04858450271661862","-0.06885364468379403","0.06942847044129431","0.9936191839916265","0.38857276494295634","0.01873618331042526"
