"AccX","AccY","AccZ","GyroX","GyroY","GyroZ","MagX","MagY","MagZ"
"0.030673933819974377","-0.03586405174081548","-0.0303584365268467","0.0063202404642262846","-0.07469807609226603","0.28409360581749415","0.42257794698024503","0.6832309295094577","0.23980091389604166"
"0.018341180981953774","-0.03525847949168221","-0.03080246574271128","-0.025290776158413384","-0.06907861460697026","0.2644843863015965","0.49246042099334864","0.6509220938245075","0.2249774076162917"
"0.023458565737522478","-0.03839436734782857","-0.02723990575496056","-0.0064839441083509594","-0.06478743298723631","0.22570764008562963","0.5477701143410404","0.62032830454178","0.20784947533274375"
"0.02317934813091572","-0.03171541441141881","-0.029220482582933277","0.015458563387054487","-0.04213966295514351","0.18994265642154745","0.6023274844039017","0.5958295263192597","0.20111597523653982"
"0.010925546478211513","-0.02762390653948754","-0.026556307287745783","0.010019894624915317","-0.03840372625218494","0.18201402768906758","0.6475504729697976","0.5778479244251857","0.18415147742134635"
"0.007625964623586117","-0.0170580730606135","-0.02415028851340979","-0.016225525930181908","-0.040045528031960445","0.16485353372905365","0.6937208315980725","0.5546684126659136","0.18534454904033393"
"0.006627520975133673","-0.0077303907326259965","-0.030308870474843215","-0.03319206212093417","-0.045803800746450074","0.15240847461054832","0.7364360758812015","0.5388372151069344","0.18742016678843565"
"-0.00031055513937773403","-0.012633136900565977","-0.04617000711595947","-0.04226020059796393","-0.03272443234051251","0.16405023525631085","0.7766157120561996","0.5240746233831863","0.18764897504413192"
"-0.0023045539782832318","0.00210543215158105","-0.03783051886637256","-0.05186459060187613","-0.03569690728290491","0.1695859567557864","0.822702479208382","0.4986391659717596","0.20845418286565529"
"-0.008197008297018974","0.016247361924307584","-0.03195074594745876","-0.08456149249771272","-0.03277708487572397","0.22144845936157015","0.8675911018699093","0.4822670691628485","0.2158414208352771"
"-0.009853057549996998","0.014870022640687158","-0.03819193799556467","-0.1213144584559473","-0.02435914114393912","0.2401912814310352","0.9295045218288868","0.4492722149170093","0.2472208387593344"
"-0.04431236148260357","-0.06534077435814614","-0.04218407043401228","-0.07946084511993337","-0.019981561500517272","0.18072049872842727","0.9827244282742726","0.4166203699516146","0.2725041510137701"
"-0.055664001420167995","-0.047504957737447555","-0.0026900467228494823","0.012437455144043616","-0.06349505257750047","0.019954021301307998","0.9969628430353156","0.40479974244091005","0.26096567754794486"
"-0.026490575626427322","0.032027556793660164","-0.03931956567864402","0.07516444254529613","-0.04113208489496058","0.0032808455688674017","0.998021668399151","0.40284722807530265","0.23929426704414283"
"-0.012337131429464018","0.04632446320372921","-0.04659957956665636","0.02388454788126454","-0.007731231194454689","0.11406128679239254","1.004708986486529","0.39510313393603524","0.2162990373466696"
"-0.017911855368267934","-0.025509077895859197","0.0008025012164463122","0.05338319560779518","-0.034184343544102984","0.07498603389320095","1.0034829781705095","0.38057801017567183","0.20343674468717324"
"0.002462364540027323","-0.04840968060021783","-0.0078401660512286","0.09040669420346951","-0.010248501036973468","-0.07829108073366337","0.9863188617462388","0.38523502079093824","0.17861104894413"
"0.02774503740860279","-0.057615832991415296","-0.05264663791108194","0.1144629184444232","0.05396557358810056","-0.2591642888153881","0.9399534563404152","0.42272857367645406","0.14347263824792003"
"0.018327701511289995","-0.038481619610139364","-0.051188569881312665","0.08597708329649278","0.03250727219237574","-0.3990983973904696","0.8648604469842295","0.4688897072255111","0.13525188448969042"
"0.008887257949982168","-0.000496762700097602","-0.002104134683124914","-0.0054247269990582376","-0.010091022090750103","-0.4395545470600257","0.7746931081060784","0.523955889401494","0.1252170081327263"
"0.025541143955075646","-0.0005542037727855431","-0.017239954763256796","-0.061730848496833246","-0.02773608328863773","-0.42195964093499383","0.6836062629909126","0.5698267843286363","0.14746043927576896"
"0.029896938618141092","-0.020309258549099124","-0.04835710916061339","-0.027477180498718574","0.05369752431793314","-0.3661170492195477","0.5976742255681008","0.6105525400491105","0.17936284749856055"
"0.020851250983415223","-0.0398994688726898","-0.04616587661162584","0.03434193403027158","0.10835324916448322","-0.3780815853845694","0.5022406236961392","0.6512519104403197","0.2104317399327443"
"0.0009545894643508325","-0.03281022255993761","-0.04947234533069187","0.07905780192539044","0.09768632419005252","-0.36021972206315767","0.4105129105975998","0.6902758124232035","0.2290796127719888"
"-0.0012454527118438065","-0.016526249747481028","-0.03634973306276835","0.03816693818880638","0.12415379632203119","-0.3479154221936526","0.30652511433886664","0.737597900459919","0.2354535570378129"
"0.0012588403736188791","-0.03068812289445003","-0.021058606019692203","-0.008541821377132266","0.09948369027840732","-0.3146671168263509","0.21320916319457503","0.7721231038031262","0.2702160684568076"
"0.002535538809344957","-0.04575887377382316","-0.015230464404948704","0.020695921207952876","0.07491649600815133","-0.28010829431318474","0.13223688668656877","0.8057643986159571","0.2865758587390896"
"0.006726691366445737","-0.041596733118116486","-0.01166170866069755","0.07260737960921045","0.07048889645627861","-0.25593653362279606","0.05711601350501884","0.8396563540568052","0.2693988961150353"
"0.002375710800045929","-0.05530053188795381","-0.016676140921717115","0.07089946181982189","0.054367647493351705","-0.24807343074760937","-0.008921252607842376","0.872690786296542","0.2555233097517412"
"0.009005684727956757","-0.056794207521321964","-0.024930953832464728","0.0773373683912093","0.03706889637933219","-0.23468674079096435","-0.08590900208878528","0.9095247059504336","0.21847271577578398"
"0.01887650853117225","-0.022265163429232807","-0.007413691478781919","0.07346326400310357","0.0022816056948263717","-0.18806630676863836","-0.15074812371099108","0.9412530643915545","0.19013317896311976"
"0.03092908094325297","0.03404266856607618","-0.025808686003359834","0.03166934114225432","-0.002256085521579416","-0.006716458747195566","-0.18036737007300424","0.960342850114757","0.1559590316302011"
"0.001273282663615781","-0.06543737507713311","-0.029885493780646748","-0.051872292598671564","-0.0038045487162073404","0.11429184073472055","-0.16259024949072365","0.9452504417751969","0.16279059240741778"
"0.011053601449517364","-0.042863968356439956","-0.00904214281231319","-0.06128798368109551","-0.043999254766930056","0.17189877682987678","-0.11240750001002199","0.927268839881123","0.2026195723454009"
"0.02147612073061449","-0.01495259287366131","-0.02564140057784806","-0.07638389740015558","-0.0866190887235515","0.2916169449881974","-0.051190675685146014","0.8996829781346015","0.21497521815299847"
"0.01156774697340705","-0.06369129111350873","-0.0811946186129244","-0.06388644484995668","-0.05590351431883005","0.3463431702460553","0.04764231288123267","0.855804175566964","0.24271004743275115"
"0.01767394718409693","-0.047676346109843754","-0.027652956188322964","-0.04461701161736821","-0.015778931871820775","0.33192748164154645","0.13739169437892296","0.8160678696939262","0.24973772957199314"
"0.0432088787179516","-0.054690804769186696","0.005021398342809892","-0.032625002606869985","-0.051387362775919855","0.3361745279475886","0.21605127338171057","0.7763051784916233","0.25215655970363926"
"0.0362958359061015","-0.04361080617312404","-0.009982865174296064","0.012548171347978048","-0.06323418319849824","0.28868041582801973","0.30875422036799277","0.7363050193259356","0.2469430001631318"
"0.015808966135830407","-0.03919729590456959","-0.034156435261613986","0.0007698927485532519","-0.03720707772465177","0.28982105112164247","0.38225899167842653","0.7026637245131048","0.22496106416945624"
"0.01653974600967362","-0.03853563291537939","-0.014992960405765325","-0.022696165987949934","-0.03461274371695985","0.23860652643798058","0.4508318658994183","0.666212392133555","0.2253696503403424"
"0.023623207843487155","-0.03442127326046196","0.007506309749918106","-0.024940335304220917","-0.04928604796157161","0.1958545448795582","0.513079651762765","0.6378217778444522","0.2250100945099626"
"0.010348817697668579","-0.02855563605487783","-0.02426800788691807","-0.02053671863642878","-0.06821702766714638","0.18530245497174594","0.5667732432393403","0.6103546500796233","0.21371677274666906"
"0.009056714152612475","-0.01529952448808757","-0.0571096478435627","-0.023040830344545824","-0.058981294331645354","0.1748425866408649","0.6243677702668861","0.5822938524063325","0.2152367133023656"
"0.009053825694613103","-0.015284982444369107","-0.06575066290950417","-0.03263751835166258","-0.039487889818129986","0.18842100040218263","0.6732409199554764","0.558283202775214","0.20794753601375648"
"0.004750986094869622","-0.005214097810627141","-0.043631812202947505","-0.011142208045192293","-0.021516622231636823","0.19701459524200857","0.7254855925131195","0.52892952396794","0.21423976304540338"
"-0.0005772560946538394","-0.0038976273671425792","-0.026845442591099465","-0.028090451993555393","-0.02063325628861184","0.22616146731947523","0.773801465694428","0.5029267819773164","0.21708352279477106"
"-0.006897202197297857","0.01451374256958474","-0.02049479217815253","-0.07366605528096509","-0.027799505660596985","0.23018281345039635","0.8194145478154211","0.4786390863889157","0.2224768602504684"
"-0.008842097250213902","0.015487020781313504","-0.038768143350105214","-0.11244753464519835","-0.038195509408394175","0.2523256994482986","0.8839471673586216","0.43619828426621887","0.24885518344287905"
"-0.007340099090536175","0.01753017792375798","-0.057526828781258726","-0.12285485781503504","-0.02933648102936059","0.27086709017867705","0.9467522297292504","0.40598708225783353","0.25844878673528615"
"-0.051918634214304926","-0.07963352589858134","-0.05626909021167022","-0.08013188159073598","-0.029544697873151365","0.19283064790965615","0.9959318814968451","0.36644866635428286","0.2855789084821273"
"-0.04891463789494946","-0.02443504409550963","0.008942465454197511","0.0049333996662475855","-0.09285841414610944","0.016632103024901975","1.0122600831601936","0.3514617993317825","0.27502104182642884"
"-0.0279251764327862","0.03918328102055392","-0.04442486903500332","0.05022345142246641","-0.04367615966449609","0.06884116460925878","1.0202570010396836","0.34819001850292675","0.24295519913528282"
"-0.007734855017118131","0.040175256145635","-0.04877842060264304","0.015731984273292567","-0.028965998645236322","0.1725297665667745","1.039009355509707","0.3185856790676355","0.2363197597200916"
"-0.009679750070034175","-0.016380829310296368","-0.006256737214933828","0.03604985181966014","-0.05733949255186984","0.1286128808786948","1.0542230041584928","0.2952214700035087","0.21518768296185925"
"-0.003979859617923798","-0.0622537062201975","-0.015554708995138191","0.10454659757029575","-0.008948222746955925","-0.022748937208324653","1.0439691164245128","0.2843770996756079","0.19701377008084273"
"0.026570397822188143","-0.06712736830070055","-0.06786135062398603","0.18639956851382167","0.060604579618854605","-0.21915711261247064","1.0074396413722086","0.30708167550811066","0.17117478063400182"
"0.015232237355287474","-0.032398890466186714","-0.059137725471372096","0.14119847482059017","0.04411236961239244","-0.4032726371884082","0.9384209459453912","0.3592850494588447","0.15589365784285936"
"0.005808161722642798","0.020823950825990544","-0.02663478687008464","0.02071517619994147","0.052599000969657694","-0.41822224018567666","0.8548851975038904","0.41415334166534035","0.18049054533020634"
"0.022387910639085525","0.016248400641716048","-0.0316141098442684","-0.04515807689224779","0.06987381911312654","-0.3766011863864632","0.7770058056112967","0.4614358517081584","0.21240929699983335"
"0.02233591839509668","-0.016651934553904915","-0.03225433801598013","-0.03421835319392639","0.06078168360092952","-0.343328612183127","0.6939994698517132","0.5045626723917442","0.2561770476251591"
"0.018232382397310464","-0.016893955710076528","-0.015123071292274482","0.0098787555336389","0.09102338518874782","-0.3323833671315554","0.6169281288946779","0.5437448863502179","0.2898282046593434"
"0.0024132607540378703","-0.02929208669747729","-0.024249420617416764","0.0723127782317849","0.07829822474696006","-0.35987995835867426","0.5318598700581525","0.592557745490404","0.29804895841757295"
"-0.005963267444164891","-0.026881223592437314","-0.0472232857210336","0.07903277043580527","0.06655192280069445","-0.36429688651695813","0.45303310810318054","0.641779577234197","0.3022165373606118"
"-0.005298922104307456","-0.022313983147430515","-0.04300810604857028","0.020769090177509542","0.061736609125900975","-0.3738588079145617","0.3622527650670195","0.6985871911416677","0.2938813794745341"
"0.004867487234177962","-0.027982264045406883","-0.025697162386351988","-0.007804258909009058","0.07573739689803907","-0.3429645796426091","0.2729213409497906","0.7427166543373224","0.3146702438492221"
"0.00682297329975841","-0.02482456312368283","-0.018047468360480292","0.03741021700365452","0.048860670969644054","-0.29144184074130874","0.18567970373486753","0.7832577127529416","0.3215018046264387"
"0.004433255714937798","-0.030160454450951408","-0.02124860921903891","0.08327368242129375","0.045189353287172294","-0.24012781382990528","0.10702012473207993","0.8239438904795183","0.2869844449099757"
"-0.0008218122052680296","-0.06667864238024503","-0.023795065140718122","0.05415820903533621","0.019583468095017487","-0.2437535779334636","0.05661446464846558","0.8564901941278532","0.27801189259731557"
"0.0035628670377912046","-0.03053023784836383","-0.029614945746794376","0.06663640659354651","-0.021992888345595023","-0.246398881061227","-0.03419374221305942","0.8994191248419519","0.23968650976819353"
"0.020449755321501367","0.021685047557605423","-0.029032544635753388","0.032517523539352014","-0.04693822355055151","-0.0784536819350947","-0.0865498700721589","0.9259099954239771","0.21412535891755521"
"0.010063823175063057","-0.025291985957490666","-0.0259573841593703","-0.047255908269405435","-0.020599989459546414","0.0909646355383334","-0.08529599793077561","0.9238255544120448","0.21155943776439015"
"-0.001110658005206067","-0.06579988745268629","-0.037380293894007544","-0.06593998974554055","-0.06187000387711044","0.1331098961958926","-0.06423094595553382","0.9051579339570818","0.22865468315426712"
"0.017506416620132872","-0.016325777287647888","-0.027644695179655718","-0.0764849861080957","-0.1062656642485911","0.24105282511026088","-0.0030419854560221004","0.8792211552896209","0.25612801728465273"
"0.014426357573460395","-0.0401529159203545","-0.06013317701577548","-0.08068449986080871","-0.1038268945494785","0.319283418067558","0.07319344074009107","0.8441814380257467","0.2610473947821221"
"0.00930704717922543","-0.049976066452178315","-0.01932792470390374","-0.06747750085583001","-0.11056881235360039","0.27620623410627293","0.15929266111508725","0.8056192793049999","0.27521716318845424"
"0.03701698758661343","-0.03939672964699426","-0.025519550700006156","-0.07308744277170776","-0.1551391834101009","0.2795796023150722","0.23608536381848158","0.7722418377848185","0.2673559652606045"
"0.024307772389340274","-0.04004904417950832","-0.05931327190555112","-0.034573607796116006","-0.15172634180957628","0.26589197879159904","0.3082805353368035","0.744101884123733","0.23906545878844657"
"0.03166563773309494","-0.039621092607222026","-0.058889895211354654","-0.017027496346506972","-0.07529879365308768","0.2855254671435312","0.3903116372086445","0.7113181125120135","0.22514084208464616"
"0.03642196523874111","-0.049159634569127295","-0.03207259582530067","0.0040088712259151","-0.04190033324963687","0.2541943998229571","0.44835198544201565","0.68908847260628","0.19600047637704507"
"0.02779125273659288","-0.03679785869102269","-0.020746752942503593","0.013346290765905393","-0.032738792122842905","0.2123622071502433","0.5022127598707752","0.6660013094994354","0.18702792406438495"
"0.014528416422771832","-0.03239265816173594","-0.01657494356554333","-0.009232112839923468","-0.0476155266171353","0.2037686123104174","0.5596122401207728","0.6476766983249167","0.1801963632871683"
"0.012011606685978492","-0.028112103721464624","-0.016335374314193133","-0.026317067231405603","-0.0450977781152055","0.16528309212686476","0.6082624792064499","0.6292861238272359","0.17539138991754702"
"0.01554419081922055","-0.025782260574284666","-0.02776654505749762","-0.035242718767719755","-0.05288796002944645","0.14548457568989784","0.6545721569615451","0.6090221909517424","0.18728941921375208"
"0.003149817543879832","-0.012021332346981942","-0.05144259589783054","-0.035262936509307785","-0.05155728686682956","0.1851301462359008","0.7068168295191884","0.5932569567159256","0.18777972261881548"
"0.003728471963089014","-0.012341257308788194","-0.047256329755702584","-0.040269234426343004","-0.05196654066324591","0.1781285870399398","0.7568045322223415","0.5687317931641402","0.20688521196945245"
"-0.004673089537775054","0.009870052523315147","-0.03370827554141579","-0.06403759653706716","-0.03070784024191361","0.2520344734158842","0.8152349740108098","0.5402356375579777","0.22074445488591105"
"-0.01065219759649219","0.00941904142456101","-0.024823560719790506","-0.08579958848257951","-0.04585405998460646","0.2857196178318074","0.8868728690218496","0.5024650387151797","0.23638513350743337"
"-0.007195676190567156","0.0061506132270949185","-0.0294992916254529","-0.09312707568384011","-0.04330998521507095","0.34195051092380596","0.9643900311847107","0.446857957289265","0.26464295308592034"
"-0.07020257335038202","-0.06296003405795157","-0.042338964346523185","-0.029557682383086488","-0.04997053091932057","0.2465739853081157","1.0260805405407756","0.39991845652689145","0.2765736692757963"
"-0.045294437202392845","-0.013116140495500741","0.004196743152601855","0.058596484688707824","-0.08229440094504661","0.09182860610116254","1.0538607744287598","0.37060435571351485","0.2584651301821216"
"-0.029157585179188428","0.03591755348834983","-0.037080832329819804","0.06974416230050606","-0.05924216371064758","0.0855332700338063","1.0606874116429588","0.3569631404835278","0.22353918429477238"
"-0.013386604502572197","0.013617537189563848","-0.021661659652401313","0.04285841698682804","-0.02189308785839876","0.08404316350128635","1.0591827650732988","0.3438892098327374","0.20294644128210979"
"-0.011846093569569388","-0.02421171985269033","-0.003908752026485251","0.0606635080786837","-0.027186342955088993","-0.015740097361553317","1.044080571725969","0.33826913469929976","0.19201267534919614"
"0.01826608107396989","-0.03586924532785779","-0.03605440200291423","0.10448883259432994","0.021337754836381114","-0.1626495547896785","1.0099752494803393","0.36206870169629857","0.15894988240108782"
"0.021124691674023224","-0.04749145441113754","-0.054067531401848605","0.1421419694280314","0.07852798126424645","-0.3113422862896207","0.9545262370058276","0.399549061917182","0.14692110553019924"
"0.005438439098722131","-0.026631931414406465","-0.04495770409404082","0.09555740456041922","0.03359861564948599","-0.4387294066348518","0.8675911018699093","0.4567920337575245","0.13031616354538558"
"0.013573299644310076","0.002767095140771255","-0.0182725808466628","0.005052106691857286","0.013260616605237715","-0.4232944269168928","0.7682565644469767","0.5133357943723453","0.12819151545677757"
"0.02403722015673166","0.008315092562847744","-0.02604205949820959","-0.06061790995989232","0.041867456974740196","-0.41754271277670996","0.6785350467746509","0.5589164506775731","0.1700307393555206"
"0.026085136878292267","-0.017445514653969776","-0.03335718267305774","-0.04640772587230774","0.0777621262066252","-0.36667523244834177","0.581568934507665","0.601489179446595","0.20716305056565498"
"0.011051675810851114","-0.04144819652870644","-0.020298593222305386","0.0346683061444783","0.0832523496509474","-0.3704611708697279","0.4981725051929843","0.6379668971554096","0.2464853836517393"
"-0.0030844376381159158","-0.0348367602238467","-0.032657062188508466","0.06611459631065553","0.07431817174438475","-0.3865999468326883","0.39903301454760026","0.6847876639360906","0.25272858034287987"
"0.0011288597636467793","-0.01559452023209074","-0.043202239752250605","0.04848953939389324","0.07046975007983806","-0.35541449252832136","0.30697093554469196","0.7310543388022075","0.24066711657832035"
"0.001117305931649251","-0.028591991164173998","-0.021669920661068563","-0.010211229182543627","0.08293882773673371","-0.3474785831450311","0.21936706860003571","0.768429157706031","0.27350110127073235"
"0.004556496589578026","-0.044756511474657465","-0.017312238589095214","0.00176932310772138","0.03954835212838092","-0.32306413409429713","0.12499229209190908","0.8062789125366239","0.2828985832011141"
"0.008295124060109208","-0.04918040891729653","-0.028001983804514192","0.054894712478900036","0.02584193989401597","-0.3136478257129008","0.04516243242383002","0.8435613827880202","0.2824899970302279"
"0.013708094350947832","-0.04875453477982716","-0.02055055398665645","0.0761859198702912","0.009817140802408258","-0.2862968475019891","-0.03689653327337491","0.8854085150022553","0.25359478302515853"
"0.01738317574549266","-0.05110307484035943","-0.019658365050593662","0.07087924407823386","0.015600543135976077","-0.250912884563649","-0.11873258836766731","0.920659314900249","0.21342259070363104"
"0.010381553554994882","-0.01182605347419111","-0.006431251023029442","0.07184006817846486","0.017802855086048126","-0.20761970796165663","-0.18270793140358665","0.9514905721463612","0.18885839010995492"
"0.016918134007592428","0.03231632023321256","-0.06289648441496996","-0.004413936194616837","0.003043392147453988","0.05384302393992121","-0.2070330509464254","0.9656199159677501","0.16279059240741778"
"-0.012885938449346272","-0.0766118969573658","-0.03323533279521583","-0.045444013523278454","0.0077787697006082525","0.14896472677724895","-0.17418160084217926","0.9463850109335903","0.19572263778084248"
"0.008190176752798397","-0.030130331646106012","-0.005374254964055056","-0.05506380752078152","-0.02981801239683994","0.21214621450953602","-0.12366448545710866","0.9267939039543536","0.21428879338590973"
"0.021919017623852795","-0.00937468039022112","-0.021430351409718367","-0.07381239322007843","-0.08216994949818315","0.33071403983982006","-0.052611730778713936","0.8934428477634373","0.22607241855426663"
"0.0021273034120992233","-0.07148894269883191","-0.03297304577003071","-0.06996620857035618","-0.06156366185406193","0.30081483384528307","0.05079092514737351","0.8518595688418517","0.2547224808568043"
"0.03680901861065806","-0.03692977580189735","-0.015792212994321573","-0.06410306350982839","-0.08703552241113302","0.3028048784001143","0.12334832639542863","0.8189570632484398","0.25488591532515875"
"0.03613600789680246","-0.05119759812452946","-0.0197513013981002","-0.045332334569744594","-0.12680972616928057","0.27829335400524224","0.20638252598037612","0.7822286849116079","0.25403605608971563"
"0.02358950916682772","-0.04287020066089073","-0.04176275899198263","-0.025224346436052723","-0.1016011282882668","0.28023486088800437","0.28420619022224153","0.7522813361958722","0.23424414197198984"
"0.029214299710954215","-0.04398682187498723","-0.040484367900725994","-0.0251752462064818","-0.07068930352502992","0.2623729975665926","0.3586304677696896","0.7226638040959487","0.2174594220719863"
"0.02922007662695298","-0.04416859742146806","-0.025364656787495252","-0.015246409587561748","-0.05643721956210984","0.24178331707490017","0.4275655717204146","0.695209868995752","0.21391289410869443"
"0.0229482714909653","-0.04321089997086622","-0.022345258119616088","-0.006012485629510162","-0.051049907891155495","0.204736938868195","0.4894511278540281","0.671489457986548","0.19982484293653957"
"0.01799167756402877","-0.029290009262660368","-0.02600075445487335","-0.010496203063974864","-0.044296023601758286","0.19958466497806496","0.5498877650687098","0.6459220739287965","0.19784728586945052"
"0.009773051736458788","-0.027468098928218262","-0.023664954254208965","-0.0186150704359668","-0.04130200898587028","0.18943058398121893","0.6084017983332703","0.6212385984014215","0.19536308195046265"
"0.008846819537990836","-0.017356184956842057","-0.03460046447747857","-0.022910859148622793","-0.054187520330347475","0.17927164921716604","0.6613987941757438","0.5977820406848672","0.1883517432580561"
"-0.001303221871831414","0.0007312090201860091","-0.05354089209931154","-0.03288398224911662","-0.03794899981172233","0.1979780680325793","0.7156217983342364","0.5708953901638674","0.19593510258970326"
"0.0007129218117360157","-0.0033249824598575546","-0.04731828732070695","-0.04748119167567202","-0.019265247691935914","0.21749263908794228","0.7719624532203987","0.5454203547585433","0.20309353230362887"
