"AccX","AccY","AccZ","GyroX","GyroY","GyroZ","MagX","MagY","MagZ"
"-0.00921759679013335","0.01702120639361167","-0.04499074812870981","-0.05083059753208846","-0.000666936277015365","0.06363064551264587","0.4101506808678666","-0.5971567510668869","0.30144839535934587"
"-0.005481857777601524","0.04142171703578923","-0.006604732205041652","-0.04696612063997705","-0.012009967669502297","0.1673338087717823","0.44096807172053526","-0.6246898421548783","0.28366672520238"
"0.020867618912078383","0.003238693618561109","-0.02460257873794162","-0.005082758341340755","-0.03184848561835822","0.19568223614371302","0.45392475051483094","-0.6667216716739681","0.2710986145859217"
"0.02231955046643352","0.030048800130540322","-0.025527811708673402","-0.01103149184125786","0.011976134075783606","0.18712261767433547","0.4515284615335201","-0.7030146920779281","0.25916789839604576"
"0.019828736851634613","0.07563602975311444","0.002470605391580375","-0.0385112536577841","-0.0017128070900793565","0.2983879502418304","0.43547889812381246","-0.7454686868652575","0.24926376961376523"
"0.015178319472632382","0.05042116466270278","-0.0204555523869831","0.0004614277768959275","-0.06264064552884178","0.37000528537971894","0.3766026351295188","-0.8080414952171231","0.2140599851302134"
"0.024395388948654808","0.01697030924059704","-0.026649243635252326","0.027102057042559104","-0.028531615229741784","0.34117390817070115","0.3194817931331623","-0.8576327215706255","0.20412316945426198"
"0.02027741066087168","0.041673086648637","8.379346239573179e-05","0.002945995668144544","-0.03513448247496431","0.3215646886548035","0.2600203898062235","-0.9051790849060931","0.18975727968590447"
"0.008262388202782908","0.04039338680141199","-0.008334793945180075","-0.020917967477803","-0.015940958082448765","0.35316271317175735","0.17957752598013443","-0.9575539634970496","0.15175876579349137"
"0.00847035717873828","0.040100468492225746","-0.01684755685156251","-0.043247981686978965","-0.0544483897093497","0.32032697801704263","0.10841331600028359","-1.0038206383631665","0.12095136850867473"
"0.012411176709226089","0.04261728077292883","-0.020094133257790994","-0.0472645730158003","-0.051119313505752426","0.3098671096861616","0.02248127857747204","-1.0515648916681213","0.06819308777916991"
"0.010472058572308807","0.04152247262441003","-0.022345258119616088","-0.06260309963391668","-0.03987560394105074","0.3236518085537728","-0.05921545739000031","-1.09268642732757","0.017490812661564235"
"0.012198393636605076","0.04253106722802649","-0.017002450764073414","-0.058739585491404685","-0.01759305103956106","0.29319441933044166","-0.13391837319108882","-1.1306285308105903","-0.03694267136857386"
"0.004625819581563145","0.06382685153631155","-0.007147480474479851","-0.05635196648481866","-0.029297948946774025","0.2855254671435312","-0.23773898649763767","-1.164863495531883","-0.0887203452879519"
"0.00725142790299981","0.056589068634149316","-0.005933731776044429","-0.08249158085893854","-0.05411093482458535","0.27931264511869236","-0.3073985499078286","-1.1980562397472094","-0.14193951121821635"
"0.026697489974160885","-0.010313680927470642","-0.014714151363245703","-0.07629917543540574","-0.08058080025361912","0.17470182739186466","-0.41074547818318785","-1.2204573842931652","-0.2087580592602558"
"0.01767876128076257","-0.006747764064221077","-0.024563338946772192","0.044512420798648526","0.008318218856820209","-0.07132349790815072","-0.4060922193473872","-1.2225154399758322","-0.22669008912810767"
"-0.025652922806607033","0.08335681625021145","0.017850125227396072","0.09954992714925481","0.017321802377979787","-0.1341458068671268","-0.34849769231984123","-1.2123175102149233","-0.1565423809656878"
"0.0003422363684822067","0.030974297341479842","0.008700872255723842","0.09921296478945436","-0.019921011085024094","-0.20064241760173018","-0.3139465488683866","-1.198043047082577","-0.10229030919542315"
"0.024294292918676505","0.009478248316843334","-0.020748818194670404","0.12328170477520063","-0.030921083009520022","-0.33277166850810785","-0.21787207901305114","-1.16904557022038","-0.024593562939710493"
"0.0007880217197198987","0.07441865295039715","-0.050418230823091784","0.12395562949480154","-0.00936441710483196","-0.353278834957283","-0.12227129418890499","-1.1265783827684182","0.05217814422511588"
"0.01403352728554467","0.04600453824192296","-0.034598399225311764","0.06908852982329433","-0.0171146309582533","-0.29738770556976785","-0.023466169447890265","-1.082330185591071","0.1146754849238633"
"0.04581426783339261","0.05179642651150629","-0.019602603242089737","0.05972097622084188","-0.01198053011572498","-0.29648975863649035","0.06433274427431457","-1.0372904285357751","0.1709786592719765"
"0.032693928780874314","0.06247132531826883","-0.006250747983650075","0.006914834616834163","-0.028861890223340937","-0.24302551285242777","0.11844429313135092","-0.9973166546993526","0.18800853087451172"
"0.02686887181545744","0.049954780546303416","0.005612680038168171","0.013843069559211196","-0.016995684094616503","-0.21001989584547134","0.18058062369324124","-0.960654239685683","0.20812731392894634"
"0.02052966932615089","0.050254969877348885","-0.001634702865608543","0.010115495660138701","-0.033322756604279094","-0.1750145267492699","0.21109151246690494","-0.9296778631286137","0.2132428127884411"
"0.014034490104877794","0.048495382587414496","-0.030269630683673786","-0.0017685891202634362","-0.020151006932015967","-0.16016685286334642","0.24004202702018035","-0.8980286606752875","0.21875055437198657"
"0.011943246513326481","0.03538988504485121","-0.026921856921271508","-0.029349728469609634","-0.00044531696971622167","-0.15259497602057406","0.2635869594528248","-0.8680417339656543","0.2184400288821131"
"0.00942354831853377","0.02410733655413848","-0.005150175103955952","-0.010961211120499482","0.003517264964357123","-0.14187057737691663","0.25751264552345654","-0.845350350797784","0.20932038554793395"
"0.00022092113250824462","0.020586084539452775","-0.016851687355896136","0.015108122532862018","-0.015424245248259943","-0.14651077882671817","0.2750111278520961","-0.8116826706556882","0.2245197911048992"
"0.002814756415951715","0.017192594766007877","-0.027735566274995446","0.007903385905528732","-0.005769445598416807","-0.1809482571597117","0.2739244386628974","-0.7811680373607557","0.23440757644034432"
"-0.002940014738146897","0.018089007889510463","-0.02101110521985553","-0.001274506025836037","0.0006419578824004176","-0.19930763161983123","0.28130835238437746","-0.7433578605240604","0.24625657539604306"
"-0.003999116004586322","-0.001612033581563101","-0.028609167941556927","0.013915275779168434","0.0052313443151956384","-0.19679823397386115","0.28395541579396477","-0.7025925268096888","0.2636133159352872"
"-0.005568511517582936","-0.006672976410811824","-0.033623600202576494","0.038844713906804995","0.043059318908163245","-0.2436565025893255","0.27857769749869804","-0.6633971201865826","0.2886024461466849"
"-0.02060774950102286","0.036927186809374755","-0.049243102340175746","0.04790707588623818","0.108958753319415","-0.22670957438641542","0.26793371620962103","-0.6096370118092155","0.34474218602644363"
"-0.06106541787900909","0.09945901351618722","-0.005097098123268882","-0.018966474039758693","0.030169020969575917","-0.06631198326702092","0.2526922037354713","-0.5884627850740808","0.37015624585556295"
"-0.04123133961659795","0.04613645535279761","0.012920161779999115","-0.07342825612990593","-0.05828963148273118","0.10067945060295447","0.26876963097054324","-0.5974469896888015","0.3453795804530261"
"-0.03541591084451234","0.010638391790354387","-0.02704577205128023","-0.06170004050965148","-0.03525414732771763","0.10921480023629755","0.2945715332576781","-0.6271832557704174","0.30004285893149746"
"-0.013704334882504022","0.03927780430472395","-0.04166775739230928","-0.07001530879992711","-0.03797532607932806","0.17440332070863995","0.31917529105415726","-0.6699802598381915","0.2481851021226257"
"0.014364737136140272","0.0018790956282772108","-0.05835292964798353","-0.056977753724448056","-0.03562032177714279","0.2046180215716258","0.33647872660524886","-0.7078300146687843","0.2052508672859078"
"0.021329772191979224","-0.006312125983112172","-0.03912956247929732","0.0028693608000299278","0.008949091960535694","0.1455937854520532","0.33923724531629224","-0.7421573280425043","0.17887254409349712"
"0.012656695639173404","0.04279074658014196","0.009051139023215159","0.0026637174855917113","0.015846095413825884","0.15811893172947247","0.34790289500452015","-0.7658513537224434","0.17504817753400262"
"0.01041621505098745","0.03618034899269068","0.0356243049506303","-0.03549207091397208","-0.046732400003815816","0.22789426221234044","0.3355592203682342","-0.7970388129136323","0.15107234102640268"
"0.007410293092965713","0.02201224354127091","-0.013291192620312227","0.002176566188280207","-0.05631994800641158","0.23780322796523776","0.30139817047187667","-0.8437276530479889","0.11477354560487597"
"0.008010129537503687","0.02913057394146004","-0.02552368120433978","0.037126205871822714","-0.049080224414835893","0.2149735339075584","0.27952506756107665","-0.8746248736172634","0.11076940113019157"
"0.006926957787736097","0.04756676922424959","-0.013832288688016975","0.029369332349216404","-0.055116119587713217","0.2533692593977832","0.23154356028413706","-0.9153638220023699","0.10193086508158213"
"0.0108427440155626","0.039726530225179475","-0.01984423774560674","-0.00034631913702571737","-0.052749148800252596","0.2687557014436732","0.18489951662467324","-0.9536357421012022","0.09116216796170641"
"0.013909323591571317","0.04388036114161845","-0.025300633970324077","-0.018771998620673865","-0.04071325791032396","0.2823219807869736","0.12833595113559818","-0.9960237735653691","0.07055308150220839"
"0.014823039138708615","0.05017914350653117","-0.01721723698942186","-0.037546578559155386","-0.03916479471569604","0.3127793700103048","0.04064849271484977","-1.042290448431486","0.031887754978909055"
"0.015042561946661518","0.049786508326132586","-0.015655906351311984","-0.04668114675854581","-0.032812984331549964","0.3205211287053188","-0.03458383576815657","-1.083886920017704","0.0009577818428265598"
"0.018807185539187123","0.04249886698836418","-0.02524074165748653","-0.08439686231621021","-0.026022961256621246","0.2916169449881974","-0.13029607589375897","-1.1261298321709137","-0.05535683291807144"
"0.0192308260457629","0.04761143407281346","-0.009892200604173016","-0.07899198606501104","0.002806216409296912","0.2588782851776208","-0.20494326404411975","-1.1611959347640528","-0.10827527942656365"
"0.009088487190605654","0.0644573530032479","-0.0016875733210789307","-0.06612483766863107","0.008370153402915147","0.24980174050070778","-0.28048209460613077","-1.1885707138764543","-0.1536218070161935"
"0.01228986147325211","0.025684109580183585","-0.00797440744207138","-0.10718129433631708","-0.02002799146338556","0.19629866457899","-0.36705500001231595","-1.2137950886537614","-0.21604396785949784"
"0.024790144875236782","-0.028588875011948612","0.0019799014767458408","0.006690802785046835","0.04376294824235274","-0.04719056735541728","-0.36585685552166103","-1.2167106675375399","-0.24452078962557983"
"-0.011537991382968809","0.05230643675906106","0.029063824917535255","0.10430591017043826","0.047216475892813484","-0.19918628743965858","-0.3237824792219057","-1.2040720948196215","-0.1944019755599996"
"-0.014946371822237531","0.06799626321387746","0.007807010465405935","0.0873518897244786","-0.01168256463236922","-0.20468075191787544","-0.2520609927347727","-1.1870403647790864","-0.11996411260327497"
"0.02516757005382247","0.008381466605248456","-0.016060695776007133","0.10504722736199926","-0.01862863067528827","-0.2915631849214814","-0.16899892932446114","-1.162647127873626","-0.05219437595541254"
"0.0232794813415609","0.03662907491314621","-0.04037697478805177","0.11874715416188604","-0.01552883232956634","-0.35568144972470117","-0.08621550416778996","-1.120813188324023","0.019649781988526713"
"-0.009005776536845462","0.06453837296110793","-0.04027990793621161","0.07716599896251078","-0.014756276040190926","-0.30539642146116164","0.017242879409025698","-1.0748763300737183","0.09358263243803604"
"0.03653654073938319","0.036718404610273925","-0.01904085465271687","0.0785822036232721","0.001555479368319241","-0.28488925501198653","0.07929561849482356","-1.0361030887188516","0.14069425228589413"
"0.030126089619425256","0.06069823470202443","0.01348459519718884","0.034841601072375675","-0.040315970599182946","-0.2503547013348549","0.1575929677678783","-0.9871978809262384","0.18518111457197947"
"0.02687368591212308","0.04714608867382254","0.004695501550886956","0.024126198030721434","-0.05497730835851936","-0.21455816818392784","0.21474167358959906","-0.9505090805833039","0.20060932838464096"
"0.0226642397876929","0.05214024197370717","-0.007894482183215755","0.026707329706792866","-0.04819709780151642","-0.2149173469572388","0.2502959147541605","-0.9154825559840623","0.20737551537451582"
"0.023121578970928112","0.04630368885555997","-0.010031605125432828","0.01427438137975577","-0.037817368473693685","-0.16947637836619084","0.2895560446921443","-0.8803768753970257","0.2220846175264177"
"0.01274046092115544","0.032272694102057166","-0.027960678761177953","0.010264529298130442","-0.018952922426249758","-0.18226120118917957","0.3088656756694489","-0.8505614533276147","0.22252589059097472"
"0.004199290616987995","0.028726512869568375","-0.026306411775561533","0.0002416320433460926","0.00730034961930049","-0.18808329495386256","0.3334972972912926","-0.8149544514845439","0.22942282515553317"
"0.00982889525778013","0.013137442003372777","-0.011773232277705395","0.005266318477730427","0.004265409623770863","-0.19331322911930307","0.3517202390793986","-0.7741231544470101","0.2413535413454091"
"0.0014282965762491865","0.010294160841190125","-0.010579516525288055","0.022301787539801866","-0.0013818141073636808","-0.2036347650847873","0.35394934510852477","-0.7393077124818881","0.2506693060416136"
"-0.0013128500651626762","0.010674850771391397","-0.011936387198883545","0.03607584605884474","-0.008772315413408548","-0.21353159641966737","0.37128064448498027","-0.6940172947985749","0.2743019301656693"
"0.00034993892314721985","0.007509671084326417","-0.02255178333629729","0.045718746046734135","-0.02062966634302924","-0.21856252612962476","0.3626149947967527","-0.6530144931208187","0.29723178607580064"
"-0.0007226418139559826","0.0007010862153406151","-0.047533073546055404","0.04006162940048433","0.010980043841464993","-0.22866321568719483","0.3583796933414132","-0.6029483308405468","0.32678073795428797"
"-0.003209604151422393","-0.021667900919367235","-0.04852232933395835","0.01673035560790132","0.07508642009906104","-0.27993841246094303","0.3462589293080397","-0.5475127540548544","0.36263826031125757"
"-0.07076100856359553","0.07638494500461544","-0.019412600042743033","-0.007325194708332763","0.1030353431081258","-0.21023831536978208","0.32658706860100156","-0.5097949258705864","0.39373983963911224"
"-0.057050461259870545","0.059869338210071864","0.007869174555626976","-0.056334636992028925","-0.0584092963354845","0.02066849583416447","0.3394044282684769","-0.49781598638429203","0.3934129707024032"
"-0.0391035088903878","-0.027480563537119806","-0.021857858608248456","-0.0671318737496347","-0.03858083023425985","0.05459535785699154","0.3662094282687183","-0.5275654451305406","0.35131225165429314"
"-0.02787703546612985","-0.0025382578946885415","-0.04126503321978094","-0.06064871794707408","0.004203901889455658","-0.0028220386287350504","0.41460889292611897","-0.5423412295189212","0.32396966509859115"
"-0.006550587237372229","0.023541235566526767","-0.02459431772927437","-0.07718297956768234","-0.01531630755107645","0.07681590413020428","0.4715904157956551","-0.5634494929308935","0.2990785955682061"
"0.010133146167048194","-0.0002088302344719746","0.0029852662315499284","-0.04271750665769311","-0.05265581021510501","0.14839683601404105","0.49580408003703774","-0.6018137616821533","0.2602629093340207"
"0.025823250019681786","-0.006644931040783352","-0.01678146878222453","-0.020921818476200723","-0.03777189582964742","0.12832165484628047","0.5277917515549976","-0.6291885407945549","0.24297154258211828"
"0.02836027896247079","0.03380584099694687","-0.018152796220987706","-0.028694095992397906","-0.019189380175290312","0.1864625053341963","0.530661725567497","-0.6650725885949078","0.21747576551882175"
"0.015997678725123254","0.062086999877137936","-0.008823226082631117","-0.01936601512352208","-0.05122940517028548","0.32260824860428816","0.5063366060246586","-0.7140041817167861","0.1971772045491972"
"0.015125364409310414","0.029018392461346153","-0.032035421286298056","0.015540397103006023","-0.056190709965438","0.336975399536728","0.4651817359619176","-0.7665901429418622","0.17506452098083808"
"0.019223123491097886","0.026338501547514555","-0.046110114803121924","-0.02008230082549789","-0.028756824482623525","0.324719637339292","0.40056552494262465","-0.8232262522091106","0.14381585063146438"
"0.014848072441369905","0.03293435709124737","-0.0047804949660966035","-0.03727700867131503","-0.02272715188208938","0.3256661219446385","0.35411652806070937","-0.8680417339656543","0.11088380525803972"
"0.009635368571821658","0.024346241558084708","-0.007156154533580459","-0.01032290813607749","0.011383314395243671","0.34214466161208223","0.2743981236940867","-0.9198889059713113","0.08355265911512254"
"0.0034559940918141444","0.03409668187131619","-0.025110630770977378","-0.04804536294093792","-0.0002213043653620113","0.3487457850134735","0.20153422036702692","-0.9649022776973426","0.05661702438562317"
"-0.0028918737714905686","0.03742577116543645","-0.027869807665838225","-0.059419286708602165","0.007890058013668837","0.33789761530604","0.12816876818341355","-1.0117362371426561","0.016830537409412195"
"-0.0021408746916516883","0.036749566132527785","-0.0013366869779375707","-0.05736477906341887","-0.009390264713026678","0.3322187076739607","0.03312525986654904","-1.0608789128986542","-0.033350381754142726"
"0.012295638389250874","0.04178838428097626","0.003148834203161441","-0.048859849102055555","-0.03300444809595528","0.27445887791178697","-0.028091564458326623","-1.0974753645891613","-0.07304534542807518"
"0.0029071870719318904","0.06357340448864686","-0.0013321434231705843","-0.0802839960274459","-0.024566400668907865","0.2812541520014545","-0.12241061331572536","-1.1328580911334798","-0.12868824452403632"
"0.01233222552390969","0.051582450725363146","0.014287152189211986","-0.08749980427517264","-0.034143657494166854","0.26443584862952746","-0.19959340957421684","-1.1652856608001225","-0.18843171443101098"
"0.028273625222489378","-0.005354532404251184","0.0014600775063592579","-0.0637256656668519","-0.05029841261586467","0.1642419590609836","-0.27195576404472355","-1.190338530937207","-0.24827978239773252"
"0.013719648182945344","-0.007529918272792857","-0.03108540528956453","0.0522288588380788","0.02624401379926712","-0.06991347853454472","-0.2905687993879263","-1.1887290258520442","-0.2629561976559635"
"-0.015504807035451047","0.06643507094895928","0.008405850983694745","0.11875678165788034","0.043844320342225","-0.19872032578779564","-0.22988138774496816","-1.175826599841476","-0.19207793741999912"
"-0.00345993717803533","0.042966289822172016","0.004016859688872529","0.09904929735755127","-0.010194891182939982","-0.22278773048323589","-0.18145405926220337","-1.1568159701060685","-0.12112613167327523"
"0.019416650177056356","0.0028716004992366028","-0.0383013963604057","0.11699494989092371","-0.015269398928797149","-0.34126576112019225","-0.09254059252543528","-1.1268554287257002","-0.050816623387184394"
"-0.006444677110728276","0.08573859526781448","-0.03866694599393143","0.1105252725827551","0.008276096828651042","-0.32740825574447746","0.020614402278078755","-1.0792562947317026","0.040144464320176626"
"0.027500481297988592","0.028214425187196676","-0.03181030880011554","0.06574778871327276","-0.01894263124891297","-0.27265776165058503","0.07614700622868302","-1.044559586748273","0.0812090088389195"
"0.032978923303479825","0.0584411017734368","-0.01893139628787583","0.060291886733303796","-0.02782367796085316","-0.27685627028455817","0.16074158003401912","-0.9977652052968569","0.13677182504538699"
"0.028727113128392084","0.045332488078648134","-0.01862160846285403","0.001039944011193325","-0.022084072963393053","-0.22977230149397268","0.204125556125886","-0.959915450466264","0.1509252500048836"
"0.020961975206724798","0.04760831792058807","-0.00516855584824058","0.007410458110620648","-0.008518147266160502","-0.22579463926791374","0.2548655821138693","-0.9217490716844916","0.16442493709096243"
"0.016956646780917493","0.044152505102635464","-6.46981683980514e-05","-0.0028441729727464653","-0.025694840230371645","-0.1991595917200206","0.3022340852327992","-0.8831077569759497","0.17432906587324304"
"0.012804969816474937","0.03668620437061161","-0.014949590110262274","-0.003740396574855714","-0.016377016805881852","-0.18906860969686434","0.31833937629323505","-0.8559572531623002","0.1723188219124831"
"0.007681808144907476","0.027779202593051156","-0.010198270975294552","-0.007228534648550006","-0.004897806810961645","-0.17812821841249968","0.3545066216158062","-0.8169597365086813","0.18428222499602992"
"0.008517535326061483","0.01982470467905023","-0.005031010053930898","0.005473887291367503","-0.016525640553001472","-0.16197002738071173","0.35113509874675314","-0.7908646458656304","0.18715867163906852"
"0.002057017600780963","0.014754725008347892","-0.015525795464802827","0.025692591628993802","-0.03485925331363169","-0.18267862516897343","0.36634874739553863","-0.7570386537479449","0.20293009783527438"
"0.0005328745964413046","0.014388057763160855","-0.029693425329133234","0.0334167316652195","-0.026024157905148775","-0.1819796826911791","0.37267383575318397","-0.715719228119009","0.22344112361375973"
"0.00044044394046114624","0.0034835608604319077","-0.031378671097251835","0.042704377050919264","-0.028598627547283637","-0.2038920147467533","0.3706676403269706","-0.6846373102448797","0.2426610170922448"
"-0.00539520403762013","-0.01070943226009461","-0.037177899181659965","0.05336971711340316","-0.007310489572174025","-0.23292967706206463","0.37002677234359665","-0.6337663954220265","0.2788290649390879"
"-0.00728232993054855","-0.013341542173136966","-0.0519692352003676","0.0632109435187751","0.06087262888902202","-0.28384569506250185","0.36130539500464115","-0.584887572958678","0.32115859224289434"
"-0.01552406342211359","0.016329420599576074","-0.0254245491003328","0.03867815822610363","0.12320844398527998","-0.3046440875440913","0.35155305612721427","-0.524570710258967","0.37664459424923513"
"-0.08405754355407602","0.09621198289733544","0.010346093436849627","-0.008473851255412519","0.02280484593113678","-0.1143181678269184","0.34570165280075826","-0.4880402218916224","0.4098871651125333"
"-0.0263172681464645","0.032268539232423316","-0.03165954539193827","-0.019203310441218438","-0.0747076492804863","0.05507102704326826","0.3606645270212672","-0.4977104450672322","0.38574789413657895"
"-0.023717655947022267","0.022918005121449654","-0.06298529025814288","-0.06356777473254539","-0.012636532838518665","0.13167318110264864","0.38707943346641177","-0.5163384875282978","0.36499171665556185"
"-0.026124704279839154","0.0641550862373855","-0.0410172029597635","-0.10983848323074347","0.009975337737748145","0.2639504719088369","0.4044664604935952","-0.5639112361930305","0.32447631195049004"
"0.004506429984255432","-0.02618112805913402","0.004813633974828604","-0.0960133989829308","-0.11930913319870266","0.33539792519448375","0.4133271569593717","-0.6286476415446232","0.26021387899351434"
"0.018942943065157994","-0.04134744094008564","-0.015606340299308491","0.016904613285398124","-0.015412518092690116","0.2598247697829673","0.41054077442296405","-0.678331216550553","0.23112254362641962"
"0.01724549258085553","0.014255621293581969","-0.006657396135295358","0.02731386195443367","0.0332348344971159","0.21075075643755073","0.3935995686016054","-0.7205609360391301","0.22533696344667153"
"0.01444176268279042","0.05973534366438028","-0.002382530675211174","0.004509019642818907","0.005371352192917019","0.2587326721614136","0.37643545217733415","-0.7558908919249189","0.23040343196565993"
"0.0015438348962244016","0.0594164574199825","-0.02525313317048741","-0.004366568914324889","-0.0306571023443462","0.3160799317110004","0.3305437318027007","-0.8097565416193458","0.21209877150995987"
"0.017787559865405894","0.014146555965693471","-0.030957359655222182","-0.02053768138602821","-0.06963385952374566","0.2755509755333407","0.2924260187046441","-0.8587540980643865","0.184870589082106"
"0.024895092182547592","0.0342545669174024","-0.019536515172751755","-0.023357574962758247","-0.015353164325724472","0.2623244598945236","0.25656527546107766","-0.8951790451146714","0.15654739571627724"
"0.012307192221248401","0.05116800247938686","-0.01128376751417095","-0.03142734210517925","-0.004188194234134475","0.29977127389579844","0.18765803533571662","-0.9443217208706695","0.12320676417196638"
"0.00830475225344047","0.043999813643591575","-0.019344446721238234","-0.03997367029931804","-0.007489268862187482","0.30142155474614624","0.137057328474554","-0.9868021009872637","0.0988484910084169"
