"AccX","AccY","AccZ","GyroX","GyroY","GyroZ","MagX","MagY","MagZ"
"0.028506627501106056","-0.02729255568618821","-0.014133815504371526","-0.042240945605975334","-0.043494269088311055","0.06396070168271543","-0.2707018919033401","-1.1810377023713068","-0.24849224720659335"
"-0.006444677110728276","0.052285662410891824","0.012081462875056756","0.08405736059522965","0.00366541005206573","-0.09500988187784887","-0.25295263514642313","-1.1804044544689476","-0.22296378324962587"
"-0.012924451222671355","0.06953979728285178","0.019358585410035566","0.06947748066146399","-0.051633872372591684","-0.14242390683850384","-0.21581015593610958","-1.1743885993965355","-0.1688342873306271"
"0.010462430378977528","0.016949534892427804","-0.007724305404670444","0.07709090449375526","-0.07267813337779004","-0.24372930909742907","-0.18685964138283404","-1.158333126538804","-0.13215632394251808"
"0.02840264301312836","0.020502987146775824","-0.030823118264379404","0.10982246537517132","-0.03977508546473796","-0.33150968903431244","-0.09131458420941625","-1.1292696863534446","-0.06753596949984615"
"0.010508645706967626","0.052689723482783495","-0.07195674567077426","0.11487690077217803","-0.0041925021688335945","-0.33175237739465774","-0.010425899177502461","-1.0901666283827658","0.003829325451814512"
"0.0049291076714980675","0.04758962100723575","-0.06629795473370935","0.09029212700113737","0.004809645374092949","-0.31799194736308106","0.08631730248657103","-1.04295008166311","0.07691721969993125"
"0.041191772215051055","0.05196677616649403","-0.035920160612071456","0.0515549341184779","0.03589618082234968","-0.3252725981734391","0.17601095633353311","-0.9924617541145989","0.14022029232766617"
"0.03199010784835865","0.05917443626381089","0.0008607413275504107","-0.020061120334310435","0.025968784637934488","-0.26705166052660934","0.23633613824675836","-0.9486884928640211","0.15984877197703737"
"0.029092984474980245","0.03854550853175834","0.02371606095679223","-0.026119703563522483","0.012150605431097944","-0.2184072055790038","0.2984446049832844","-0.9085959850459062","0.16429418951627886"
"0.0107310569729199","0.04275127531862041","0.024155340092673148","0.010273194044525312","-0.03154693018941986","-0.19597309354868722","0.32954063408959383","-0.8766961219645631","0.16702354513779843"
"0.012379403671232912","0.03744446807878877","-0.005826338663370205","-0.00038531049580262626","-0.05005908291035804","-0.14603996340764835","0.3570143658985731","-0.8455482407672714","0.17315233770109084"
"0.010836967099563853","0.02439194512405703","-0.026630656365751015","0.012001329575501894","-0.029027267049846022","-0.14424892330830025","0.3754880821149558","-0.81790960836222","0.1774996945593196"
"0.005415331434727091","0.029748610799494844","-0.028270466586199756","0.008559788582420005","-0.0074600706381156715","-0.1414992641855884","0.3791661070630139","-0.7927248115788107","0.18035979775552274"
"0.0064378455665076995","0.014378709306484699","-0.0159512374111661","-0.0030636798814164716","-0.014176619493453857","-0.1416157545985541","0.3889184459404405","-0.7608909118206297","0.1898880272605881"
"0.0014966567489011979","0.011845485290727913","-0.0071699917230981","0.026754504437164928","-0.02180716849412188","-0.1669354312333759","0.38014134095075647","-0.7332522794155785","0.19979215604286865"
"0.00034031072981595764","0.012159489563305936","-0.010629082577291542","0.047066595485935926","-0.029439392802728448","-0.16034644225000189","0.3835128638198098","-0.6951914419508659","0.22066273765173383"
"0.0013050557016089754","0.0037930051635867807","-0.028553406133053","0.06840979135569629","-0.01939783634878659","-0.1672023884297557","0.37972338357029534","-0.6541886402731095","0.25261417621503174"
"0.0002796531118289766","0.00289754766009998","-0.049515715626194924","0.05259855468425985","0.01013138070573847","-0.1933520592569583","0.3616397609090098","-0.6176845372350299","0.2781099532783282"
"-0.007571175730486587","-0.010230583534793693","-0.0471902416863646","0.013322222025919647","0.07541190849855006","-0.24477286904691373","0.3490731756698113","-0.5688584854302114","0.3209134405403626"
"-0.026423178273108437","0.024335854384000093","-0.035370803535699456","0.025015778660594616","0.09900263757033902","-0.2508400780555454","0.3287883108047638","-0.5278161057585578","0.35592110366188906"
"-0.08202599476117854","0.08326229296604143","0.025332533827755993","-0.05015956106128585","-0.017068440325090518","-0.08556445089321103","0.32889976610622024","-0.49920121617070273","0.37107147887834796"
"-0.030024122579002506","-0.026942507919536562","0.00022774153842252857","-0.041267605760951766","-0.07797449976065186","0.00550314288454902","0.36077598232272334","-0.5068265763282778","0.34979231109859665"
"-0.01307850231597162","-0.040010611635395224","-0.08719211090534648","-0.03905135618306424","0.006596241625699974","-0.10709333533943974","0.40549742203206596","-0.5159295149246909","0.3229890582884644"
"-0.013203668829278096","0.014639427376008625","-0.028892107488410174","-0.06411172825622326","0.006541913782549968","-0.06461801851181095","0.4666585187062137","-0.5110482290106723","0.3142453142315005"
"-0.009371647883433613","0.045914169827386775","0.0008051860442631682","-0.033801482617373264","-0.05753334961333022","0.07364882102769853","0.5105161798292702","-0.5275522524659081","0.2878833344859253"
"0.010858149124892627","0.023448789717173665","-0.019505536390249573","0.01226512296574567","-0.03849706483733253","0.1822275934461714","0.541918711014584","-0.5533175264931469","0.2685980672200984"
"0.02415372129604","0.010111969807745915","-0.0229317897349907","-0.0024319235942706035","0.003952366368968184","0.20750358617613104","0.5525626923036614","-0.5868532799889179","0.2602792527808561"
"0.01195287470665776","0.038744942274183014","0.004845232332980827","-0.030307664321042337","0.007168718281271843","0.2610382115846937","0.540079698540555","-0.6347162672755652","0.24271004743275115"
"0.010275643428350946","0.043799341183758424","0.0061568739841231365","-0.03637876329504698","-0.07656963438932791","0.3707576192967893","0.5140270218251437","-0.6880410177200603","0.21886495849983473"
"0.016067001717108374","0.016443679514506874","-0.015385358317459607","-0.005743204566549633","-0.08686320502316826","0.38167859551232636","0.45952537941301047","-0.7549278274067476","0.1718285185074197"
"0.021334586288644854","0.015044527165308751","-0.006011798307949923","0.01566651730053133","-0.044037547519811114","0.34299407087329065","0.407615072759736","-0.8068277700709345","0.15202026094285856"
"0.013687875144952167","0.0344124519634886","-0.006073342822520923","0.008037689474649197","-0.011886952200871886","0.35168231417365126","0.3452279677695686","-0.8586881347412242","0.13824273526057715"
"0.006904812943074182","0.03481339688315487","-0.025273785692155527","-0.024824805352289335","-0.011287431288577768","0.35444896148158733","0.2599925259808592","-0.9135036562891897","0.1083832578922164"
"0.003871932043724891","0.03638913119179151","-0.03719029069466084","-0.04496263872356353","-0.007805184073456238","0.3398876598608712","0.19063946464967316","-0.9603771937284009","0.07501157379891818"
"0.006615967143136145","0.03699781959315017","-0.02436713999092505","-0.060459056275986404","0.0019075333651195","0.33911105710776634","0.09880029624967705","-1.0119209344475109","0.03016188699308591"
"0.0027714295459610096","0.044144195363367764","-0.021758726504241478","-0.06220837229815043","0.0025848364317032748","0.3211521184422165","0.02649366942989903","-1.0541242686068228","-0.009382716969960438"
"0.00525839188342742","0.05100596256366681","-0.019495210129415512","-0.06585141678239301","0.009085270562968968","0.29511165737716927","-0.04859933992628694","-1.0917101701447665","-0.053153736284653245"
"0.007132038305692097","0.05424883831288474","-0.001601039255289509","-0.06650416101080643","0.007595921805601185","0.2874184363542243","-0.14754378379412236","-1.129771007609479","-0.10411750655162605"
"0.0088343028866602","0.06078652568174369","0.00543197047357212","-0.08271012501800913","-0.009022175625957474","0.26654723736453123","-0.21756557693404616","-1.165681440739097","-0.1470991373841668"
"0.010069600091061821","0.045345991404958146","0.0141969006695223","-0.09350832452521432","-0.02439886987505322","0.24003838776401767","-0.3128319958538235","-1.1938345870648148","-0.21300572109278834"
"0.03541389339695739","-0.026627776544772618","-0.016634835878380876","-0.04565389293595416","-0.03195618398583621","0.06465479039330291","-0.3645751195549133","-1.2091644633677598","-0.26336478382684964"
"0.003173888027207996","0.03958526465762866","-0.002204712463648658","0.0716802517449595","0.045510055092551176","-0.11837591721189125","-0.3358753794299147","-1.204190828801314","-0.2408271706407689"
"-0.007648201277136719","0.07676823172833787","0.0040672518417427415","0.07869580807600482","0.014852637806267844","-0.1623000835507813","-0.3099341580159594","-1.193069412516131","-0.18833692243936542"
"0.014785489184716658","0.012962002633083567","-0.026442718418571126","0.0803430726406293","0.019956822435607834","-0.26047480596125255","-0.23010429834788054","-1.1750746179574247","-0.13044679940353035"
"0.021610915437252232","0.024953891242034898","-0.046630558349158545","0.11872789916989744","0.06054474719247794","-0.381333609413196","-0.13943541061317605","-1.1385969002486098","-0.05968784632946476"
"-0.015187076655519225","0.06977039254753031","-0.018247797820661056","0.10656837172909842","0.06361774061118312","-0.32837900918585855","-0.01831136175553608","-1.0916705921508687","0.0393125828762524"
"0.025208008465813794","0.033304140488659796","-0.008680104107471043","0.09569315225393883","0.013862770144292404","-0.3229427899141245","0.07062996880659594","-1.0452719906384271","0.11217493755803999"
"0.028845539906366673","0.060534117351487456","0.017917658973250827","0.0360065280876858","-0.0424172854135312","-0.30651278791874986","0.13995516631241806","-1.0015778853756445","0.15445543452134003"
"0.031148603751205872","0.044655244328331","0.015106850774219674","0.007429905652529132","-0.06254970024074928","-0.24462725603070656","0.2101720062298906","-0.9601661110942812","0.16434321985678516"
"0.024150832838040617","0.046286030659616124","0.00364387514754628","0.046046080910540285","-0.05983570138030404","-0.21504354490461836","0.2533609355442089","-0.927501073464254","0.1732830852757744"
"0.01979985227164081","0.04703079104148328","-0.026300216019061094","0.04710510546991312","-0.06673557679006031","-0.18490893120054647","0.2917851507212705","-0.8915378696761062","0.19340186833020906"
"0.013923765881568219","0.03770103127867885","-0.047607422624060626","0.014111676697452122","-0.04465741145707329","-0.17174794141902255","0.32558397088789476","-0.8596511992593954","0.20688521196945245"
"0.009724910769802442","0.029260413617517772","-0.04358637665527764","0.001936745263062231","8.527698739198744e-05","-0.1834600816892852","0.3367573648588896","-0.8330415946956778","0.2066727471605916"
"0.0062760919185424055","0.019143306059099252","-0.018919004774874962","-0.007918248461581552","-0.00530490664002843","-0.17367974076737092","0.3632279989547623","-0.7956931611211192","0.21796606892388518"
"0.0021494482567611384","0.008849824284723909","-0.023258099577346997","0.014900168619385173","-0.015459426714969417","-0.19692443192124068","0.36776980248910657","-0.7675004368015037","0.22388239667831678"
"0.0017363987628497483","0.00518429442200285","-0.022339062363115652","0.019682145879753244","-0.008107457491511117","-0.21401940002396133","0.3798069750463875","-0.7242944601301228","0.24324938117832087"
"0.0016121950688763958","0.0003593481879566632","-0.02527791619648915","0.023798863166915287","-0.007074510482544484","-0.22303041884358116","0.38930853949553795","-0.6806399328612374","0.2655745295555408"
"5.0502110544812784e-05","-0.0036230943560861093","-0.02425148586958358","0.05432091371763986","0.005056872959881302","-0.2370893555583825","0.3804757068551254","-0.6382255160678055","0.2869681014631403"
"-0.0019386826316950623","-0.00954191389298348","-0.02959429322512625","0.06812192922546677","0.025672015803106258","-0.2451126327513971","0.38014134095075647","-0.5825788566479935","0.335312017202391"
"-0.01001673683662854","-0.017320868564954354","-0.014736869137080636","0.05153182812809157","0.05866840230130592","-0.2838699638985364","0.3647605093497864","-0.5335285295444228","0.3773963928036657"
"-0.07131944377680904","0.05957849733570255","-0.028084593891186675","0.004310693225336357","0.09161931615545933","-0.25367953187158504","0.35113509874675314","-0.4832117066361337","0.4227821446657007"
"-0.04931902201486269","0.03509073443121419","-0.009106578679917723","-0.008229794231957051","-0.06018751604739879","-0.08892325780038954","0.3680763045681115","-0.4615229659803321","0.4301530391884871"
"-0.027087523612965906","-0.02119424578110863","-0.060096002476772874","-0.01997351012076232","-0.04485366181558874","-0.05101776279806215","0.41602994801968685","-0.4661008206078036","0.4012578251834176"
"-0.026336524533127043","-0.003360922082190335","-0.017330825858596525","-0.03642016152782246","-0.009389546723910158","-0.04830450692940206","0.46827462057733027","-0.4611799566998876","0.3931351321062007"
"-0.003411796211379002","0.027218295192481753","-0.02570748864718605","-0.04938743588254312","-0.04116080445962137","0.046028458736803585","0.5249217775424975","-0.4790955952707991","0.3653839593796125"
"0.00795043473884983","0.02766390496071189","-0.028937543036080038","-0.05759102521928488","-0.053206268537770274","0.17335005322474148","0.5691138045699226","-0.5067869983343803","0.33885854516568287"
"0.016547448564338634","0.008808898818830511","-0.01147996647001809","-0.038600789370531075","-0.01900796825851628","0.20991105471075608","0.5812624324286599","-0.5482911212681709","0.309505714649221"
"0.013512642026323095","0.025634251144577416","-0.0156765588729801","-0.022704830734344802","0.02104577259566302","0.27174076827592003","0.5774172245284173","-0.5991884214202893","0.28670660631377315"
"0.009299344624560417","0.05161465096502547","-0.004446130640289736","-0.03390353407491283","-0.023848890211798975","0.4160918050092854","0.5449558679792684","-0.6574736137665979","0.27443267774035285"
"0.014414803741462865","0.014756802443164815","-0.028631885715391856","-0.003174299810390961","-0.06784606662361109","0.42630898497982117","0.48741706860245054","-0.7368934548541438","0.23345965652388845"
"0.026718671999489668","0.012485439086081265","-0.034914382806833996","0.005096393173431059","-0.017489181947371184","0.38638674970302456","0.4287915800364339","-0.7941232340298537","0.2152367133023656"
"0.015705944467185845","0.03513020569273574","-0.006923813664814107","-0.05331160324981919","0.002241637634006762","0.40140915920839665","0.35709795737466526","-0.8518543344615982","0.1879268136403345"
"0.0014774003622386564","0.03396372604303307","-9.60900013335933e-05","-0.05109824192072996","-0.007697007046567239","0.41099534944203475","0.2555064500972426","-0.9203110712395509","0.14067790883905865"
"0.004642187510226296","0.030890161231394427","-0.013900442009521768","-0.04065144601731666","-0.008623691666288928","0.40347201027133134","0.1689614085164217","-0.9762347766166452","0.10818713653019102"
"0.00618366126256223","0.03622501384125454","-0.028412968985709785","-0.06494065566133236","-0.027116458681081056","0.3907066025171703","0.05956803013705754","-1.034968519560458","0.054158969981571985"
"0.003404001847825301","0.04595052493668294","-0.027624042657987593","-0.055040701530395204","-0.008576304384598615","0.38277069313388007","-0.039571460508326446","-1.0839792686701313","0.012144871201689694"
"0.00972202231180307","0.0491653553158724","-0.024259746878250825","-0.06903522970770752","-0.008626802952460513","0.3465858586064006","-0.1370669854572295","-1.1277657225853415","-0.03201675649237029"
"0.013427913925007933","0.05866338729884765","-0.013117711438300018","-0.09314633067582871","-0.029675611222063494","0.3075130325908125","-0.25013838878465156","-1.167053477860875","-0.10165291476884072"
"0.014283860312157623","0.06377595438329692","0.0024059629987591585","-0.1044470854739363","-0.0018451564172245248","0.28632633873267055","-0.32392179834872603","-1.1997844788140648","-0.16346383070049936"
"0.0073785200549725365","0.05295667385675819","0.02088294803435951","-0.10630519220083592","-9.063034615538865e-05","0.24409856403259397","-0.4266557224660756","-1.2227792932684818","-0.23894767425469257"
"0.02754188252931305","-0.03507462651038447","-0.01710984387674764","-0.050095056838124055","0.02227592728196712","0.04101937097927725","-0.46410470375539414","-1.231526029919818","-0.29873200277875583"
"-0.009535327170065173","0.025758897233592842","0.02641183461013195","0.09969433958916929","0.07208522559200783","-0.18974571022222766","-0.4107733420085521","-1.2228452565916443","-0.2565659099433039"
"-0.025325564233343947","0.08114019330055385","0.03800967120329817","0.12308915485531466","-0.007648423116349394","-0.24783074238726407","-0.3506432068728751","-1.2056288292462545","-0.18029758094100926"
"-0.0014669011584629572","0.018219886282976657","-0.003288556800791604","0.09476891263848618","-0.06121902707813239","-0.298455534355287","-0.2649062162276121","-1.184955923767154","-0.10962851682453861"
"0.033947519552605346","0.014128482282786235","-0.060641229048811245","0.149901731199436","-0.018307450210498368","-0.4055296389396192","-0.17482246882555305","-1.1519742621859472","-0.03191215843262343"
"-0.0012358245185125443","0.0801606827843743","-0.040294364701379294","0.10793547616028881","-0.0027203851502622866","-0.34318299916691986","-0.05684703223405376","-1.1024489991556072","0.06764558231018244"
"0.04673953721252742","0.035492718068288936","-0.042469075233032345","0.08780823303460836","-0.007042440302006595","-0.33854765148432525","0.04429865383754356","-1.054150653936088","0.13213028614412015"
"0.03797595564240769","0.06813025775956905","-0.01905324616571774","0.03416478810397649","-0.021902421716913516","-0.32541821118964626","0.1219829989525886","-1.0058523087165687","0.1735445804251416"
"0.028331394382476987","0.042041831328640956","-0.007324472585175637","-0.006994105121088837","-0.026045936908349877","-0.2615183659107372","0.204432058204891","-0.9611951389356148","0.18725673232008117"
"0.01888613672450352","0.049609926366694077","0.005114541215533113","0.02191765044962936","-0.026004054209886218","-0.24392345978570526","0.2561751819059808","-0.9211158237821324","0.1885805515137524"
"0.019403170706392588","0.045573470517411285","-0.0005884461179015789","0.012413386404057869","-0.03290632291669755","-0.19216288629126652","0.29830528585646404","-0.8827119770369752","0.20162262208843867"
"0.01748812305280347","0.03694380628791015","-0.013669133766838825","0.013287563040340173","-0.0301375175536913","-0.15964021912139717","0.32725580040973945","-0.8498622421020933","0.20755529328970573"
"0.008232540803455979","0.028910365850866124","-0.028307641125202367","0.02332230211519751","-0.015114552609334354","-0.16599380039523626","0.3332186590376519","-0.821458435148358","0.21133062950869383"
"0.003938366577710637","0.025069188874374163","-0.026004884959206977","0.022541512190059898","-0.019279128814855297","-0.1743883907795791","0.3548967151709034","-0.7819991752326021","0.22770676323781128"
"0.0027695039072947606","0.014770305769474822","-0.021384915862048503","0.018873436216232168","-0.015468281914073161","-0.18318827072569852","0.3524446985388647","-0.7488592016758057","0.23058320988084988"
"-0.002015708178345211","0.008748964824362262","-0.020802514751007514","0.020864402387853098","-0.017953481576054052","-0.19436649660320154","0.3618069438611941","-0.7061545462604591","0.2505222150200946"
"-0.00633876698408434","-0.005294390666301241","-0.02049479217815253","0.04406763048371194","-0.0038749116496262902","-0.21017278951248883","0.36517846673024745","-0.6619986977355394","0.27441633429351736"
"-0.004105026131230258","-0.008526048267507781","-0.035267540927358856","0.06864951600595433","0.01768797682740494","-0.24688425778191753","0.3528069282685979","-0.6183573631312866","0.3015791429340295"
"-0.01096029978309277","-0.021163084258854773","-0.04204569853883588","0.049507165720490603","0.05486784657786057","-0.30192597790822434","0.35015986485901057","-0.5577898398035585","0.35247263637960985"
"-0.05247706942751844","0.0587246716259469","-0.028200248012528146","0.013792043830441416","0.10567754305691902","-0.26989111434264895","0.333636616418113","-0.5070508516270299","0.3958154573872139"
"-0.05525961730025476","0.04818999966932671","0.011065049021160227","-0.00048476252942372997","-0.05927806316647358","-0.0809145419089957","0.3497976351292774","-0.48263122939230446","0.4042486759543043"
"-0.019664186554558635","-0.026610118348828767","-0.06317322820532277","-0.014082445321851062","-0.05844040919720035","-0.0385120315894705","0.38983795217745515","-0.4792934852402863","0.3881667242682249"
"-0.014108719002417258","-0.024145241938548775","-0.038144437195727986","-0.004277995951177342","-0.008414517503676128","-0.08417384658843265","0.43155009874747735","-0.4790692099415341","0.37236261117834824"
"-0.018653226254775553","0.029054747570642324","-0.006835833922507915","-0.05730508858825421","-0.04395138882582872","-0.01303824784582945","0.4873056133009944","-0.47612724572849047","0.3576535090264464"
"-0.007340099090536175","0.05026535705143351","-0.029329940947774316","-0.05255873306306505","-0.046971729709322445","0.1289987553716438","0.5349248908482008","-0.5051511079199524","0.3235937658213759"
"0.006124929283241498","0.022606389898911092","-0.002034742210320032","-0.02540823160954383","-0.05725094056083239","0.25856279030917195","0.56089397608752","-0.5432779087078274","0.2930968940264327"
"0.01482785323537424","0.008921184170685237","0.0027091420168471624","-0.024480140995693452","-0.030585542762399717","0.2955242275897562","0.5632066735927383","-0.595903447926801","0.26850000653908573"
"0.021712974286563668","0.008680617218885472","-0.017138757407083004","-0.02710941015173637","-0.013599116914066348","0.3076101079349506","0.5406369750478365","-0.6546503835352465","0.24148428892009266"
"0.02437902101999166","0.021171921157825263","-0.02355962639370155","-0.04346460034685068","-0.03399766637380781","0.3340874080486193","0.5104604521785417","-0.7095450610710071","0.21925720122388542"
"0.012309117859914651","0.03453086574805325","-0.025356395778828006","-0.013904336645956538","-0.016837008499865604","0.35867173895159493","0.4506368191218697","-0.7735954478617106","0.18117697009729505"
"0.006905775762407307","0.03699366472351632","-0.022029274538093852","-0.023921746228024135","-0.01861642486030743","0.3875759226687163","0.38398654885099914","-0.8301655938057966","0.15989780231754377"
"0.015349701313928939","0.019082021732","-0.008764159870660293","-0.06937122931790853","-0.0061660149204413005","0.35224049740244534","0.3167232744221189","-0.887817538249746","0.12358266344918165"
"0.007255279180332308","0.028848042806358408","-0.0009207451915416304","-0.0383533627234776","0.01450584906298873","0.3856344157859542","0.22301722972272983","-0.9492293921139531","0.08088867728094475"
"0.0007109961730697667","0.04061255617459744","-0.014090445208868475","-0.03927663958933083","0.024274330322947516","0.38320753218250153","0.13474463096933567","-1.0013404174122598","0.05899009286612999"
"0.0028523063699436566","0.04242823420458877","-0.021130889845530625","-0.06198020064308557","-0.019295881894240766","0.37260205083541337","0.024292427226137114","-1.057567554075901","0.013199023522575992"
"0.011617813578729643","0.04472379967728948","-0.02044729137831585","-0.08714840067138073","-0.03934668529188108","0.3508329049124428","-0.07072321726536346","-1.1043223575334198","-0.03588851904768757"
"0.01347220361433178","0.04761766637726422","-0.021923946677586438","-0.10519803016149158","-0.019105375448657484","0.32100650542600934","-0.1650422661227622","-1.1474755635462706","-0.10107272240618237"
"0.014228016790836283","0.05880361414899","-0.004404412546520135","-0.10215574142729325","0.03354596311427453","0.3047463852828764","-0.2769433887848931","-1.181024509706674","-0.17874495349164185"
"0.012331262704576566","0.051452611049305416","0.004672990302268706","-0.10434118301799901","0.011652081654527625","0.27800212797282786","-0.35195280666498663","-1.2121855835685984","-0.23494352978000815"
"0.04227494396481865","-0.04732214347355826","-0.017223432745922296","-0.04881845086928007","0.03578608915781662","0.046610910801632224","-0.41810152807930406","-1.2204705769577975","-0.29856856831040135"
"-0.011826837182906847","0.05256196124154268","0.021295998467721913","0.10262109837143604","0.10139593462540535","-0.18598404063687599","-0.3554357848354962","-1.2108267391114527","-0.2561409803255823"
"-0.022061606694044243","0.07361260824143073","0.03041759771288053","0.08919555520738677","0.036458605630290276","-0.22038026194861082","-0.27315390853537863","-1.192198696650387","-0.17425213995657762"
"0.006359857200524426","0.007480379253407792","0.006835309320920883","0.09637862996873288","-0.0044394904249164405","-0.30003300869753124","-0.2095407952291923","-1.1687025609399355","-0.12336354954504784"
"0.018632915239891183","0.02107532043883831","-0.02350386458519763","0.14520351315421834","-0.0018520969786842176","-0.3830566967716474","-0.0991164553113574","-1.1304570261703681","-0.030947895069332088"
