"AccX","AccY","AccZ","GyroX","GyroY","GyroZ","MagX","MagY","MagZ"
"0.008614780078707298","-0.031036093226284752","-0.020794253742340268","0.021345777187568023","0.09489573982384515","-0.29806723297873455","0.1667880301380237","0.7856719703806859","0.3151605472542855"
"0.01046339319831067","-0.04624083865134946","-0.02867732126306172","0.06251006181039016","0.07236045475334048","-0.26423647554660423","0.08492411121836706","0.8238911198209883","0.3047988019606124"
"0.009435102150531281","-0.05725020446363672","-0.03155215227926404","0.08125094551289164","0.06868435047675857","-0.2428556310001861","0.006626761945312335","0.8604875715114955","0.274988354932758"
"0.01673038423763272","-0.055144724276684536","-0.013840549696684221","0.06667010282952655","0.0831255049070289","-0.22934759686336845","-0.05258386695334999","0.8947621142266855","0.2651495999378192"
"0.01527845268327757","-0.018143532752456146","-0.0022757571381869933","0.07793812414125353","0.04792967841522325","-0.20355225104226993","-0.12912579522846784","0.9277305831432597","0.22755967221629225"
"0.02050174756549021","0.05552230585565898","-0.03131671353224747","0.0033900157834015907","0.02840994763410216","0.05566561352611417","-0.14420012475043323","0.9433770833973844","0.21855443300996122"
"-0.003960603231261256","-0.048656895343431754","-0.025664118351682995","-0.09499769815553231","0.01789858696825078","0.21989525385536046","-0.09847558732798377","0.9141817165657","0.2504241543390819"
"-0.004210936257874227","-0.06601594067364636","-0.037803670588204004","-0.057760469148784535","-0.029914222938453607","0.20289493421317442","-0.044308310820219216","0.8843003311731268","0.28356866452136736"
"0.014860589092700558","0.00015035824537413723","-0.03428861140028996","-0.05825050869489433","-0.07927406006155287","0.3153275977939301","0.03953393970028683","0.8487988706471157","0.3101594525226389"
"0.0066621824711262405","-0.07256401521658992","-0.052256305251554475","-0.07053711908281808","-0.05569051088092914","0.3486487096693354","0.1282523596595057","0.8032314070065205","0.31972036892137506"
"0.0241970481660307","-0.032067539612887386","-0.008816410750480634","-0.048593167463013495","-0.07561710216141151","0.2941409039357882","0.2180574688079242","0.7623869173043539","0.335785977160619"
"0.03562763928891153","-0.049151324829859594","-0.034724379607487296","-0.024305883318196646","-0.12965056977364434","0.29724731494820766","0.30084089396459524","0.7247086671139834","0.31803699389732404"
"0.03181294909106333","-0.0377617884460753","-0.05764041765043339","-0.005335095011351319","-0.08400321504236398","0.2739735011910964","0.37894319646010105","0.692505372746093","0.29412653117706583"
"0.03555831629692641","-0.04189692244916197","-0.05598202016048335","-0.0037707231872377536","-0.04976231407552981","0.24958332097639702","0.45799286901798614","0.6544049572874829","0.28508860507706396"
"0.023315105656886593","-0.03652155986037184","-0.03263434441467354","-0.00745343295497682","-0.025184828627937007","0.22224933095070953","0.5087328950059691","0.6294180504735607","0.2686307541137693"
"0.01870897796720819","-0.032323064095369","-0.02383017442755393","-0.0038889488380477394","-0.03036775273038868","0.18558397346974642","0.5672469282705296","0.5990617291542181","0.2711149580327572"
"0.011226908929480186","-0.020021533826955186","-0.02588716558569869","-0.014650467585514672","-0.051279664408441866","0.16121806209108155","0.6082067515557217","0.5815550631869135","0.26196262780490714"
"0.007759796510890732","-0.02021889013456294","-0.03619690440242426","-0.022627810766390415","-0.06127167961334385","0.12501866626198138","0.6463244646537784","0.5673729487069945","0.25204215557579107"
"0.006109524173911472","-0.011577800013568727","-0.04701263000001877","-0.046636860276972045","-0.0609055051639187","0.13198382220389057","0.6944174272321744","0.5471090158315011","0.2630903256365529"
"0.0006975167024059894","-0.009664482547181979","-0.06077753569182084","-0.03501262161345602","-0.0534096987874509","0.15572602449646816","0.7304732172532891","0.5366208474486773","0.25238536795933547"
"-0.00317109137809731","0.007106233242879831","-0.05496385084224502","-0.07556074649264305","-0.040873608813013405","0.19955311549122007","0.7802101455281655","0.5126629684760888","0.2666368535998448"
"-0.011374312096337266","0.01332960472393822","-0.040259255414543484","-0.09149040136480936","-0.04072761769265436","0.23310963507616028","0.8306158056117795","0.48854677752791037","0.27739084161756866"
"-0.015283358588831897","0.010910120264408008","-0.0652570676416361","-0.12571422412534172","-0.022631419999886725","0.2719106501281617","0.8901050727640826","0.4595361080010809","0.2906126901074448"
"-0.06206674998546091","-0.1142010025347836","-0.05219434768655011","-0.030652328677638223","-0.017136170631748895","0.12229570285890749","0.9321237214131104","0.41903462757935894","0.32333227067200876"
"-0.0458143596422813","0.02505153067843031","0.011789270998496195","0.03471355537565151","-0.08620504833302502","0.0045578717210042015","0.939535498959954","0.41923251754884616","0.2990949390150416"
"-0.023130336153814962","0.07305689442790364","-0.08156429875078375","0.03690862446235157","-0.053141649517283486","0.15942216822452654","0.9631361590433271","0.4005121264353532","0.27405677846313753"
"-0.0029207583514843554","0.025415081771391963","-0.053313714360962224","-0.004674456236222555","-0.04068453834566316","0.2831713900481821","1.0079690540541257","0.3672534188968643","0.25370918715300667"
"-0.0068394330373102484","-0.04682771398713041","0.0013981199413548972","0.044701119720136774","-0.07975989936373135","0.16264749653351518","1.0297307016634698","0.33584168440692297","0.22914498655933055"
"0.0060517550139238645","-0.09944913789980825","-0.030203542614335797","0.06253605604957477","-0.011744311696389934","-0.0757088765795897","1.0225418347195383","0.328519755535895","0.21226220597831433"
"0.02018594282422464","-0.0916971898804574","-0.0660645812388596","0.12561155880582087","0.05426952231409398","-0.35920043094970755","0.9716067619540061","0.3694302085612239","0.18925063283400567"
"0.007611522333589215","-0.021529751504041808","-0.04037697478805177","0.10257296089146455","0.010752441291528183","-0.48923285442270203","0.8772877130966076","0.4269238410295836","0.18238638516311814"
"0.01433007564014772","0.031200737736524525","-0.03907793117512701","-0.001478994040754937","0.04157308143696705","-0.37786316586025864","0.7913835394991603","0.4782169211206763","0.18768166193780278"
"0.02706239850141592","0.0070659310074315095","-0.030414198335350622","-0.041745129562268966","0.02595203155854902","-0.37434418463525226","0.7047270426168827","0.5224519256333909","0.2205810204175566"
"0.027909679514567465","-0.00528244541610393","-0.02705403305994748","-0.03444363660019298","0.015131217583477565","-0.3287915793984455","0.6402780145497741","0.5514494024955879","0.25998507073781807"
"0.018871694434506616","-0.019671486060303545","-0.02653358951391085","0.03678635526322398","0.088216047743155","-0.29263101370700056","0.5572438149648262","0.5901698731919247","0.27881272149225245"
"-0.0004934908126718017","-0.03934063890693733","-0.038142371943561175","0.08697930562949925","0.10521324342823617","-0.3310000434775874","0.4839619542573053","0.6284022152968597","0.2978364936087122"
"-0.007417124637186307","-0.036822787908825774","-0.03776236554486777","0.07085036159025096","0.08653595321049842","-0.3588363984091896","0.39942310810269743","0.6817665437352521","0.28466367545934235"
"-0.00134173464515648","-0.028017580437294586","-0.0319404196866247","0.014681624460314596","0.08178047196208159","-0.35376421167797356","0.3051040592452987","0.733745642387234","0.2856115953757982"
"0.001976140776798316","-0.03208208165660585","-0.02505280371030664","0.011672069212496885","0.08138318465094058","-0.32808778315344417","0.2305683263963945","0.7717537091934166","0.3123004440580823"
"0.007963914209513607","-0.03133939870955562","-0.02328907835984918","0.038468278813427924","0.07081677815282268","-0.2877772465000952","0.13633286901508793","0.8174399068157043","0.30658023766567605"
"0.01147916759475939","-0.0415063647035803","-0.032318360833151295","0.08318414670854679","0.03316303558546392","-0.238962909700248","0.07918416319336745","0.8511867429455952","0.29811433220491473"
"0.015936058287803135","-0.05162347226199882","-0.028662864497894038","0.08634966739147212","0.05867079559836099","-0.2074619605274322","0.009636055084632812","0.8896961310078121","0.25196043834161386"
"0.012032788711307266","-0.011486392881624083","-0.02766328244915702","0.08945068385123568","0.04436127250611932","-0.17508490637377","-0.062169022878592266","0.9239179030644723","0.2137658030871754"
"0.012234017951930768","0.027403186891187963","-0.03562482955221734","-0.0055706798383318035","0.06647294399787727","0.05104968091234718","-0.06946934512398016","0.9314772998988848","0.2110201040188204"
"-0.005587767904245477","-0.03162192984465724","0.0001362508674327578","-0.07380757947208129","0.017355308536750717","0.21559481611004228","-0.04291511955201555","0.9087331460724847","0.23491422329224318"
"-0.009650865490040388","-0.0810077490299764","-0.057985314762291","-0.06286785577375989","-0.04895816626502752","0.21538125035293845","0.02696735446108803","0.8712659785162339","0.284140685160608"
"0.014267492383494474","-0.006651163345234123","-0.04823319403060467","-0.03749459008078618","-0.07132831383873263","0.2735609309785095","0.07982503117674107","0.8476247234948248","0.27866563047073345"
"0.019469605240378333","-0.04390684063453567","-0.05811955615313378","-0.08478773865357875","-0.054149227577466416","0.3510027867646845","0.1638623284747957","0.804313205506384","0.29028582117073587"
"0.021126617312689472","-0.06015341962028762","-0.0025975234257763057","-0.032914790236298376","-0.06849704342258914","0.2880251572550875","0.24681293658365105","0.7614502381154478","0.31109102899225927"
"0.03904757356017777","-0.031640626758009556","-0.02926178762626952","-0.03397477754527064","-0.12271000831395194","0.28567108015973836","0.31602667878801677","0.7299065769791815","0.2880957992947861"
"0.01824971314530674","-0.04376765250180177","-0.04551119167474644","-0.02344614792590579","-0.10428162098994109","0.2721533384885069","0.4014014397035468","0.6897481058379042","0.275282536975796"
"0.03217400634098586","-0.043545366976390935","-0.03512916903218245","-0.016106144979852608","-0.0810068071294209","0.2369756606564604","0.4629804937581557","0.6616873081646133","0.25205849902262656"
"0.03369237242932676","-0.04239654552263212","-0.03136421433208415","-0.014524347387989361","-0.08325411306412821","0.19983706087282402","0.5082592099747798","0.6395632095759399","0.22576189306439315"
"0.021446273331287555","-0.02935233230716808","-0.044391825000334326","-0.02912637056254191","-0.05698049799360989","0.1752066191813828","0.5727918295179809","0.6127689077073676","0.22607241855426663"
"0.01222438975859949","-0.02528783108785682","-0.034827642215827896","-0.04646645359787296","-0.06483769222539269","0.1628513547562052","0.6128878742168866","0.594879654465721","0.21912645364920186"
"0.010210171713698325","-0.025458180742844564","-0.020397725326312365","-0.045028105696324754","-0.06571603224460204","0.15035047731482046","0.6571634927204039","0.5728479045294749","0.22927573413401411"
"0.007048273023710059","-0.015179033268705996","-0.031566609044431725","-0.032316922735052434","-0.08631753329461313","0.14247281313801305","0.7011883367956447","0.5585074780739662","0.22143087965299982"
"0.000995990695675289","-0.00345939249251252","-0.05996176108593009","-0.06125910119311261","-0.06796573147636441","0.16939180606751017","0.7461326871078998","0.5408029221371744","0.2170018055605938"
"-0.0010143760718933936","0.00011898897963858882","-0.05924305333187951","-0.10038428216434234","-0.04603834385784657","0.2106294122573781","0.7962597089378735","0.5125442344943963","0.24254661296439667"
"-0.007051253290598154","0.006307251812290967","-0.03072811666470605","-0.09342360256046449","-0.03124776805753658","0.23797310981747943","0.8472505093541336","0.49015628261307315","0.25810557435174175"
"-0.00993008309664713","0.011909574154830009","-0.031112253567733086","-0.10975183576679477","-0.03291110951080768","0.2683916689031553","0.9057088149679655","0.4531112803250618","0.2882102034226342"
"-0.05798439601300349","-0.09228406521623836","-0.037731386762365586","-0.06778846897644586","-0.01723621044865067","0.1578010099774202","0.9581485343031575","0.41817710437824757","0.3126436564416267"
"-0.035502564584493766","-0.02045779513850917","0.002969363789865476","0.019006295660953486","-0.06346393971578461","-0.03807033877364211","0.9667305925152929","0.4162113973480076","0.2970356647137753"
"-0.03236377355850052","0.061878217678037105","-0.05264250740674832","0.021583576338627196","-0.058789830567240055","0.04326181142886752","0.9703250259872584","0.41051216622677505","0.2827351487327596"
"-0.01868211083476934","0.042992257757383565","-0.030798335238377657","0.00416916903422017","-0.043633080317504895","0.18118888726389368","0.9951516943866509","0.3950899412714028","0.2651169130441483"
"-0.005924754670839843","-0.01485183728504051","-0.003952328847204986","0.013340514268308814","-0.046146042225324556","0.15315110099320486","1.0122600831601936","0.3629789955559399","0.2628942042745276"
"-0.007754111403780672","-0.07501434958315145","-0.02964798978146337","0.03325595248211471","-0.021014747839189413","-0.015970408615520973","1.010142432432524","0.35939059077590463","0.24535768582009346"
"0.014609293246754479","-0.10594319913751184","-0.0663433902813792","0.08172558106541057","0.032516845380595995","-0.2815158868031873","0.960990644490293","0.3879790950344946","0.2248630034884436"
"0.004698993850880779","-0.036863297887755796","-0.04966854428653902","0.14012982276522304","0.02726595164178045","-0.4546254942374669","0.873721143450006","0.4441798463688709","0.20541430175426229"
"0.006678550399789392","0.02767533085220497","-0.042151026399343296","0.06339290319306734","0.048183367903060284","-0.36980591229679577","0.7921915904347183","0.4986787439656571","0.18062129290488993"
"0.02280384859099628","0.005223973427006093","-0.02980701419830789","-0.022181094952254964","0.07469391938203016","-0.3499297355845183","0.7189375935525616","0.5259215964317339","0.21221317563780798"
"0.023802292239448734","-0.0043400171114064846","-0.021643072382900003","-0.020624328849976895","0.0391438849260747","-0.35808406449211927","0.6333120582087548","0.5677555359813364","0.23816656921249701"
"0.019043076275803174","-0.006114250316800188","-0.013956203818025694","0.02642716957335878","0.07810436768549969","-0.27816678743042256","0.5559899428234429","0.6022675466599112","0.25697787652009596"
"0.014824001958041741","-0.026877068722803467","-0.02116393388019962","0.08246593550737212","0.08766798271754479","-0.25685874939210807","0.4945502078956544","0.6296950964308428","0.26923546164668083"
"-0.0010914016185435255","-0.052055578703918956","-0.04286147314472663","0.08815000914240595","0.08162969424761242","-0.31029872634013606","0.4231352234875265","0.6734551650167881","0.2538889650681965"
"-0.009949339483309672","-0.045650847163343125","-0.040988289429428136","0.03354092636354595","0.11317095613633174","-0.36211269127385076","0.3425530405346177","0.714339232712852","0.26611386330111053"
"0.006016130698598189","-0.03421560721358651","-0.01473273863274701","0.011226316147960864","0.08241948227578433","-0.35995276486677785","0.2465900259807382","0.7618592107190546","0.2768024775314925"
"0.01338362423568412","-0.0288288187333033","-0.010116900039922161","0.031277502055286364","0.07089575695563988","-0.31020165099599795","0.15904188668681016","0.8075454083413424","0.27670441685047986"
"0.013660916203624612","-0.033938269665527196","-0.01754148157961135","0.053104960973559955","0.052015036488221505","-0.2674399619031617","0.09105415279846381","0.8411603178249082","0.28012019723908815"
"0.013638771358962697","-0.04345292112703783","-0.034565355190642764","0.07606557617036247","0.036954018120689","-0.23847753297955745","0.01805093034458364","0.8811604769905959","0.24550477684161248"
"0.014191429656177465","-0.061086187853086366","-0.02599868920270654","0.060831026508984504","0.07944940063044698","-0.20823128262972668","-0.04143833680771942","0.9082450174810829","0.23166187737198934"
"0.015870586573150512","-0.005477308801931375","-0.01406772743503354","0.08381282219697447","0.06670030721810857","-0.15826174923463604","-0.10488426716172125","0.9401580732270585","0.2026849461327427"
"0.007995687247506784","0.03336750225057596","-0.017384522414933636","-0.022909896399023365","0.054370040790406776","0.11763123257307143","-0.11332700624703665","0.9442873772570257","0.18441297257071354"
"-0.0056840498375581505","-0.04448125136141508","-0.012126390398230252","-0.0774361827123324","-0.008953248670771564","0.2736094686505785","-0.03578198025881198","0.9070312923348944","0.23179262494667285"
"-0.020472954794385104","-0.082203312767116","-0.0528283801017614","-0.039210209866970165","-0.05762908149553288","0.2390069622325503","0.024320291051500756","0.8729018689306616","0.2486754055276891"
"0.0187667471271958","0.009766907884654886","-0.0422728762771852","-0.03983118335860242","-0.06377506833294325","0.35345393920417173","0.11641023387977333","0.8391022621422409","0.26374406350997076"
"0.01907966341046199","-0.0687737353931126","-0.036973439217145576","-0.07528443735760668","-0.03992346988215207","0.3932062926287266","0.207357759868119","0.7884424299535073","0.2719321303745295"
"0.028518181333103576","-0.04471600149572745","0.023213172054173507","-0.030603228448067305","-0.07465978333938497","0.3041153955459787","0.2843455093490619","0.7465821050746396","0.2726022116947828"
"0.03975909704735844","-0.03848058089273091","-0.02495160635413285","-0.02943541318395889","-0.13579894990810978","0.29433505462406445","0.3706397765016067","0.7079803683599952","0.2643814579365532"
"0.018254527241972362","-0.03878907996304408","-0.052580549841743957","-0.016830132678623853","-0.09206383952382742","0.2579075317362397","0.43737363824856973","0.6743258808825319","0.23919620636313013"
"0.029091058836313997","-0.03298368836715074","-0.031017251968059732","-0.02189612107082373","-0.05739214508708131","0.21854105280463382","0.49931492203291117","0.6384022550882814","0.23484884950490137"
"0.021220973607335897","-0.04306236338145617","-0.01392109453118989","-0.029140811806533357","-0.07580617262876176","0.1999050136137207","0.5475193399127632","0.6140617888413509","0.225353306893507"
"0.010932286213543401","-0.021401989262801003","-0.03454676792114147","-0.022009725523556452","-0.06076908723177991","0.17217786844427385","0.5890364397052372","0.5946421865023362","0.21119988193401026"
"0.010506720068301376","-0.017679226070873695","-0.031762808000278864","-0.027438670514741376","-0.0628321092932471","0.17878384561287203","0.6436216735934631","0.5659877189205839","0.21863615024413846"
"0.00941873422186813","-0.023428526926710092","-0.024736820128784403","-0.03784888193337636","-0.06033111387070277","0.1584708298519731","0.6786465020761071","0.5500245947152798","0.2102192751238835"
"0.0074179956476307434","-0.0096748697212666","-0.0299804953803201","-0.052663672769402904","-0.06901399558648347","0.1486346706071794","0.7288571153821726","0.5296287351934614","0.21736136139097365"
"-0.0008795813652556371","-0.006586762865909488","-0.04122166292427789","-0.07649461360409","-0.055149625746484146","0.17376990408813883","0.7712658575862968","0.5123727298541741","0.22275469884667098"
"-0.0012165681318500028","0.0033450375068394345","-0.03979044317267716","-0.10185728905147001","-0.04994659794876991","0.18822442283030297","0.8157922505180912","0.4931642101492793","0.2326097972884452"
"-0.009352391496771072","0.016892405434962402","-0.04217374417317823","-0.1173768125942792","-0.03969849995897583","0.23281112839293558","0.8680369230757347","0.4581904562085676","0.264299740702376"
"-0.01052703108318573","0.0040176589646889116","-0.04259299036304106","-0.11940821424907619","-0.03675953117535437","0.2728085970614392","0.9310370322239108","0.429694300602405","0.28177088536946826"
"-0.06945157427054315","-0.09270370704925693","-0.030744638682040547","-0.04324894443657839","-0.04039973599611027","0.1426960864295307","0.9757027442825256","0.38466773621174144","0.3104699780125123"
"-0.042531145716319066","-0.00017673386655050273","0.007452200143147631","0.03808125347445713","-0.06075472744944952","0.0003050008943137263","0.9864581808730593","0.3829131118156213","0.2913808321087108"
"-0.024709359860142822","0.06212335498643411","-0.03739681591134204","0.02273695035874416","-0.05325892107298173","0.08644820515230796","0.9925603586277918","0.38014265224279986","0.2621260622732616"
"-0.01674684397518456","0.03130980306441302","-0.011812472068874823","0.01793860635518578","-0.047409703070399586","0.20170333436387916","1.011535623700728","0.3440343291436947","0.25300641893908243"
"-0.004711602311100119","-0.025111249128418302","0.0019001827431068964","0.054574116862289905","-0.031113743422452864","0.11435979347561723","1.0339938669441733","0.3256173693167489","0.2338682426947746"
"0.0036244874751113275","-0.081263273512458","-0.0388342314194432","0.06628596573935404","0.01801346522689396","-0.07047408864694228","1.019950498960679","0.3194695875980119","0.22231342578211388"
"0.009517904613180195","-0.08417375969096812","-0.07736770634782172","0.13215825608194387","0.078259931994079","-0.32517552282930096","0.9673157328479386","0.35627712192263866","0.20551236243527493"
"0.005594415830688661","-0.01840425082198007","-0.0470683918085227","0.14202643947609983","0.03625996197471977","-0.4344095538207061","0.8858419074833791","0.41783409509780295","0.17990218124413024"
"0.007474801988285209","0.027811402832713477","-0.03379088562808827","0.050937811625243364","0.04738161338961305","-0.34997827325658737","0.8098293918901784","0.46055194317778203","0.18426588154919446"
"0.02324193138756896","0.00660785663029983","-0.023766151610382754","-0.024103705902316377","0.0578666477878587","-0.3856049245552727","0.7361574376275607","0.5023067267395899","0.20386167430489485"
"0.020130099302903288","-0.0002829946574361506","-0.023607127193538233","-0.026267004252235254","0.04674978296707554","-0.34129002995622676","0.6571913565457681","0.5430192897954313","0.24359259356186524"
"0.022219417255788344","-0.0059890848690805345","-0.0059709063150470455","0.029024667992620514","0.07012511530390851","-0.31207035137065653","0.5836308575846065","0.5821487330953752","0.26060612171756503"
"0.009778828652457536","-0.02382012338970021","-0.02410691821790674","0.08122013752570989","0.08154353555363004","-0.285374631732677","0.5084821205776926","0.6225974428585671","0.26219143606060336"
"-0.006723894717335034","-0.050926492880920916","-0.05077345419578345","0.07872083956558999","0.08542785667400271","-0.33252898014776255","0.44553773908024374","0.6590619679027494","0.2647573572137685"
"-0.011894234536225717","-0.03849096806681552","-0.047192306938531416","0.02479819725112347","0.10297311738469407","-0.3860417636038942","0.3476521205762437","0.7149197099566811","0.26225680984794514"
"0.0052930533794199874","-0.032952526844896884","-0.024627361763943364","0.0009778466620300995","0.09539115231424387","-0.37208718288404125","0.2569275051908108","0.7635742571212774","0.29080881146947024"
"0.012365924200569135","-0.03137056023180947","-0.018192036012157135","0.034358300773461886","0.07879363723735881","-0.31410893359755676","0.1618282692232178","0.8100652072861465","0.29625117926567385"
"0.014514936952108055","-0.037724394619370674","-0.029565379694790887","0.07615511188310944","0.050804028178357934","-0.2530970798067564","0.07703864864033344","0.8534690739270147","0.2699055429669341"
"0.019700681880328755","-0.04334385579914933","-0.025705423395019234","0.08778994079221919","0.07483751720533413","-0.21333744573139116","0.019862078993248714","0.8842871385084942","0.25161722595806946"
"0.012027974614641643","-0.0631823195833624","-0.01914618251322428","0.0636528455849134","0.08532973149474499","-0.2163030974948103","-0.05910400208854358","0.9168466348214616","0.22144722309983528"
"0.022853915196318884","0.03672671434954162","-0.029018087870585706","0.06476963512025202","0.043236422890238144","-0.07698784423860927","-0.09836413202652766","0.9435090100437092","0.20471153354033803"
"0.004336973781625125","-0.005369801550155573","0.002025337024415706","-0.058277465683678364","0.02945581844716615","0.17395677412560467","-0.08663346154825137","0.9326118690572784","0.21200071082894717"
"-0.006820176650647725","-0.07095088708124865","-0.04810721364842914","-0.08455860424891444","-0.029301778222062133","0.2443655212289738","-0.026280415809661548","0.8929019485135055","0.24746599046186607"
"-0.004393871931168295","-0.04039078220689227","-0.04785525288407807","-0.026256414006641523","-0.06746074579774541","0.251379214842952","0.04477233886873318","0.8611867827370171","0.2772437505960496"
"0.019907688036951005","0.0009911999875240128","-0.04150666772329794","-0.0507381735705432","-0.065534141668417","0.3780868077792164","0.12345978169688474","0.8287064424118445","0.2698238257327569"
