"AccX","AccY","AccZ","GyroX","GyroY","GyroZ","MagX","MagY","MagZ"
"-0.005006245486506776","-0.19303859457058314","0.09763502399865974","-0.3891660840362416","-0.17470196364086404","-0.6628400819634755","-0.42435267070784116","-0.7454450481202539","-1.5914769934240849"
"-0.06220216004594042","0.032580229224702474","-0.066250805715212","0.016627646503994977","0.3329135249376605","-0.8496145172773256","-0.14868289477289395","-0.668259233508194","-1.5963251487800885"
"-0.1579887371081821","0.09528074230768971","-0.11181427450466291","-0.16482860878238645","0.4128850567729093","-0.8060843482386332","0.14173319440028664","-0.5774544522114842","-1.4985343078187494"
"-0.09941266415919148","0.09174567230241144","0.0849947278577909","-0.04445629136947255","0.5038634409081835","-0.7809005830662836","0.36904604421092146","-0.48363879396135573","-1.3919931376782821"
"-0.030924544594291517","0.08097686304930928","0.20130983145512096","0.3082991725207792","0.48324112170046085","-0.7407117489644629","0.5770239673554697","-0.39579820935522103","-1.1831677142953019"
"0.02412764342759644","0.10027272984484936","0.09286368559419042","0.7374731821057189","0.5381511523619873","-0.5908466893884666","0.7298208726112032","-0.3271432127778474","-0.9268461347823687"
"0.05608816842005213","0.11384704493703728","0.04695864148381313","0.7400487780766509","0.36282831087271844","-0.4548729204296508","0.8212401709046111","-0.2719204618337489","-0.649133547857215"
"0.07758458344077565","0.11831065115383328","0.08037462025227288","0.582293524857067","0.08192167965668162","-0.37907411862098217","0.8794018265756213","-0.22129571677975496","-0.4862276447160566"
"0.08423802232653615","0.0768404553070481","0.062443389365807914","0.13834969885310444","0.06855444142324217","-0.26922463874267233","0.9088160152157135","-0.1783382048978389","-0.42888145587500376"
"0.04044039862676303","0.05195789563887626","0.08899584740134785","-0.02981832093467579","0.17478423151073372","0.027023066886224946","0.9250918662632314","-0.167076591486796","-0.3631672720576945"
"0.03755819773012971","-0.05579209930624665","-0.11971069221784278","-0.10670905922403444","0.20594960788770572","0.17295153889400294","0.9119927475888431","-0.18372977525628637","-0.28880918198370575"
"-0.03868569501868345","-0.501730458089656","0.2891281767097557","0.07829231994519406","0.2023841828198645","0.21196162428198265","0.8943050154866011","-0.22066553323136498","-0.21750582394297133"
"-0.06852937967598743","-0.23433413717758284","-0.29698828377862135","0.8155076076535985","-0.02326332907817772","-0.07525705182861184","0.9013644207602234","-0.20919385863752538","-0.05744969016961006"
"0.1023324365376763","0.1778077143070843","-0.08169536826533308","0.7133729626634268","-0.14391756183560106","0.16378143078947663","0.9035606801786833","-0.20278699256222743","-0.03789940515678295"
"-0.13235722415926637","-0.24934547259711964","0.14917606090432187","0.037082784410282385","0.08067523024272089","0.25065304531950144","0.887559361558473","-0.2337243367618904","0.031511989818194114"
"0.009584000345952914","0.252196729652677","0.17324037714134924","0.2785908994703507","0.012983088597564441","0.10057760539562798","0.8866181075219904","-0.24356220215620045","0.03419227082801719"
"0.03702405850923622","0.17895290896795618","-0.31797172457199924","-0.5476572218189488","0.07231449480489117","0.4407595340842877","0.8472030947442664","-0.2903241554598781","0.00865076944029141"
"-0.06334930468141634","-0.00998895555242906","-0.09468862557115916","-0.2312667200897128","0.048536712296709826","0.5095972214411398","0.776962012271725","-0.36374053884730917","-0.019334517574037747"
"0.003477247575536451","0.03225524155067126","0.03096153062042881","0.1142862736389685","-0.06295839483347639","0.5121341609302463","0.6879742869058985","-0.43131021931356667","-0.008022155076696354"
"0.004975705255626887","0.07420075950573336","-0.11770812317947062","-0.06484642613935072","-0.030288997103844823","0.598328226986961","0.5686703377816831","-0.502334239230258","-0.006879094057801169"
"-0.005705286748749927","0.012771235632273647","-0.06984739291790715","-0.5804347467347379","-0.18553903379480183","0.5910886679570718","0.424854564790724","-0.5822158390215418","-0.11789396853084076"
"0.013995129952056559","-0.015423103190311455","-0.06533324063742943","-0.525764656066027","-0.23730188321177625","0.5111131974773132","0.2804112891087761","-0.6501589615905489","-0.34472851534599985"
"0.016264325434107416","-0.013877974718335863","-0.12772096837133143","-0.4719837592444235","-0.18674821395718236","0.5176411759187944","0.1272614135893608","-0.706070246411592","-0.5406964730612699"
"0.021030352911811403","-0.06166619624434818","-0.11269835180588406","-0.33523187793065407","-0.14396311314308796","0.41535920090677053","-0.035810848231312066","-0.7546994102290178","-0.7187065480107256"
"-0.005310955780305065","0.010076490898418949","-0.03921947247484392","-0.21218584660505838","-0.1559555300960126","0.3289795051313408","-0.15256556767338636","-0.7847148192375175","-0.8430085214309909"
"0.009682583088064155","-0.01736639683298787","-0.09003382462912352","-0.15979393189635038","-0.12950678455791534","0.312087200728266","-0.26861434658809774","-0.8120577831982156","-0.9276738686236374"
"0.0002831667311331004","-0.020631749176825257","-0.0756474758183429","-0.2282802552377036","-0.11562191783030616","0.26035529195101104","-0.3795254472203403","-0.8350478126487385","-1.0249917188185371"
"0.010107385085888838","-0.0058395040871965665","-0.06289533050375896","-0.2447119442951137","-0.10219256417756631","0.1870624913449963","-0.45639452686644866","-0.8497637655102154","-1.136381044315008"
"-0.024023752646506517","0.00012289222301927846","-0.19359142486761982","-0.4988742076552252","-0.07613721629503808","0.0635537579978999","-0.50769287185477","-0.8490985717646926","-1.281392130125877"
"-0.015276774801002417","-0.19012918110782753","-0.22521728105221298","-0.45622356485086346","-0.1283017454234882","-0.20850206392231557","-0.4801611912876433","-0.8221990703010098","-1.4885620858263195"
"-0.0310858618086553","-0.22679530746026025","0.13273892065692067","-0.2994065644492621","-0.28342879358423045","-0.5492037558233777","-0.35175845314409265","-0.7715043048527502","-1.6481570536024022"
"-0.02345018032876851","0.002002603243211763","-0.0950703862239592","0.15494082956585792","0.1483934603639835","-0.7879235740910052","-0.10836584687687352","-0.7007136862502773","-1.656276728426278"
"-0.11821508170003947","0.12116258380349491","-0.12510222424422937","-0.07760175856682337","0.4393462253948666","-0.7810243362120937","0.1774616288684522","-0.6213805795474071","-1.5212772805050423"
"-0.12683659060103836","0.07848750168224028","-0.025924825179965184","0.020354595197647145","0.36546614567900737","-0.7599863014243816","0.4242270620997356","-0.527821662742919","-1.4125288201211912"
"-0.04103375669442328","0.062302231195284614","0.11946168700585386","0.3081458632367952","0.5234919134071002","-0.7376179203192111","0.6301263825803833","-0.4396776564283001","-1.2032698218689748"
"0.019813304150111108","0.09472804218178628","0.053518227156661616","0.6538276367640231","0.5174874228747312","-0.6281892011366556","0.7899434741915526","-0.36258520234192754","-0.9320884491104049"
"0.029212720507042194","0.10409078231459017","0.036277380271786626","0.7734088782715794","0.48282701890512514","-0.5307954753841295","0.9001878532146198","-0.2941285968816397","-0.612847272891875"
"0.06792885195435544","0.13272949203840162","0.07197876583945619","0.7450466607345309","0.228650723128014","-0.42037673103509343","0.9558394981216747","-0.2307251298741826","-0.3911525590720237"
"0.07462172393696044","0.12048828964989275","0.05528906078122884","0.3672619231410435","0.06340300264926486","-0.33999906283145215","0.9895285488441272","-0.1757124401128807","-0.28942406998007697"
"0.042143191445047634","0.11927677097391245","0.12227800901466822","0.18210416850215128","0.16681275270051965","-0.05893401189626342","1.0000000000000004","-0.14203263047115025","-0.22581469507342286"
"0.045229727479875116","0.029646496956407135","0.06570108026970163","-0.1535971706377152","0.2728479144742034","0.21640745604520945","0.9891363596622594","-0.15639848136129936","-0.1405226351152441"
"-0.030440592951200083","-0.4322449982610784","0.1372081993168061","-0.32201661765122924","0.3240268789497544","0.29572703485217466","0.9653696952410643","-0.1997060952145431","-0.04964534252336054"
"-0.11273029641167007","-0.33640679642942584","-0.36656248836260136","0.8462307881640014","0.0784970495392546","-0.11779410187217858","0.942152095674485","-0.18761590713802453","0.1319436958921529"
"0.15198945994584143","0.1690905279213356","-0.08653100320080032","0.7314021344599507","-0.17134773099864412","0.11817220890117486","0.951839168466622","-0.16928223390616084","0.12587364772284765"
"-0.10959357279904051","-0.13362554183646944","0.35781160643720233","0.043659752693197974","-0.07086568771041339","0.33417713725536374","0.9119143097524698","-0.20270530210225093","0.17321214026398765"
"-0.04560441110139775","0.16301966973841248","0.15162066859330461","0.0956499970778678","-0.006062741268314793","0.033704499228510695","0.9021095802057725","-0.21668604082393944","0.1586282582987738"
"0.08727437078356157","0.2120198521005058","-0.327937686876674","-0.7211726694320925","-0.015498073460040888","0.36647670831179235","0.8692049078470556","-0.2545320639244702","0.13533346305163493"
"-0.0786206676411899","0.0050343181898272575","-0.02638025894120032","-0.3891354221794448","0.03719029570450903","0.48654819803401406","0.8084155846575312","-0.32510095127843547","0.08133368388314063"
"0.00588804372352886","0.04235859985218572","-0.01973628407141709","0.17989958099846065","-0.09782792071472703","0.48602224716432124","0.7239772538013716","-0.3903132784710861","0.06438484808573001"
"-0.004701535192708487","0.0759362379010701","-0.15422989229734155","-0.043959569289364245","-0.023084850773387993","0.5692771760080467","0.6211060313974214","-0.454697030998261","0.06615856345987767"
"-0.013878692276516053","0.027619192894593404","-0.02861054486019006","-0.5177619114420597","-0.20388378762817758","0.6124670238957616","0.4901932824899163","-0.536422501171871","-0.040146111297369946"
"0.012156113708309166","0.0126049834344019","-0.02759251645272327","-0.45928975053054444","-0.21728001305729053","0.5655955199201971","0.3417888960711023","-0.610924200670418","-0.23223554472783725"
"0.018725309159901907","0.011942848683569606","-0.05920497752669186","-0.4372438754936386","-0.23967055120109698","0.5718141154971532","0.17914804235048434","-0.6780970989025041","-0.42156980694379526"
"0.02708871051791874","-0.0498118839439717","-0.11121819208186985","-0.275392198206001","-0.20807450791697582","0.5041211447390441","0.0038002591373458845","-0.7356888731859205","-0.5862848997665843"
"-0.005203410970729223","-0.019324723919088856","-0.035951065482450556","-0.21665327914035348","-0.18532370034122722","0.3686114500770161","-0.1422902111084471","-0.7729980732637486","-0.7168027601758071"
"-0.005651514343962022","-0.03776523199978082","-0.08316213287872273","-0.09498396518493456","-0.13595022405334034","0.3053117159951647","-0.2601038413415647","-0.8011229316270786","-0.7978221368771502"
"0.00029392121209069423","-0.013371038162857245","-0.0705841240022581","-0.2245640381939303","-0.145872127029586","0.26634803803686374","-0.36572038801859036","-0.8227592334551341","-0.8783251653251303"
"0.00862147430024889","-0.010771578930708297","-0.07503799828492529","-0.2352588938446574","-0.17636665687811395","0.21354875837699683","-0.47031724282275933","-0.8356663261314174","-1.004850195347661"
"-0.018252181199268133","-0.006196769448580535","-0.18427512542823626","-0.4455839005423707","-0.10770427238348575","0.0679810267892552","-0.5281651471482744","-0.8359697478399015","-1.1469050888682837"
"-0.007981651884772524","-0.1598390034078167","-0.19138792916987918","-0.43748917034801305","-0.14366081810249287","-0.1885406815031511","-0.5131050825645468","-0.8119527526068173","-1.3398853215755453"
"0.010797464280667354","-0.20644709962500005","0.03257832047281357","-0.33201238296698915","-0.25157600656700113","-0.5375709601172309","-0.39988006575928403","-0.7572668246854213","-1.512802862606337"
"-0.04768361075319793","-0.026346447398616222","-0.17878982762747772","0.2801883822094645","0.3512748428828497","-0.7411139466883457","-0.17856771043122782","-0.6896971442191638","-1.4764614053849123"
"-0.14183909153687232","0.11620596907439305","-0.018457051006771336","-0.15590600845451494","0.47765073396342766","-0.8087141025870971","0.07847307936499394","-0.6089402894995607","-1.32155692937602"
"-0.11871695747806017","0.10432512716797321","0.14402564086917743","-0.18415477712141534","0.3983914589361565","-0.7907389581581842","0.2956282293652506","-0.5039563783640767","-1.2620389245990664"
"-0.056735298892500355","0.06095364288808028","0.20962819515297454","0.18601355524374444","0.6036208043045767","-0.7477038017027319","0.47450571521520024","-0.4116344885249466","-1.0920381599613174"
"0.006108510583159389","0.07851624208878727","0.1316786976509865","0.6580896348587797","0.6414283895187347","-0.6448030609616577","0.6108306748324821","-0.336584295937986","-0.8229852456517245"
"0.029786292824780135","0.12702341593857475","0.054513483876066644","0.7190760680276334","0.47984547877870737","-0.588897577341958","0.6914255517063359","-0.2663771806210594","-0.5271571123719431"
"0.07008512538635164","0.14165670447199363","0.05217335804995549","0.5642643530605431","0.19587034584923244","-0.5001356335096844","0.7396648210760877","-0.19704532023245216","-0.35367592401114456"
"0.0753673679500198","0.0855244796852426","0.010018944914455851","0.28706277050330914","0.1349930939069172","-0.3676888292064556","0.7675494719068956","-0.1424644229024545","-0.2672762773415536"
"0.05887716381505304","0.09847092743440422","0.0366028814599635","0.07751964115391448","0.17611350148376165","-0.04979793590683491","0.7733930907167272","-0.1180273053037769","-0.20114428501388956"
"0.05006028184332462","0.024154868505430784","0.07897020987884057","0.11140099291438874","0.2510743894954473","0.24135299641187458","0.7458221912314139","-0.13463380881042364","-0.10317213092541547"
"0.008320348833436455","-0.2443711714639889","-0.005416910813759284","-0.17796414823413956","0.12478131897393642","0.3868650390840016","0.7108781351269836","-0.18047382692293823","-0.05957420702886693"
"-0.08476864592194382","-0.5096230158875568","-0.3832193084242454","0.9151586422432287","0.3280850863440452","-0.048841942855452104","0.6664038819031641","-0.1981306363435682","0.07033664856342542"
"0.04671026102503626","0.12240284288602218","0.10958279292023866","0.6611251586816638","-0.18671094470560212","0.1303216739910786","0.6591483820386078","-0.1848967818273789","0.12161673082489337"
"-0.24655188779391116","-0.30470391720760587","0.15863300900526336","0.33669205191462465","-0.24174106517777594","0.1288985128142628","0.6434215958457048","-0.20309041427071148","0.12378460517107377"
"0.14544535828314972","0.3312328476568656","-0.30227935247532367","-0.11373675680186313","0.09201750580696832","0.1567893780512076","0.6465983282188351","-0.2057861994499352","0.10104163248478092"
"-0.053096699501850086","0.20086636355977483","0.020362649338743367","-0.6240665689565975","0.06508425999832819","0.4444411901721373","0.5985943723582045","-0.26547858556131815","0.07187386855435338"
"-0.040549805051331884","-0.052066900457657626","0.03359969765793649","-0.15831296421306448","-0.043416883921580204","0.491745830158037","0.5252157764307198","-0.3338184903644967","0.03300979391191874"
"0.017866743096787874","0.06641432013200603","-0.030291631243572707","0.020436462355294626","-0.1167896877131531","0.5304186882236843","0.4413657293473628","-0.3989958073600145","0.0024624735793763596"
"0.008271953669127332","0.036851495797684077","-0.12470706848080475","-0.2670583055286283","-0.053296548412701615","0.5673590022479906","0.3311997881606693","-0.4662153858549442","-0.040264358988979794"
"0.0013621996538776653","-0.026479095428833043","-0.023587378375978952","-0.42013455940101896","-0.20127494001756208","0.557582503728995","0.1963651474344852","-0.535932358412012","-0.15740840547712945"
"0.01802985272464461","-0.004892618231498833","-0.06438888533839773","-0.2715441351780015","-0.1768056058411699","0.5056989973481226","0.06909975791835155","-0.5991374343023834","-0.29563601537931394"
"0.02418679307286319","-0.01779860833144434","-0.07411373565183045","-0.27400014990742594","-0.17780359357792916","0.5252519943861138","-0.08067729063699991","-0.6527497161783744","-0.42263797775800416"
"0.011037647688720112","-0.012773679866780834","-0.0693986567119843","-0.2446628853242388","-0.17673106733800947","0.42006182044755325","-0.226571666291859","-0.7003985944760823","-0.535241312888336"
"0.007716305486318659","0.011005911430138135","-0.05090000893946283","-0.16075978038544986","-0.17146367978133817","0.3524616645488018","-0.3543469017444212","-0.733880013000727","-0.6340254344591977"
"0.004588543941153766","-0.009395134537158427","-0.10279936505433204","-0.1647764836258319","-0.10189441016492454","0.3173157711387416","-0.4698466158045178","-0.762635054912447","-0.7044655843511802"
"-0.0010270875321995877","-0.0054488556382080305","-0.05959343573480419","-0.2521443783826603","-0.1342979538999505","0.2603243536645585","-0.5789928651183542","-0.7839095847034637","-0.8123114206890761"
"0.0040884605766259565","0.007718893241365334","-0.04665375887147637","-0.25306116790088484","-0.1388779308163644","0.2028905186941044","-0.6690395012752245","-0.7986605477620733","-0.9257030737634734"
"-0.014452264594254027","0.009912007340950093","-0.13737214557632904","-0.4067353279808133","-0.10843723433123012","0.11709555653262725","-0.7406532458843031","-0.8051491042973478","-1.0604660263014896"
"-0.016513540111124877","-0.11420365941222337","-0.19355123953574613","-0.44107660759323974","-0.13863775119506963","-0.08744673669090386","-0.7485362484398478","-0.7924404027381502","-1.246154318026144"
"-0.012050430513726285","-0.21005070444589033","-0.02242870130695425","-0.27595944255674204","-0.20693158420184898","-0.41415813545813734","-0.6822954956223594","-0.7622266026125646","-1.3986544243056365"
"-0.0027836527552721475","-0.10547984062496384","-0.09454797690960125","0.07480913301307653","0.03362487063666783","-0.7730113200208916","-0.4965154801715352","-0.7082175385024022","-1.4572658634469147"
"-0.08530636996982316","0.11673213959425312","-0.040398242209805466","-0.004452993280947344","0.45214200177074265","-0.8331553488845862","-0.22163008260032327","-0.6429585310469079","-1.3526166563722049"
"-0.16739890794607076","0.06893905430713285","-0.005443701035008407","-0.1874141324989162","0.38655226001750614","-0.8295665076560941","0.0365480558233159","-0.5544760928266723","-1.2771352132279228"
"-0.07822633667274505","0.0596470597904446","0.16122496291111627","0.032783992087369734","0.623373507642094","-0.7895942415594411","0.26146855162455696","-0.47049829997085385","-1.1600699985341796"
"-0.011333465116553833","0.08255758540939304","0.15262530189014684","0.4895414080467189","0.5768697637258843","-0.6988522473942064","0.4449346509023601","-0.391106842939429","-0.9138388887052862"
"0.023837272441741598","0.09800002692713451","0.04639537708205026","0.701782780794233","0.5729357871701942","-0.6028816828184961","0.5814557051105768","-0.3231637203704219","-0.6249518949230024"
"0.06038637597610109","0.111439483188602","0.09634641435657677","0.621050111848234","0.2704916695687427","-0.4975677557341254","0.6568344658655874","-0.2574262402207797","-0.3959691817102646"
"0.09664331611111279","0.11602247263259312","0.09366940149825786","0.4236490777903758","0.07126267370473828","-0.3556538357764261","0.69797511104353","-0.20516768596725618","-0.2870275834301175"
"0.06546786822856096","0.10369947062545055","0.05257253234656747","0.08411500655090814","0.09709440607778518","-0.1434450351699611","0.7300954050385109","-0.17079934244858117","-0.2264256414800737"
"0.05703277033082687","0.04028265817929249","-0.049547102766381974","-0.0489819814326816","0.231288557934303","0.1984849067032659","0.718643480927968","-0.179726942717439","-0.16712442413773815"
"0.001435688607087831","-0.14522561207893034","-0.1636533526217216","-0.26627949436598936","0.2545031606408277","0.2984526978886414","0.6811501951413971","-0.215507364187136","-0.0949460331790908"
"-0.06462191826139749","-0.6243414540200699","-0.24829035910302266","0.8840368575944673","0.23963687028827269","-0.04145697387923611","0.6570305604565213","-0.2322539084823138","1.8687952772929857e-05"
"0.026866451244795284","-0.02593302770444047","-0.051991710455364715","0.676701381934443","-0.12006524082425925","-0.03509915601324369","0.6719729682856878","-0.20833027377491692","0.10466789502748275"
"0.024950361220851872","0.1505043280874555","-0.08970564441882174","0.397893118081056","0.035343397237311384","0.3527401091268744","0.6524419470286668","-0.2207588937570524","0.1367130194537498"
"-0.1477719801984744","-0.3288679667121032","0.15016060153522728","0.21583834335000082","-0.0533126984217197","0.14421605843690438","0.6189489908971482","-0.2576596415349982","0.16986178900170873"
"0.05328304130361486","0.25157770551166514","-0.0905897217200429","-0.28373835562609256","0.056189331954515316","0.21573300140054458","0.5972217102216665","-0.26834942172620574","0.1797551791997322"
"-0.02230303569329256","0.16817746731334315","-0.1415782103124418","-0.6102687333980334","0.023781647191535974","0.45625961559699907","0.5407072491145019","-0.33198629004788144","0.11759630931015878"
"-0.02336055965412197","-0.035070266185875755","-0.0392261700301562","-0.01723837432808088","-0.0010993051634199487","0.46934651076641415","0.4539942210035088","-0.4005245859681458","0.08145193157475049"
"0.004418264659325319","0.052972653070034945","-0.0507660578332172","0.11921363402621575","-0.08389750267963088","0.5173008547678167","0.35943740925515805","-0.4567743026948057","0.09501100021267898"
"-0.006189238391841361","0.05174344799002574","-0.07746251330797117","-0.2803287571502873","-0.060904444968610846","0.6010507961947825","0.22785793873847754","-0.5237954900726497","0.07352933623689117"
"0.012389127462390216","-0.008175214819264405","-0.0537665626131193","-0.5427513247314593","-0.23631631855887703","0.5358019500664224","0.08823858999350463","-0.5950995915664034","-0.09597478809609647"
"0.017196380450431616","-0.026859353115454596","-0.05962022595605331","-0.4217596378112499","-0.18789527870026249","0.48029866417060546","-0.04734121017822855","-0.6526680257183978","-0.2871340063525663"
"0.02965544663979618","-0.03694281421243653","-0.11295285890775075","-0.3365196759161201","-0.17694640079158405","0.487321655195327","-0.2001773343521492","-0.7019157030185026","-0.44589335710793965"
"0.0061945464308201074","-0.022512919325350125","-0.04927250299857843","-0.24997965129280553","-0.15357029799487842","0.384977803610398","-0.3488170342800837","-0.7437178783950371","-0.5641844062047049"
"0.005445317590774874","0.015286463365234917","-0.027994369771460158","-0.15310658092896626","-0.1763252465985804","0.33590968129670473","-0.47114084010468166","-0.7736399268778495","-0.664584579560901"
"0.005124475575540178","-0.008230042671754026","-0.11326764400742799","-0.13826930842499024","-0.11801543198734706","0.31994552548720556","-0.6009162403847702","-0.8009012003785712","-0.7371492463121405"
"0.0006990066614931178","-0.012713988253183265","-0.06955270048416677","-0.22050747453971245","-0.15759537716554237","0.27131363301249284","-0.7210045678727213","-0.8248481752173898","-0.8320982010851229"
"0.0182700361326974","-0.013231315571028862","-0.13849733486879234","-0.2562561333791124","-0.10987417103104531","0.20769832840882568","-0.8313273847321617","-0.8395174478160229","-0.9377643383076774"
"-0.022320959828221895","-0.023465774342407618","-0.22569950503469724","-0.5441617701441126","-0.1256639106171992","0.05194261909226995","-0.9058825482052495","-0.8436369810119796","-1.1109577906188919"
"-0.007067521003377625","-0.1677824096173006","-0.18138178153333065","-0.48765196806759303","-0.2084596235166381","-0.21448552852223257","-0.9191777614705713","-0.8262602531684117","-1.325380271404738"
"-0.014739050753123047","-0.22675109145018796","0.002780896888473254","-0.1815239898082491","-0.14649742225054305","-0.5562267468480991","-0.8434852493700666","-0.796536595802685","-1.4487914455482094"
"-0.02920382764107756","0.008925327076187312","-0.06726213656736649","0.1876631631394128","0.2609176129405792","-0.8198518857100034","-0.6611172798014928","-0.7596941983532938","-1.3359043159580142"
"-0.16720174246184835","0.12695488112296274","-0.04748425573019928","-0.19729644894452777","0.44940892332152643","-0.8225435166313726","-0.442511029828325","-0.7034794918237666","-1.1221124895274204"
"-0.11418215134094431","0.08760263215863943","0.15717963950249828","-0.1955977820779846","0.4288694246728709","-0.758099065950778","-0.24488690108508976","-0.6151020841949293","-0.9481307192721402"
