"AccX","AccY","AccZ","GyroX","GyroY","GyroZ","MagX","MagY","MagZ"
"0.026923808476569076","-0.014961266965106558","-0.11082973387375754","-0.2648015928683832","-0.05913125679898296","0.17216880024675424","-0.6204864805599782","-0.857302627959473","-0.705458864960703"
"-0.014936216237345461","-0.050651988135344876","-0.31691351083265873","-0.5348405656778825","-0.014792856399584027","-0.015773555380678435","-0.6504889529728728","-0.85902979768469","-0.8589325439011164"
"-0.028755724267844764","-0.20018832339926973","-0.03980215978701242","-0.45168561004493574","-0.17437068140459547","-0.26226043046221054","-0.6041714105942738","-0.8357363465256831","-1.0687039488169754"
"-0.024955807662830717","-0.1766676168413239","0.02467654471538387","-0.15024582968982395","-0.16516103523632736","-0.6038407696985242","-0.4524334161295826","-0.7888110123020525","-1.2382317226882849"
"-0.05187785832665687","0.08120015390017425","-0.040967534411349385","0.12187814938185847","0.27765150690009865","-0.8065174842489685","-0.18229350765897293","-0.7216381140699664","-1.1634597656936616"
"-0.1490983661832435","0.08629162745999651","-0.10210281930185476","-0.08074459888849633","0.3339819101496269","-0.7960294051415647","0.0806301198652676","-0.6412663715188238","-1.072448459051287"
"-0.0890166659001907","0.10725001623425409","0.03996371471566636","-0.0676489198505791","0.46634572765076043","-0.7460640725207486","0.318375201913589","-0.5525271918529479","-0.970164205808774"
"-0.02432846294030481","0.06842393778979086","0.1608164120370671","0.2623063873255653","0.5043603642625865","-0.7295430275551039","0.5179210576479769","-0.4647332875096567","-0.7767858725397594"
"0.02351105318602812","0.09774136326821171","0.1340536507647215","0.6147644312048882","0.514257421071112","-0.6101521801348377","0.643107844500211","-0.385178449558279","-0.5186708697040768"
"0.04068775168878753","0.11896504810290293","-0.025804269184344118","0.7670005502010462","0.4219953182702968","-0.4684238898958536","0.7350762076482336","-0.3165584631780382","-0.23523903609472724"
"0.08074460842881331","0.1306402855624867","0.10391130308179872","0.6259866707925203","0.1716618964339018","-0.3434332126276816","0.7792367095265585","-0.2554189889185005","-0.04519134613938987"
"0.07910634249627421","0.12164453831328269","0.03668526139030456","0.20478167778907141","0.0630261691055093","-0.25028731360508616","0.8099451224668156","-0.21086267803418773","0.0437309179512111"
"0.04305552991294961","0.06366408430551064","0.08447231854343294","-0.12011442301559945","0.13688554368160175","0.005850450552444373","0.8144160791401097","-0.19663686793256976","0.09229130330565265"
"0.02594873553641453","-0.05202268444758536","-0.04814731370611515","-0.19847999661688465","0.24625009192978528","0.268145552479755","0.7780209230627688","-0.22476172629589974","0.14901077938117338"
"-0.0408724394800595","-0.5673028010268374","0.28617455481703963","0.11274398224208898","0.15805861960712098","0.2571284286740134","0.72974243477483","-0.2708001355255001","0.20435069905457923"
"-0.04840057615037042","-0.17981137515746257","-0.29596355781584227","0.6710596002838299","-0.0031843127379356773","-0.09335904323198001","0.7205259890009346","-0.24894210244893697","0.36698069091531466"
"0.07864031498811211","0.20304179125533067","-0.09667779949890676","0.6445677560113868","-0.007992460294579598","0.3000522072982367","0.7136234594000591","-0.2418467024966944","0.41983740906491374"
"-0.1694422593280123","-0.3665621152987163","-0.016414296636525487","0.2932840612473817","-0.14501907527119426","0.20623494745962162","0.6806795681231556","-0.27372932201894234","0.43599792691825884"
"0.04519925645049527","0.29455566730191485","-0.09303432940902562","-0.02931424000893625","0.011249240193493467","0.11538157546315776","0.6760909546953007","-0.2776154539006805","0.44238330226519035"
"0.020082166174050793","0.19782209126629885","-0.14745196632131266","-0.5037494428859179","0.05167561148535514","0.4259400948735317","0.6209099368064874","-0.3331999768818177","0.41944325009288097"
"-0.054243844137326004","0.004438507454103374","0.07244364315368165","-0.09114203452829436","0.0001413468114060934","0.540380816461395","0.5305103303859368","-0.4067097207949361","0.37604634727206915"
"0.013471745212120636","0.04094368752987298","0.02787931566571687","0.18580198843184642","-0.0937531492086228","0.5190643370956103","0.42724691880011817","-0.4678025147916301","0.387398125666614"
"0.004844859070642931","0.046645342028692624","-0.148744594496583","-0.19131432068347032","-0.030238476562813855","0.5181361885020348","0.30978625883068184","-0.5291287101025426","0.37379964113148223"
"0.010473037438446804","0.01740396808759609","-0.02453843123032292","-0.5327248975589026","-0.20247583812403588","0.5141760878361125","0.18710948274240263","-0.6015648079702559","0.23280897683534768"
"0.021435438361213824","-0.009527782567375248","-0.06910396427824389","-0.5418927927411487","-0.23554608735955246","0.5162180147419787","0.04960795557951633","-0.6687727163994748","0.013893083768327713"
"0.026708718857417327","-0.06960075925181762","-0.1328044128533531","-0.3053856265246399","-0.16686713875311085","0.4602815928358264","-0.09891408759385746","-0.7250924535204002","-0.13524484647972485"
"0.0021006740129653053","-0.01224087694540994","-0.05432915725935096","-0.22177380922542067","-0.165782189429331","0.34410832720662204","-0.22476759605526658","-0.7632068881322824","-0.2633031549034629"
"0.015149444241504217","0.007514836354881794","-0.06535333330336625","-0.06718899199862695","-0.10741025939879734","0.3226371564085746","-0.33407072104185026","-0.795894742188584","-0.32666026806801607"
"0.010186251279577818","0.01649488692051015","-0.09411933336961525","-0.2159940492192221","-0.10822604190560886","0.3185533025968423","-0.4483154297199697","-0.8253499880429596","-0.3909081805093634"
"0.01203064476380399","-0.017255635727756822","-0.05174390090881029","-0.3214647042288867","-0.11308346769489774","0.2561105590497256","-0.5562066736518293","-0.8492269424875127","-0.5224311462972697"
"0.02492526743195083","-0.0023959612227679172","-0.11285239557806653","-0.31067173063640985","-0.07627801124545223","0.1638092752472839","-0.6378212423985393","-0.8627058683836314","-0.6595275199497201"
"-0.014918292102416159","-0.04472041038414941","-0.30385327797370987","-0.504699960446619","-0.030326680458220383","0.02156895636751058","-0.6710788850209375","-0.8645730788973796","-0.8220156145805236"
"-0.040567729186261184","-0.19334810664108903","-0.04148994372570734","-0.42123838624570414","-0.15629509438818795","-0.2610383681473361","-0.6270360398971719","-0.8464144566511798","-1.0163202214338154"
"-0.01905876727108716","-0.18062052814178517","-0.015014507576258647","-0.09091820297367766","-0.12735345002216922","-0.642730195769339","-0.45411982961161473","-0.79685168757688","-1.1659429672174682"
"-0.05619757484462101","0.06820506853993312","-0.06436209511714862","0.058150546215370046","0.31596429752456645","-0.8335575466084689","-0.1811169401133689","-0.727344776202609","-1.0938512912326683"
"-0.16159148822897382","0.0721004990273004","-0.05096698449258564","-0.16370025245226386","0.4297390405430761","-0.8103538317690805","0.09972973302223452","-0.6407412185618321","-1.0110384912085757"
"-0.08367527369125584","0.07033628022541669","0.08703346369484938","-0.12005003311632616","0.5776151487574887","-0.7638535872309462","0.3335137043336898","-0.549994787593677","-0.912144005125545"
"-0.01599374019817487","0.06354691187881911","0.1953289145612536","0.26146625244933275","0.5886716933929544","-0.7369991545901609","0.5322751817043421","-0.4590266253770143","-0.6985374334118069"
"0.015178122857391112","0.08220606812931848","0.18443868962348386","0.7494619681132714","0.5205931938397497","-0.6495366187888929","0.671423903431073","-0.3756556759381639","-0.40454608094169836"
"0.03799733903589784","0.11601362943057866","-0.030003636365144602","0.9120004709931574","0.3985156897747572","-0.5130987755332894","0.7468811020224568","-0.2955756850297945","-0.1045398625583693"
"0.06816007329494357","0.16495412017907443","0.05686298627961499","0.6570164698708914","0.1053930260963145","-0.37424774593438936","0.7971205362197352","-0.2256136410927973","0.07415999059214352"
"0.08532960214373124","0.16222378155711156","0.035509840432999165","0.07844256304349845","0.05143129083610703","-0.2431003496621663","0.8214754844137316","-0.17887502792054144","0.1245335072179362"
"0.04102651783895151","0.05688134836042391","0.09189655860709697","-0.2339680296735117","0.08123426901642421","0.18917248248105803","0.8127688845762643","-0.18249274829092832","0.14652757785736664"
"0.03948683464852364","-0.12986054857881535","-0.22695864543340613","-0.22344488042084676","0.09870112492368806","0.30490333061399144","0.7768051365989781","-0.22798266443211515","0.17758730485355168"
"-0.0421450530600406","-0.771050175439873","0.0888900260274138","0.5131510377802622","0.2035560937306648","0.0782277872623291","0.7292325888384015","-0.2648017217500845","0.24081040396761375"
"-0.019255932755309575","-0.0818087996327723","-0.21426008056132048","0.5026340208989565","-0.12115433117599239","-0.06610550669595705","0.72974243477483","-0.2319854969709625","0.37462737497275106"
"0.039506551196945884","0.14589038743641378","-0.037069557219601576","0.3679364839905733","-0.003915618274498693","0.32851543083455303","0.71911410794621","-0.23855574396621346","0.4040710501836016"
"-0.2054518464009995","-0.3044607291522084","0.03425404881194639","0.31774302441419655","-0.09520665002025144","0.11627878577028077","0.6926805570883136","-0.26644720101532493","0.4000900445660703"
"0.08224844334938257","0.2972528439163235","-0.17183776521332955","0.039633850895776916","0.07369759814131274","0.1966502663166316","0.6798559708412328","-0.27185044143948334","0.450345313500253"
"-0.038165895105733406","0.18928840132235006","-0.03420970110125737","-0.5428433103018497","0.08777295215477643","0.4661289289753523","0.6168703882332477","-0.33467040516139424","0.42291184904676976"
"-0.024453931884809953","-0.013522477997354782","0.044053911744876655","-0.10547032020944334","-0.004758731565802371","0.47971083672800763","0.5249804629215988","-0.4058811461294604","0.3887382661715254"
"0.0027333959759699984","0.05712011481481418","-0.054724313022775556","0.12122505183208644","-0.04273941174841084","0.5201162388349958","0.43061974576418205","-0.46454656645828185","0.3851908354232302"
"-0.0015827357150082608","0.05490710351069689","-0.12006566264939371","-0.34323462255462134","-0.06668490588870321","0.5693081142944992","0.31249236418557025","-0.5330848623785462","0.35842744122220277"
"0.015260573878065944","-0.017310242500196082","-0.020519898042954027","-0.5143891071944108","-0.24111162892886556","0.5240144629280131","0.17365739380433348","-0.6110058911303945","0.17159608847865307"
"0.02140675974532693","-0.019527896485370948","-0.13323305639333907","-0.3915883707231895","-0.14634420421626881","0.49276679361097014","0.0376069666143592","-0.6735341032095322","-0.0029769202346763227"
"0.024041607579935752","-0.05637132903819344","-0.13336700749958472","-0.34970427433874807","-0.15395955462249408","0.4240837976863806","-0.10479692532187576","-0.7286051432993889","-0.15356929708953"
"0.004400340524395986","0.00030061847550478117","-0.05708855004801092","-0.20770921551272425","-0.12201566499029085","0.3140363127747746","-0.21543349352681035","-0.7636386805635866","-0.2645486972550866"
"0.009388627275223427","0.01846006748817234","-0.07563408070771835","-0.12014815105807596","-0.09569115029079432","0.31165406471793083","-0.32501115094070204","-0.7926037836581031","-0.33654183349687855"
"0.007777247545078304","0.019464876317064752","-0.07973298455883461","-0.24289063000138322","-0.11892231710913245","0.2984310410881247","-0.43835382450052546","-0.8203085196558398","-0.42341841252262913"
"0.0188740794798152","-0.016446924903534943","-0.07132085508660907","-0.26787084473374373","-0.11933227887651487","0.2634460267676175","-0.5431467738956284","-0.845130749422978","-0.5484889959383585"
"0.022089669286133706","-0.010990669260616412","-0.10549847984518147","-0.25611815502352675","-0.06360108237183754","0.18168232333090345","-0.6254672831697006","-0.8618072733238903","-0.6608400693265893"
"-0.009003327575743299","-0.03937469476641156","-0.2553026995149814","-0.5506314219282393","-0.013434185128087283","-0.0023373669572144683","-0.6563325717827044","-0.8622740759523272","-0.8249520989221681"
"-0.03183867547568638","-0.18447837502059103","-0.054777893465273814","-0.530271949015158","-0.15462626012298472","-0.2602680048146684","-0.6095051834676769","-0.8412796277383726","-1.0366982402879115"
"-0.007515624376610392","-0.1852344687928269","0.04982720442406329","-0.3161295411462419","-0.24304963001103705","-0.568107048845866","-0.47486663733242673","-0.7917985491240493","-1.2599892979444955"
"-0.055086278479003666","0.015904161025944576","-0.1276606903735209","0.3251018700454307","0.23363652078385694","-0.7735991474634895","-0.22523822307350808","-0.7301806021703637","-1.1981063393353455"
"-0.15752270960002004","0.1072986538453336","-0.10135939066219152","-0.09023750975278849","0.33782892511829643","-0.7920074279027375","0.05113749338880159","-0.6541501240636854","-1.0696105144526509"
"-0.0846969493822266","0.12851570627851397","0.041012551877569636","-0.025292017634330803","0.3792060764282491","-0.7639773403767562","0.2835095836455328","-0.5664495802460817","-0.9852604944376304"
"-0.023396407923980605","0.06897000551418345","0.11084327283001007","0.2555331831591502","0.5516923137694678","-0.7071746464499337","0.48678123660766537","-0.4814331515419909","-0.7909007053282542"
"0.011813762731159316","0.09057615883599981","0.10473577214074058","0.5945276057189939","0.5504914156629941","-0.6414307877383333","0.6210275935610476","-0.40127147017364495","-0.5157462101315935"
"0.0358554049118451","0.11582571138777151","-0.00011914456174463563","0.7258523383797282","0.4112700558710997","-0.5416548139289633","0.7242125673104925","-0.3240156351673194","-0.22410404513480048"
"0.058305383910807994","0.12736830081713846","0.04592654821019055","0.6194863571515967","0.17213811464853804","-0.412642159421964","0.7830409445906777","-0.2551155672100165","-0.03616510567983857"
"0.08124110696635525","0.1090628726472173","0.05122766323986135","0.343713617121094","0.05507953646301538","-0.2943341520275358","0.8106902819123647","-0.20271697216796183","0.05165351328907048"
"0.0334697025527537","0.11951111582729551","0.10984198831082397","0.07429401381889013","0.09426608398564171","-0.016066850336248304","0.8245345600323013","-0.17707783780105896","0.10659927399044357"
"0.039463533273115546","0.0029431662094691617","0.04132063942193458","-0.17759313976689817","0.0617548735238284","0.2796422197255106","0.8035132198841821","-0.20422241064467123","0.1349787199768055"
"0.0034019662088333267","-0.20662617446579273","-0.21635641537406458","-0.42065581096656474","0.2559897896760832","0.384854050464588","0.7586467774784939","-0.25569907049556273","0.1483407091287176"
"-0.08993079678158562","-0.4624224251354049","-0.4880293515061383","0.6521105727834019","0.3745101507291411","-0.14720403697394202","0.7189180133552756","-0.2599119642172068","0.3099458876621677"
"0.09540117356051149","0.14819846316218643","0.11709075242530621","0.6207741551370627","-0.2108117273941454","0.16805091431992408","0.7269186726653809","-0.24227849492799866","0.3583880253249995"
"-0.13782408531270643","-0.2389547102301354","0.02665031426591322","0.37072671295908294","-0.15383532378389336","0.20372275859967712","0.7042501379534167","-0.2616624740738456","0.37986968930078735"
"0.0021938795145977318","0.2642677004024076","-0.09600134641236634","0.02435566089106279","-0.009508076525508608","0.06876376543650389","0.7026813812259448","-0.26460333063299873","0.38523025132043365"
"0.020890544659362745","0.19846322341234682","-0.13388271925863038","-0.5038414284563083","0.06934537776233353","0.4346956299395942","0.6522066335195459","-0.31222886879928485","0.38818644361067967"
"-0.0578465952581177","0.026292712592425202","0.04437405488880371","-0.15133432560611068","-0.04958121813294886","0.5232100674802477","0.5698861242454737","-0.3861704051437076","0.3403355444058971"
"0.017717972776874584","0.010023652766382583","0.02499467859271724","0.21325968119338914","-0.060026132939703616","0.49901632747437874","0.47152507743300426","-0.4453609784295207","0.3540128607354353"
"0.010361907801885076","0.05381938966291897","-0.10770867309823436","-0.12169044245495546","-0.03859465686989487","0.4994185251982615","0.36363383350114464","-0.5061153405205979","0.36485223246633747"
"0.0027961304482226022","0.006544958173946477","-0.034517788645622334","-0.4885718237714973","-0.17677661864549643","0.5067199608010556","0.24389847627687483","-0.5755055512377597","0.23734180501372498"
"0.018746818121817065","-0.005555858382582933","-0.07564077826303063","-0.4708492705429415","-0.18620573929529247","0.48747634662758954","0.11502511111508226","-0.6398776336992237","0.05937902914091342"
"0.03664765167572066","-0.07387644742580647","-0.06756352655641917","-0.33357613766362637","-0.2016269273935975","0.4452765239063553","-0.01216184056467774","-0.696862564565672","-0.11214713071860251"
"0.008811470130499597","-0.0069939841101836235","-0.06777115077109988","-0.2733225228722164","-0.12844254037390238","0.33541466871346454","-0.13848597604432836","-0.73934160375344","-0.2273834477821134"
"0.0067143463437701455","0.020702703519038045","-0.01463944447877088","-0.10211284689019272","-0.14470021611878567","0.3340843223960063","-0.2481420712945933","-0.7727530018838191","-0.30960895093787694"
"0.01630734335793776","-0.015573658704607545","-0.11240365937214368","-0.11784544561263557","-0.09132236580000168","0.3082817914946064","-0.3537586179716194","-0.8039120773319898","-0.36456653640841097"
"0.012960907366635264","-0.013773846014615659","-0.0810791931766032","-0.2402230484600608","-0.09637441990309839","0.267740260927227","-0.46706207261325533","-0.8279174024993632","-0.4548447073628047"
"0.020100090308980096","0.0028665398640139125","-0.08199006069907347","-0.23569735839685177","-0.08542140096646661","0.2212678608469","-0.55008852241469","-0.8465661675054217","-0.5575980097820367"
"-0.011620251275422789","0.005853861936516844","-0.22257174670386176","-0.48529100509423867","-0.047851510756831236","0.07064171942417173","-0.61142691045883","-0.8559605704027166","-0.7011467658066639"
"-0.03277073049201062","-0.15297446784409627","-0.15815465971033849","-0.41936801298109877","-0.0608009192697769","-0.10786291192092037","-0.6027595295395493","-0.848386697756326","-0.891765986271449"
"-0.031731130666110545","-0.2326981448049087","0.08493712888210528","-0.26441525347274336","-0.19196176815046004","-0.47878821585744713","-0.494789847771316","-0.8147302282460175","-1.0393785212977347"
"-0.0333980752145365","-0.05868161556446972","-0.004814130835653958","0.08575541588953746","0.11921991843257672","-0.7815193487953339","-0.2606921251143665","-0.7526571487296058","-1.060387194507083"
"-0.12178198455097246","0.12520171632359708","-0.051924734902241906","-0.19879887992757145","0.48850022720122555","-0.8444478234397551","0.03313600994106458","-0.6670922269371015","-0.9665773591632754"
"-0.13255438964348884","0.08965646582649653","0.0341709991260741","-0.25117852989356076","0.37434036858305353","-0.8036402236088841","0.27915628372679885","-0.5738367318410974","-0.9277921163152474"
"-0.03967152243979562","0.04223921662499059","0.15973810563178978","0.14627578883507963","0.558566420172042","-0.7375251054598536","0.4843888825982712","-0.481573192330522","-0.7826903739408108"
"0.012751194987962329","0.08072483179189731","0.18037327354892904","0.5074785942728524","0.4438599458640268","-0.6985428645296811","0.6395781418633999","-0.39540142712104953","-0.5396953092723067"
"0.02656353336448992","0.09207950317845712","0.015614082622335799","0.8242462368406892","0.3762493824695515","-0.5397366401689072","0.7362135562756505","-0.31784217040623997","-0.2775993008190928"
"0.06083268693584094","0.1198162062967942","-0.005510676588131229","0.7023040323597787","0.262627857485316","-0.3757637219705628","0.781825158126887","-0.25058758171417744","-0.0642844067446589"
"0.08677249500554082","0.13200656027371996","0.036253269072662415","0.3250098844750403","0.06708023547184674","-0.25790741355834135","0.8137101386127477","-0.20333548565064088","0.05701407530871652"
"0.05649683869644044","0.08079778820851655","0.052937549111086814","-0.03654859850157543","0.11066041365298585","-0.0567281120721989","0.8257503464960919","-0.17657602497548916","0.09453800944623958"
"0.013538064511359093","-0.025391381581055122","0.12141067560172777","-0.09524765715338711","0.16373182790322133","0.21663949319360334","0.8055918225480817","-0.19153704921689543","0.1388808937999302"
"0.029768368689850836","-0.12718547996944282","-0.48083617710074794","-0.20703465466319446","0.028353342052043148","0.3297529622926538","0.7749618474441987","-0.23174042559103308","0.16036255777571815"
"-0.04144601179779748","-0.5936776510349484","-0.33002732413410585","0.5393669253415341","0.38973671051363834","-0.016188128419142172","0.7352330833209805","-0.25501053661861817","0.24601330239844663"
"0.036246151053304095","0.013631679188280088","-0.03295056070254846","0.5244959247950816","-0.13199140132993012","0.06650527052547009","0.734566361711805","-0.23587162885270066","0.3554318330347535"
"-0.04173279795666646","-0.010867748752615494","0.2631483596534159","0.252200239325337","-0.10611411764939631","0.3704368089777147","0.7066032730446239","-0.26141740269391617","0.3719076780657247"
"-0.17472987913215923","-0.11829142954340503","-0.00932158556081939","0.6259866707925203","-0.15839459556054045","0.008794847274130496","0.6928374327610605","-0.2695280983630092","0.4002871240520868"
"0.11925998956491829","0.2929417829342769","-0.33665790389326455","-0.1617470921743071","0.09557050779094946","0.2529301032024067","0.6800912843503538","-0.27826897758049224","0.42819357927200935"
"-0.06840391073148226","0.16016331548774362","0.024685251537289836","-0.6095635106917068","-0.008691051710311084","0.48620787688303635","0.6055753397954526","-0.3513819392594393","0.37324781857063627"
"-0.0016723563896548013","-0.038779989430939486","0.06330000669024873","0.16428656351752538","-0.038274555409100304","0.4585490487944855","0.5229018602576992","-0.4185781776229472","0.3454201951451202"
"0.0038339378606297506","0.08590694817236776","-0.10446035877177785","0.08762578915414282","-0.046853108917276634","0.5112060123366707","0.42716848096374455","-0.4693312933997613","0.38538791490924657"
"0.0008173059520265859","0.02406201488427901","-0.02108919024449795","-0.3393712285982233","-0.13772258401737755","0.5510545252875138","0.3025699778843122","-0.5394683883224224","0.3118378507279252"
"0.013950319614733257","-0.0014955021776460705","0.02055821795386199","-0.38962601188819374","-0.26507989872290133","0.5205184365588786","0.17377505055889417","-0.6114376835616988","0.1590618331680099"
"0.020600173673507905","-0.019855316039956133","-0.13178638444588628","-0.38763299119640116","-0.12633889817359656","0.4906320518457464","0.0392933800963909","-0.6706282568475118","0.00738946072978643"
"0.019343691814963152","-0.061168766131035106","-0.1036767448002409","-0.2681897280444306","-0.1625066363182249","0.40793401215816627","-0.09671782817539676","-0.7241588482635263","-0.133132154389629"
"-0.007802410535479411","0.008949424801676702","-0.048776883905469595","-0.15417361354549522","-0.1452716779763491","0.3194814511904178","-0.2091584666169242","-0.760137660850309","-0.24096616595836387"
"0.015538397969470298","0.0005970204990242656","-0.08340324486996487","-0.08928085982072803","-0.11949791999464922","0.3187079940291049","-0.31834393484894763","-0.7909933145899954","-0.2944693048220968"
"0.008644775675657006","-0.022791480188805443","-0.11594666613234059","-0.2373163044357233","-0.08311070736849285","0.26223943359596935","-0.418979678916251","-0.8178111255937017","-0.3710465099086303"
"0.016870161194718142","-0.014036046954344239","-0.01628704308559214","-0.27848291337111947","-0.10707069510662198","0.2246617908707412","-0.5139678987646565","-0.8372067748052596","-0.49459563969231307"
"0.00424260813701806","-0.0026272109554459078","-0.108056945974473","-0.3388499770326776","-0.055202663579632265","0.11966034047954098","-0.5746787841178074","-0.8514442549725885","-0.6105414429054831"
"-0.0060099970425482475","-0.0981466153544773","-0.2906189086766417","-0.4363546816465311","-0.04422438437248501","-0.06376966606879196","-0.58491492176456","-0.8476748237479597","-0.7836954793194946"
"-0.03628386093815567","-0.21497857876844517","0.06478016641426293","-0.2904931626784296","-0.2244522734725065","-0.3333473312441608","-0.5123599231189981","-0.8251866071230065","-0.942770157252494"
"-0.021962477129635668","-0.13267268681941194","-0.06023640104478323","0.025638552979441294","-0.04441735627511149","-0.6731115930657114","-0.33340399943267485","-0.7748186035146529","-1.0319683326235178"
