"AccX","AccY","AccZ","GyroX","GyroY","GyroZ","MagX","MagY","MagZ"
"-0.1457107046816036","-0.12764974807520169","-0.1050899289711323","0.17627228333939815","0.17789828453165887","0.8020259049903383","0.04552918808809044","0.692680489568493","-1.23937478370718"
"-0.09036097601988909","-0.09040881359182946","0.018542923560396486","-0.13985759260706496","0.20122469499292428","0.8371717984003987","0.26574341370691673","0.6040346704283044","-1.1942041655122204"
"-0.007927879479984619","-0.08123178070132914","0.028721868124001883","-0.5981266381064969","0.2586524706500924","0.7904549858570967","0.48332997180722787","0.513486630577235","-1.0174238665555073"
"0.050191128028308586","-0.09016120393542472","-0.02366774903972632","-0.8752484998360591","0.24894176009946795","0.7400874555123977","0.6445981633913088","0.4299873104155645","-0.7694860483777118"
"0.06797903953215752","-0.1131601615745177","0.005379548349638465","-0.8007401878198126","0.036345526002024","0.5849628872394733","0.7480576695680604","0.3495222073387345","-0.570794452165695"
"0.06781234507731491","-0.13671403014001773","0.010470360142503621","-0.5144810927648011","0.02547946865241274","0.382286172689029","0.8159456169493942","0.28613041039698817","-0.4684313671287755"
"0.0681511112274789","-0.15559205564037482","-0.005524071698755791","-0.3615397510623164","0.17517348813834938","0.12858912994973762","0.8419085407890494","0.2529757537122494","-0.38998584851480655"
"0.08907933117094324","-0.15821185423715703","0.04530300581061715","-0.0968114118500244","0.2610335617232732","-0.13712124941906648","0.8352805436154821","0.25466791324033355","-0.284942482468064"
"0.05036499213712292","-0.024314721735795266","-0.15904543456687192","0.3790973998646119","0.3238943660552469","-0.3452276332419277","0.7995521091473164","0.29263063699797365","-0.20016282917352787"
"-0.121925377630407","0.5876193820609427","0.35564829607133536","-0.28565165549021343","0.5876778466841485","-0.19016494154190827","0.7353899589937278","0.3417149333781254","-0.042432233335160205"
"-0.021155891057816643","0.17058723986228205","0.25453530352182185","-0.21341845324829012","-0.2698586449810765","-0.06704912443275884","0.7459006290677872","0.3274541130793747","0.05165351328907048"
"-0.028056683005601643","-0.19427001045109596","0.04667868367175977","-0.04588513389620386","-0.19728298907052497","-0.4510365729095386","0.7155844053093988","0.3628494223806112","-0.024419168313260985"
"-0.19521716535636258","0.11886556208024031","0.11048361410974054","-0.11239376747416288","-0.04947230909777554","-0.11866037389284909","0.6776989303409592","0.3872281896507342","0.017479930413826218"
"0.09159946454200447","-0.2766930748268207","-0.36818329674817346","0.16425590166072856","0.013219955396496516","-0.20516691664273415","0.6652273143575606","0.40455823723145823","-0.042116906157533975"
"-0.004199659414687751","-0.14746073138808377","-0.026058776286210814","0.46574780717239495","0.018746157200252703","-0.5294651290666713","0.5869071347385402","0.46581441214810515","-0.11086217246977548"
"-0.018592739762925057","-0.010685357711067364","-0.06577527928804001","0.018798812583777042","0.0642477723517499","-0.4491802757223875","0.4888598392715654","0.527233967984705","-0.12062549020702809"
"0.029917139009764126","-0.09555334636373845","-0.15331232721955898","0.19877502004257647","0.06550250382161735","-0.483026761101442","0.38363548177640755","0.5845923409539028","-0.12552882781911617"
"0.0037550716669407717","-0.027916115756181924","0.0037922277406277505","0.27756372726765766","0.06787945386684481","-0.5179870247927872","0.25068334912318957","0.6466887606017363","-0.15657278845641995"
"0.009605509307868102","-0.022214461257362275","-0.022415306196329688","0.284382924219268","0.054657151611772876","-0.5436967408348296","0.09510190067619301","0.7076648539413211","-0.22689469065679274"
"0.006540482234955814","0.0292529744667639","-0.08060366674943119","0.3767977606048512","0.0049515648820266924","-0.5525450907602496","-0.07836337446397895","0.7688743485951243","-0.3120054374878364"
"0.013340899027136678","0.06709524668711905","-0.08424043928400003","0.2839475258527533","8.75134480124379e-05","-0.37338147391371884","-0.22821886085570406","0.814235894013491","-0.4201547762341975"
"0.00906957767348169","-0.056351431833660925","-0.03842246339268244","0.0824531339125211","-0.05127945369662095","-0.3431547680496089","-0.34246356953382345","0.845161568147443","-0.48156868566662886"
"0.011844233760539138","-0.01456531259490935","-0.029809407261088446","0.07854987954228726","-0.04365706354287497","-0.3716798681588304","-0.47714133458726066","0.8787946975263299","-0.5103974728811081"
"0.006382749847577856","-0.004830936897448011","-0.13477349411516382","0.1779617516489023","-0.03534974736564358","-0.29899655179593027","-0.597582632338893","0.9047956039302713","-0.571034889138635"
"-0.006063769447336185","-0.025906498098397103","-0.044684677609665616","0.19691077914933047","-0.06363503880105507","-0.2716006991422257","-0.7135921923354182","0.9258717426042025","-0.6350384230173219"
"0.0013227665570331758","0.001160310359339992","-0.04824107948048708","0.28241136682723317","-0.049215151261872016","-0.1947376202795904","-0.8053252419743198","0.9418480625624591","-0.7593206884889858"
"-0.03942058455078523","0.11999970273859413","-0.16073321850556685","0.3892771363211526","-0.0874215174679385","-0.008406221227740365","-0.843916657470121","0.9433768411705904","-0.9093848923213154"
"-0.059208829512745365","0.20636241361175842","0.026938978899872554","0.3535254112960729","-0.24716581179667488","0.33720908932771054","-0.7770091830434576","0.9224524133509013","-1.0832089989877827"
"-0.04483367329943736","0.12735945761512402","0.014208935517819135","-0.011227730540202357","-0.23907424317581344","0.7852573537330737","-0.5550301061062257","0.8660743259014212","-1.2070931638976932"
"-0.06087577406117132","-0.16548317709354238","-0.023721329482224565","-0.14082037491048477","-0.0035474808894451707","0.9349677218768074","-0.24112188493915807","0.7895537050348839","-1.1539999503648743"
"-0.14830970424635379","-0.12881483994060608","0.008791283025714651","0.21311557046644417","0.16623300878704955","0.8047175359117075","0.043646680015124374","0.7013280082602886","-1.1419386858206704"
"-0.08631012152586466","-0.08946701257729003","0.07110466789565034","-0.0913444027831533","0.19640867948316895","0.8843836235269408","0.28319583230003814","0.608947768092604","-1.1175008295546367"
"-0.004396824898910198","-0.09659242260043689","-0.0021150160448045207","-0.6022659887740661","0.216712139538483","0.8213313957367095","0.5019197390277662","0.511140947369339","-0.9354388003726838"
"0.05318266614801071","-0.10142081090032914","-0.02441117767938957","-0.7906217750768656","0.16200087821871773","0.7314247353056927","0.655501022647236","0.42593779761387335","-0.7188405620612167"
"0.0673911279064761","-0.10812174722678217","-0.0439278538593778","-0.687505950669196","0.0550878185189221","0.5703290777474324","0.7556269207781112","0.3446207797401458","-0.5771128204873808"
"0.07196536714043644","-0.1424002090353121","-0.04952031254513285","-0.4339630568163799","0.04497542825682197","0.3463049455447508","0.8164946818040093","0.2851267847458486","-0.4652386794553098"
"0.08800388307518454","-0.1624322723985555","-0.015081483129381455","-0.29377091517000853","0.2039701965260006","0.049510869777102055","0.8334372544607026","0.260222864518734","-0.3986612874892486"
"0.09304773464429285","-0.14571862059123622","0.02795231901862074","-0.08358388682788087","0.27189961907288446","-0.19412504220783058","0.8169260899040642","0.27160117858688615","-0.285927879898146"
"0.029816763854159992","0.0903329707806023","-0.1549599258263802","0.346289213092026","0.4722673976240623","-0.325055870474886","0.7778248284718349","0.31402186744609967","-0.18483398675117207"
"-0.16987243856631581","0.8544408948420762","0.41044099608111023","-0.7004145923806526","0.16726826577538903","0.17310623032626551","0.7415473291490541","0.32424484500887024","0.024574791910416696"
"0.06873006078569567","-0.13270805962746976","-0.23673037863402482","-0.216254675001995","-0.3953773432753093","-0.11244487214453826","0.7521364370594872","0.31260978949507773","-0.008376898151525794"
"-0.07109253097087899","0.0345102580643572","0.41252393578322977","-0.029493918489765552","-0.18126549294693642","-0.39943151110673886","0.7202122376554394","0.36055041943555893","-0.06915227004926405"
"-0.14528052544330017","-0.043654804541407626","-0.16414227415951813","0.16106400236818075","-0.13478659519844677","-0.11885528509749994","0.6900921084879851","0.3793742354272814","-0.02891258059443503"
"0.04846144900763001","-0.2117662856366945","-0.21085102490736918","0.3529734978737304","0.13582129949758878","-0.37356710363243395","0.6560893064200378","0.40858440990172745","-0.03226293185671383"
"-0.007856182940267348","-0.05528582599091913","-0.13921397328720644","0.21589966706359448","0.0170524767673293","-0.5544013879474007","0.5533749596888349","0.4819074327634711","-0.1022616237000197"
"-0.012462685617100448","-0.05644649625531631","-0.03504019795998027","-0.015833754668219045","-0.005031211205133327","-0.5097574405964174","0.4469740346480735","0.5438638116227736","-0.06439871284654843"
"0.00984748512941382","-0.04572853541379725","-0.033399296908471314","0.24248656309210778","0.12364667731471636","-0.5500081512711431","0.321159745104851","0.6083876049384795","-0.07601063616263488"
"0.013989752711577746","-0.005481133325560791","0.013514399031935555","0.37100266967025425","0.10410930743077354","-0.5160997893191837","0.17432411541350892","0.6747669387022227","-0.12529233243589652"
"0.012260073690899187","0.007104290701360734","-0.10173445375967927","0.4128254423411021","0.07962755017052132","-0.49246293846946","0.02062517503947888","0.733140607388271","-0.21924012341991564"
"0.008646568089149933","0.044173667065652546","-0.06292881828032039","0.41491044860328513","-0.0033669320706787615","-0.426440635179787","-0.12232778175137081","0.7838237027708197","-0.3384416797420766"
"0.012118473024957605","0.013034099812153314","-0.07361811655872161","0.1872890884864917","-0.0230190084289296","-0.35788139240100747","-0.25343662524981025","0.8207477906801872","-0.4358028874238999"
"0.007402633125055702","-0.04139536642671446","-0.05822043689578649","0.09192458147705547","-0.0395980279429935","-0.3777747105899764","-0.3840748417300077","0.8532722638165362","-0.4871499767106134"
"-0.008859934496308789","0.0021670868006806203","-0.08320231821059641","0.16294357418982514","-0.06540242953154825","-0.3668534954722376","-0.5185957311106977","0.8865669612898059","-0.5397150172209083"
"0.004443358448226329","0.030997296064115085","-0.020486410266392623","0.20342948990433213","-0.0979687156651412","-0.2831159293598528","-0.6355465451437059","0.9115992522397407","-0.6228865019095505"
"0.00533060312722726","-0.002200305378198108","-0.11226970826589806","0.20451491963493915","-0.0462025534258041","-0.2171709717863111","-0.7383393297112822","0.9276806027893958","-0.7130661331209361"
"-0.040370563702038766","0.08974710864714469","-0.22052899233361592","0.39289523542317606","-0.0699505205327213","-0.0635933178360126","-0.7880689179721321","0.9376234987751042","-0.8487238265254666"
"-0.05515797501872094","0.21178329644661914","0.08851094439673868","0.44931305192930515","-0.2804928047652997","0.32585473819963645","-0.7435554458301254","0.9172942443066724","-1.0411522366718822"
"-0.037664019327712676","0.11448596628258163","0.006223440318985928","0.05587850262672648","-0.21154054831393643","0.7755117935005307","-0.5295378092848123","0.8610561976457234","-1.1999588865038995"
"-0.09333638241815484","-0.15432747775230782","-0.04179133371476001","-0.08297984824898372","0.03938504051978874","0.9098148949909105","-0.21284504492648265","0.7819915024542043","-1.1596364236649435"
"-0.1466069114280692","-0.14358961970625625","0.03759077086852502","0.24691720139924675","0.24599334819667712","0.7605686011439645","0.0582361175806105","0.6946060504107957","-1.1363416284178045"
"-0.0813630602853746","-0.08314412313695496","0.08249051192652886","-0.21668700718283","0.22871697957526774","0.9088248698244299","0.30107965899321487","0.6032527760256725","-1.068388621639349"
"0.014812470504833145","-0.07066415429405581","0.031378788316383945","-0.6477681842605311","0.222149309241242","0.8781650279499847","0.5218429494666559","0.5006145480980844","-0.8810448622321567"
"0.05084535895322847","-0.11484700235877493","-0.02506753809999316","-0.8384849335366849","0.22229424521960955","0.7333119707792963","0.6767576763044766","0.4079658964190484","-0.6535481283439825"
"0.07541576311432895","-0.10012970340621877","-0.029300393057355052","-0.6646322054987761","0.06669511987218445","0.5960387937894746","0.7745304393441438","0.32465329730875264","-0.4778635913295205"
"0.06766357475740163","-0.1366300197208804","-0.0398088573423247","-0.3556220127005323","0.07511382970136117","0.30389164864699414","0.8210832952318637","0.26645467960836816","-0.3889649767772416"
"0.0815547793276182","-0.15584187609728317","-0.00755343095837708","-0.18913119647953752","0.22717651717661858","0.02536601226382809","0.8392808732705342","0.24268275575521328","-0.2903227524363117"
"0.07698591733413665","-0.14268540230027826","0.05537947777794464","-0.011952883453446896","0.26355130671891486","-0.2323585766058521","0.8189654736497776","0.26012950399304663","-0.1840101944996235"
"0.031017680894423878","0.09540454713589205","-0.34282635233587583","0.6079881608527932","0.5126010098897689","-0.28717812637106843","0.778099360899142","0.3023051214723307","-0.1000385670977547"
"-0.1668253356283328","0.7541147679880879","0.32055310623498046","-0.6757931213728147","0.33908365658816386","0.05057514683106867","0.7273500807654358","0.31815307070776727","0.10655985809324013"
"0.04102114059847273","-0.00597767911867242","-0.011592056811682815","-0.3721180916572156","-0.40053706410519335","-0.1257050217180874","0.7446456236858103","0.300227849775786","0.1240605164514968"
"-0.0013855702307858139","-0.17906191378673755","-0.05590978031304938","-0.2998756908582533","-0.13339935083407187","-0.5331777234409735","0.7094270351540725","0.3421583958751406","0.1076240873177288"
"-0.21547143782648479","0.16522825944152253","0.3359239956766665","-0.11180812600934383","-0.1755964256787894","-0.09977255001358695","0.6658940359667356","0.3683927035933007","0.1585494265043673"
"0.11344002295337079","-0.2712987215980034","-0.33040238723159365","0.1762170919971639","-0.08316454073188652","-0.13634779225775354","0.6724828142221163","0.37688851143085433","0.06584323628225143"
"-0.011010830687826177","-0.14636196353778777","-0.2376479437118074","0.466054425740363","0.11180747839606597","-0.47281712657211117","0.6087520721685825","0.43026739199262665","0.026230259592954493"
"-0.03642725401759021","-0.048346123210075836","0.017407687934964774","0.07508202353856815","0.04760912203515764","-0.4799329324561903","0.5099988361742452","0.49540969879101165","0.0432579271847717"
"0.012277997825828488","-0.06399637997515698","-0.12411098605801173","0.14397614957531896","0.027951662340567437","-0.47878821585744713","0.4087355894159535","0.5563857921305964","0.007034717654956879"
"0.008257614361183883","-0.017389610238275812","-0.028583754638940938","0.3229862019264509","0.11881823872110098","-0.5215449277348267","0.28531365388212476","0.6198125992694754","-0.013776876068375268"
"0.01609942339275775","-0.003261047459831946","-0.026031986064961692","0.5185781864332973","0.07830242122544678","-0.521142730010944","0.13616410801776255","0.6859351915875782","-0.10652642377741466"
"0.005185417634299855","0.0030813412409450157","-0.09521103488551712","0.5128137573554972","0.004779298119167001","-0.533270538300331","-0.021809694438628163","0.7477048493955059","-0.2487271561176898"
"0.01740967765609044","0.05981729142922285","-0.07337700456747948","0.3889705177531845","-0.06432493405808451","-0.46876421104683136","-0.1875488426960028","0.7986446862236948","-0.396371223861738"
"0.008173370927016092","0.023993480068666986","-0.0985732076522824","0.14900162790431598","-0.05644372965725366","-0.35447818089123045","-0.32375614555872484","0.8372842737925684","-0.49760307264892334"
"0.007736022034740888","0.003076985963952897","-0.08296120621935428","0.03707358585324335","-0.039107316130520584","-0.34269069375282113","-0.4403147704098648","0.867964876546591","-0.5239998990059603"
"-0.00825051390871221","-0.012769479345823967","-0.07104625531880554","0.19994323678653492","-0.05378518971119785","-0.33569864101455216","-0.5700901706899529","0.8971517108896152","-0.5716616019041673"
"0.006601424293715458","-0.009896101931277285","-0.05787886157486013","0.27461099045812487","-0.09666429185983345","-0.26275544304545084","-0.6828445604769745","0.9182045094321246","-0.6886874007007071"
"-0.024704869773820335","0.011550652674228544","-0.09044907305848499","0.3618041126312115","-0.05699407227225493","-0.13307142772243188","-0.7524581402585269","0.9278906639721926","-0.8077155270751737"
"-0.04938640357148255","0.14708864130937238","-0.1113454456328032","0.42827901816669395","-0.13680327581173204","0.09459414079571103","-0.7677535183513747","0.9225341038108777","-0.9922371082426112"
"-0.06096539473581789","0.20467999442850845","0.1695031412770962","0.37596989047133733","-0.3235222262286422","0.49734566000594277","-0.653783342100563","0.8885625425263743","-1.193139936287732"
"-0.0550145819392864","0.004323324747865102","-0.0067765145421524245","-0.20436707312187202","-0.1460046399240935","0.8344801674790296","-0.41988171403454694","0.828146612340914","-1.2668476640578665"
"-0.08584409401770253","-0.1596643501680312","-0.11458036484863517","-0.04564290522750907","0.07708081797920618","0.8548375599647863","-0.1188372980327467","0.7485450941266925","-1.186951640426817"
"-0.1102926140612837","-0.1256246548138916","0.005084855915898083","0.14444834216998978","0.09595976441856509","0.77427426204243","0.1342815999447965","0.6584638569040601","-1.1835618732673348"
"-0.0487052864441687","-0.0808227826081606","0.0784019223105935","-0.19304058322113068","0.2147741384563115","0.8475980009348971","0.3592020957460375","0.5664687289048359","-1.1190380495455643"
"0.02197674723607905","-0.08917960851182026","0.017405008912839866","-0.6782460699165594","0.201961797968622","0.7513180534946616","0.5502374462338916","0.47841808311590445","-0.9409964418783464"
"0.054458864554977705","-0.08430700420185575","-0.03444411553718723","-0.8592123487313279","0.16504039273648244","0.7003317574209122","0.6837778626599118","0.39465035144288263","-0.7233379159321109"
"0.07227186984772767","-0.12231287565947829","-0.0666459614786366","-0.6396734540661734","0.05350594584073936","0.542948694236954","0.7774718582081531","0.31881826445329","-0.5861193529983304"
"0.0678284767987513","-0.14638849314383115","-0.056854135612081066","-0.428167965881783","0.055162357022082546","0.2813654822809159","0.8228873654684566","0.2714144575355114","-0.4983953321827093"
"0.09181276174766327","-0.17174637492027992","0.019905206310914542","-0.22763022387361123","0.214687176869291","-0.034805242291944774","0.8343392895789986","0.25554316816865297","-0.3954843661746642"
"0.056256655288387664","-0.10935979550880581","0.10295891071639228","0.059797087925358705","0.23411688002644648","-0.2839852952091686","0.8094744954485741","0.27971187425597926","-0.2992504531528548"
"-0.029114206966430987","0.24107640311950027","-0.018671372776764335","0.3222196555065307","0.5743851469538694","-0.32347801786580765","0.7623725747062389","0.32598368479979817","-0.20476266437715068"
"-0.07881783312541238","0.5778697518400063","0.2619093119206438","-0.4798638564412035","-0.0048618431618409836","0.1538780852960257","0.7369979346393862","0.32328789962057436","-0.008692225329152026"
"0.11330738435489386","-0.22420867087103225","-0.2230271804650969","-0.17899745280819204","-0.28300640873298794","-0.1623730788216115","0.7551955126780567","0.32296113778066843","-0.05220737584157376"
"-0.13097706576970938","0.29066465841555483","0.34034438218277224","-0.27945489423157827","0.0446192998528332","-0.16985086265718505","0.7122900161817086","0.35979186516434875","-0.05248328712199673"
"-0.0019053701437358515","-0.25792337855114067","-0.35216944199650846","0.04568343524178739","-0.07791371728702863","-0.024302622189908543","0.6973868272707283","0.3668872651165913","-0.06511608217564814"
"0.0052696610684676145","-0.19438497207728386","-0.22420595020005843","0.6669509114730576","0.24838272132576464","-0.3930891623839727","0.6571482172110815","0.4029711082947724","-0.05283803019682628"
"-0.03275280635708132","-0.009099329429774919","-0.053800050389680706","0.11155123601269312","0.048230276228161326","-0.4792832284406873","0.5634150027446532","0.47350498545160485","-0.10430336717514961"
"-0.00586660396311377","-0.07358241095882584","-0.0907638581581622","0.05437607164368282","0.021748402466437215","-0.4834598971117773","0.4698778828691587","0.5317619534805439","-0.07458378068387612"
"0.009022974922665492","-0.0447027239801205","-0.058588802437961975","0.27329866298722144","0.12252031771140302","-0.5238034226458606","0.34418125008049694","0.5928547474772379","-0.07376787161176822"
"0.012118473024957605","-0.013217608607906458","-0.03433695465219072","0.46859935985449824","0.14184235414177118","-0.5355909097842698","0.20475799592645796","0.659105710518161","-0.14025854860398212"
"0.01024181609785868","0.01828408776808469","-0.03960793068295625","0.4991998929377139","0.03977429714740439","-0.512541886377144","0.0511767123069882","0.7226025380513055","-0.2512813062564624"
"0.015000673921590926","0.053892346079538224","-0.11474780373144221","0.39065691987700896","-0.021319530556871497","-0.4904210115635938","-0.11511150080500163","0.7778369590611149","-0.4077663597432064"
"0.0028373559585600184","0.024583763803131833","-0.06481083132307147","0.20262921544193538","-0.01745181044843517","-0.33814276564430107","-0.24594581187613304","0.814387604867733","-0.484970277595272"
"0.01272968602604714","-0.03358460824744737","-0.05231319311035422","-0.008779381274977134","-0.06715035743066064","-0.33749306162879816","-0.3596414556996377","0.8447181056504279","-0.5210437067157143"
"-0.000991239262340984","-0.021526902300738428","-0.06645173237458045","0.13757395387614516","-0.038846431369459034","-0.3738764864969591","-0.4873382533158258","0.8776043508238153","-0.5392026105572656"
"-0.0003638945398150721","0.019272978833351082","-0.07306891702311454","0.21865310180394795","-0.06516639093820685","-0.299092460483933","-0.6095836213040505","0.9038036483448426","-0.6179871058871828"
"0.003229894513511953","-0.012487823361663587","-0.11440622841051584","0.17335327457234187","-0.02866819876290052","-0.2607908618557159","-0.7171611138904155","0.9244596646531804","-0.687772951885591"
"-0.03294997184130373","0.04746554901553329","-0.19219163580735296","0.45651858827655534","-0.052336658133113244","-0.12613197007113214","-0.7897945503723508","0.934997733990146","-0.8276047888039489"
"-0.04675155573687373","0.165276897052602","-0.06396693935372401","0.3824702041122609","-0.18332772486770868","0.17494087071289982","-0.7819507667349929","0.9252765692529452","-1.0187245911632155"
"-0.05171654111229309","0.16661664215779193","0.1492162462361956","0.22591689567911205","-0.29780644263828926","0.5765167350379359","-0.6478612854543576","0.8869170632611337","-1.1819852373792035"
"-0.05008544483372567","-0.0497499815298705","0.025433368465671673","-0.11185411879453903","-0.08348754091224844","0.8914375528381149","-0.37309354463770644","0.8203510084460159","-1.2149763433383494"
"-0.10604459408303682","-0.1367051869380033","-0.12219548523869919","0.07327910635891574","0.19593660229648616","0.8555491405531942","-0.06848020708090799","0.7357780422389402","-1.1596758395621467"
"-0.10871529018750425","-0.1117319844491833","0.0363101982928168","0.11138259580031067","0.21665830617508933","0.7689528767725968","0.16036218053901205","0.6482875596041331","-1.1523050667851331"
"-0.035459350731407345","-0.08616186582438762","0.029665553667502346","-0.4161791798742306","0.22666717073835554","0.8601589452346193","0.40128399496046335","0.5545185816168483","-1.0426106248684035"
"0.04414890214363762","-0.10337736934602723","0.05127722514917223","-0.6847463835574831","0.16312723782203106","0.7983133106160362","0.5804360132377201","0.4637021302544276","-0.8403006492931255"
"0.05512384996085516","-0.10463089323157619","0.037532502137308174","-0.7087852792861815","0.00621789123016355","0.6896271103083411","0.7106428216178631","0.3747995696685987","-0.6713049900340603"
"0.05738049854845552","-0.1357545427214494","0.010166291131326043","-0.5194483135658842","0.035898294983061345","0.43692318656417545","0.7869628364093567","0.3017216181867844","-0.5865686942264479"
"0.08063168637875863","-0.17115609118581507","-0.08797097759294084","-0.3227218403575559","0.13126616874889502","0.15556112807904263","0.8205734492954361","0.26480920034312766","-0.496901469678705"
