"AccX","AccY","AccZ","GyroX","GyroY","GyroZ","MagX","MagY","MagZ"
"-0.18578907038354456","0.42357798469280844","0.30011216742189734","-0.5131932947793352","0.4553305932948283","-0.23257205078237447","0.6675412305305807","0.3849175166399709","0.15330711217633097"
"-0.06270403582396115","-0.09944877685110576","-0.17233338430643838","0.029941637962305506","-0.09494990628714325","-0.003935020069622488","0.6426764364001561","0.39785961951338705","0.15563265011132446"
"0.09902722605671123","-0.28348023237291464","-0.3354657390476784","0.43747757520573677","0.10738486054187966","-0.33084133004150684","0.6220865043520915","0.41920416969866947","0.14108818404331394"
"-0.041356391123150905","-0.05800511061036394","-0.21056303002894108","0.15530263947606024","0.06422292618402975","-0.4916585430216945","0.5275689115219273","0.48861772054725316","0.08235849721042597"
"-0.010311789425583058","-0.09570368079798419","-0.05584950231523885","0.20018853164090938","0.02226188993265361","-0.506447043945998","0.4187364135535847","0.550515749078001","0.09946499659664966"
"0.00038533430023016184","-0.02258145414096215","-0.019106713872062628","0.3452773718177312","0.09078347947686764","-0.5457077294542432","0.2882158538279475","0.6199059597951628","0.04369150205400772"
"0.027828977290499306","0.002494793759331274","-0.07039659245351423","0.384064620665695","0.12286402303153172","-0.5225658911877599","0.13149705675353446","0.687382279735733","-0.020516994490136196"
"0.013520140376429792","-0.00286863037044052","-0.07949187256759246","0.44075839388299537","0.0704510322258801","-0.4999190655045168","-0.023143137656979052","0.7460243599331325","-0.1114179366203418"
"0.015029352537477822","0.022323662448287585","-0.06639815193208216","0.43284763482941857","-0.01661490869906153","-0.4459626939313257","-0.18174444280435773","0.7994149105606159","-0.252550498146408"
"0.020903091553813268","-0.006650867872022781","-0.07590868047552189","0.25354322865303724","-0.030901455138146468","-0.3683385332219585","-0.3096373350114802","0.8360355767614994","-0.3776407895107391"
"0.004391378456931351","-0.025986086916527196","-0.06050430325727449","0.18233719861380698","-0.058325826862054855","-0.4029275374758734","-0.45223732153864865","0.8739399501905849","-0.45128545184534846"
"0.0052606990010029475","0.01109434345028268","-0.13443191879423746","0.20488592810218056","-0.05578861903503242","-0.35014682078787795","-0.5894250973560403","0.905005665113068","-0.5318397209596928"
"-0.008304286313500147","0.0026133368823350388","-0.04396134163593922","0.2439951264465108","-0.09465589330245484","-0.31237117302935374","-0.7168081436267347","0.9283574666006295","-0.6345969649686451"
"0.0022637836408220435","0.03304228652995773","-0.06839402341514207","0.36603544886917116","-0.031106436021837682","-0.2071407793184048","-0.8224246903037604","0.9459559256927049","-0.766234236858441"
"-0.0390262535823404","0.1529118898358908","-0.20907617274961462","0.49506054227014457","-0.10101651223881265","0.038537059572393985","-0.8499955897890735","0.9448822796472996","-0.9683904904346263"
"-0.06483700788054923","0.1934336522666257","0.13508172550515674","0.4797909375853336","-0.3091362951186767","0.44060484265202504","-0.7629688103325866","0.9133614321620905","-1.191760379885617"
"-0.07148686193932385","0.05643255585819034","-0.09913580229851404","-0.20651340309764868","-0.12177134434104271","0.8314791536931354","-0.5296946849575592","0.858290392072234","-1.2867132762483198"
"-0.10220882920816414","-0.16050224355890078","-0.16504644412667613","-0.30723760267516714","0.06389992600366783","0.9169925774478946","-0.21092331793532956","0.7876514843240031","-1.1445795509332903"
"-0.17261483121050047","-0.14547101093483147","-0.01259669010852503","0.1082090936218409","0.14413234259997815","0.8192894688308433","0.07294321190065646","0.6977686382184564","-1.1160424413581151"
"-0.07302833754324467","-0.09404336961977033","0.08013792864753685","-0.2039224761983183","0.19618920500164103","0.949044642212703","0.3283368071330336","0.5943718560196581","-1.020025315770924"
"0.012202716459125363","-0.08380515248753544","0.05333672340769879","-0.6820481401593638","0.24443218065826114","0.8258174472723246","0.5405503734417549","0.49910910962137506","-0.8471077747401322"
"0.056545233860749576","-0.12993792659644185","-0.0024766840316677104","-0.8623398581246025","0.16358689192485382","0.7367770588619783","0.686170216669306","0.40549184248833225","-0.6236472287255739"
"0.06933948137329227","-0.11742479574598848","-0.013621416071304104","-0.6188233914443431","0.0072456943681869996","0.5678230765447784","0.7905709768825415","0.32138567890969355","-0.45952337436083407"
"0.08015848921662481","-0.1521100448471833","-0.07349756056310056","-0.39229359342951614","-0.04856335346201347","0.2818914331506087","0.8306527112694405","0.26821685953071783","-0.4169305558429692"
"0.1004109692732541","-0.19673726381312878","-0.103489213251497","-0.2007397754628095","0.1751817701942561","0.017300710368521217","0.8457127758531677","0.2525556313466561","-0.33244258018773737"
"0.08852009816114871","-0.14727723494628384","0.058773129054677666","-0.04219651252354771","0.2958844529787337","-0.26824698889077275","0.8319861544877915","0.26876535261913137","-0.2247780569769766"
"-0.0003280462699564368","0.12517076511654648","-0.15532829136855572","0.5271328444796071","0.5287510189078648","-0.3705042132736347","0.7767659176807911","0.31933174734457065","-0.12399160782818829"
"-0.14915213858803145","0.829679929201603","0.4020288666088847","-0.6203258224273868","0.05900523096279873","0.1855681721093397","0.7405276372761974","0.3295547249073412","0.08594534385592448"
"0.10119246155617208","-0.22560147518830884","-0.337501795862612","-0.04808052284285542","-0.30535139556930746","-0.14721331845987778","0.7518226857139925","0.3246416272430417","0.03900101028681741"
"-0.1029616428751952","0.2811803242550521","0.33393482174891886","-0.27040964647651955","0.1259076785772498","-0.20277538709995455","0.7004459028892975","0.3642615003316331","0.020751449881698435"
"-0.05121466533427235","-0.12544115837209163","-0.16033136518682997","0.4786257870270548","-0.16982383271180837","0.03193792307207193","0.6997399623619355","0.3722788354750388","1.8687952772929857e-05"
"0.06923193656371641","-0.19991197333631802","-0.31787795879762726","0.47994424686931764","0.1645558924659396","-0.3136087044874544","0.6840131761690328","0.3925847498120489","-0.016378325283791705"
"-0.04786285210249105","-0.07913373102339977","-0.060732020137892036","0.038615877250122846","0.059398628618367734","-0.5222874466096872","0.5987904669491384","0.4573652845733952","-0.02504982266851345"
"-0.013950388816233323","-0.05724901683812806","-0.0592652555245024","0.04584594308281048","0.021135530329340242","-0.4845117988511629","0.49289938784480464","0.5163808068735445","0.008217194571055273"
"0.020541024028241185","-0.050238568441169126","-0.09187565234000095","0.3444188398274206","0.10989018245366122","-0.4949380013856614","0.3799489034668491","0.5783838659956906","-0.02292136421953636"
"0.013894754796452392","0.011695239027164876","-0.04837503058673271","0.4787790963110389","0.1273239101372982","-0.46792887731261334","0.25550727606016455","0.641915703725968","-0.09385815441628027"
"0.02134044044608847","0.02170353290702395","-0.06544040152242592","0.4209814962490534","0.06686904304622547","-0.4207170521860712","0.13000673786243624","0.6979436892041202","-0.1890199550341605"
"0.015217555954235601","0.012725472061848844","-0.0693852616013597","0.3838806495249142","0.02289546720951737","-0.4198817184518531","0.0013294672915780345","0.7458376388817578","-0.2925261010899751"
"0.009910219601666423","-5.748699007056082e-05","-0.07677936266611848","0.2956511565920954","-0.020988662423398197","-0.39940057282028635","-0.13193641670713463","0.7882349876095495","-0.3972383736002102"
"0.007789794439528824","-0.037203688671862946","-0.07983344788851883","0.12280107127144244","-0.06883244298531463","-0.4450964219106552","-0.27288920867045796","0.8290568774663661","-0.46616101144986655"
"0.01060567603692372","0.02203294218206239","-0.10192198530842317","0.10429357450888835","-0.07133776489709619","-0.40453632837140435","-0.4290589408902563","0.8682099479265204","-0.514106508807937"
"-0.0065297969554982535","0.015686618256388993","-0.1298240007393878","0.17377640819613785","-0.04023533214501529","-0.33504893699904925","-0.5567165195882579","0.8987154996948793","-0.5750907849608525"
"0.006153320920482691","0.007337530154491977","-0.041911889710381074","0.19890379984112305","-0.0727954067366782","-0.2803624218655787","-0.6716279498755526","0.9221489916424174","-0.6627832730587111"
"-0.006225086661699996","0.01596318939939106","-0.08859385023698302","0.34671847908718123","0.007363299562062362","-0.1633445410162206","-0.7591645752684679","0.9338540675504753","-0.7563171971220959"
"-0.038918708772764495","0.13300363130084972","-0.19043017876022295","0.42588739333654285","-0.08481681088527634","0.040712021110005985","-0.773361823652086","0.9320335372995711","-0.9355964639614969"
"-0.06661149723855107","0.2132601111830331","0.1901383091942354","0.4320810884094984","-0.29078740025734756","0.3850396801833031","-0.6992772871972397","0.9058692499756765","-1.1383912550723754"
"-0.04904584500782563","0.029489530120650566","0.05186259148346563","-0.01743338373730859","-0.19811533568914994","0.8009740032509528","-0.4806318183058852","0.8480674145094634","-1.2639308876648236"
"-0.08387243917547825","-0.12276830056322273","-0.15979556076184745","-0.25990182815225304","-0.017215771855093768","0.9608630676375649","-0.18068553201331444","0.7723053479141364","-1.204255219299057"
"-0.16091037110165995","-0.12873967272348322","-0.070081807353837","0.015933768684683183","0.059630526183755785","0.8221048528980225","0.10506350589563807","0.681605597208825","-1.1415445268486377"
"-0.0770433437674105","-0.09465355055876772","0.037606845001274494","-0.1552682418331413","0.17608865531604145","0.8942838751917465","0.3411613933801139","0.5844523001653718","-1.086795845633281"
"0.008721849455853057","-0.08788186861619904","-0.00019951522549200456","-0.5257953179228237","0.18478481401809319","0.7867114531963422","0.5425113193510943","0.48985474751261127","-0.9542007674414454"
"0.06599842262246856","-0.08820022388871941","-0.04614474466774298","-0.8432681831969872","0.20867440428101525","0.7114076639709136","0.6896214814697436","0.4041031046687321","-0.7493524080862761"
"0.08588166549955403","-0.10928241749117934","-0.07825282483482039","-0.709674473133289","0.03386090923000923","0.5777542664960366","0.7893159715005639","0.32485168842583845","-0.5751972078833014"
"0.07802910198702258","-0.14897955133406637","-0.05609731186179325","-0.42764671431623724","0.0215537741526294","0.2816903342886673","0.8353589814518553","0.27181123976968286","-0.4910324425851365"
"0.08796982721881885","-0.18182099281524738","-0.012027397906981109","-0.1710039067412638","0.20270304197227304","0.048332121063261124","0.8510465487265713","0.2508051214900173","-0.4111364189540869"
"0.06511297035696058","-0.1070119253739681","0.12671179063139856","-0.017447794810003088","0.2014483105024056","-0.21894064177139513","0.84006525163427","0.26595286678279834","-0.31626235438579064"
"-0.0214426772166856","0.12996820220938815","-0.09061651194129201","0.4307932904240323","0.44572340844303787","-0.3998646471170741","0.7949634957194616","0.30914377997893294","-0.229421249667523"
"-0.11303500670546836","0.7357872318131305","0.3407060501696354","-0.5610564532391544","0.03516947406327035","0.18729452849339018","0.7677063475796425","0.32084885588699097","-0.022211878069877313"
"0.12929392029834696","-0.18500233473994745","-0.3254930791876913","-0.18727002177197116","-0.2998355463354347","-0.06959534540780107","0.7892375336641901","0.3078017224221765","-0.06653899606468656"
"-0.11753396457272562","0.11077403223701429","0.26253218456468597","-0.2993145788788717","-0.03988168835779852","-0.35624166321902395","0.7315465050114225","0.3575745526792729","-0.08204521002445715"
"-0.09842683673807934","-0.04139094482570723","-0.1862843920219207","0.2584675228546048","-0.16231614903237043","0.0037983140120488677","0.7206436457554943","0.3691512578645108","-0.07026379835039658"
"0.09371630487715618","-0.2558231180727077","-0.31838697300136065","0.4569478542717107","0.18876020085331682","-0.32326144986064004","0.7004851218074846","0.38373884000316744","-0.06978292440451657"
"-0.03470653706437626","-0.03793546363855907","-0.181509035084264","0.1411675234927312","0.0280924572909816","-0.5510600530105287","0.6138113126146785","0.45231214612056453","-0.08319221263307261"
"-0.02251812531244431","-0.07610493433344903","0.006464552310228065","-0.025245718230567624","0.02723940553258987","-0.48673935547574415","0.502939430900623","0.5132999095258601","-0.05173438507513436"
"0.005171078326356407","-0.046707920036898096","-0.05035080940385575","0.29528628049621336","0.07080301960191551","-0.535003082341672","0.38763581143146025","0.5784422163242452","-0.07008248522326146"
"0.00020967777792293453","-0.012585098583822587","-0.04430291695686557","0.43986920003588786","0.12384544665647755","-0.5307954753841295","0.2535855490690119","0.6474589849386575","-0.13374310079627985"
"0.024124058600610586","-0.0018417135365119714","-0.05509937612026332","0.4468907652423572","0.08127982032391115","-0.5315689325454425","0.09863160331300416","0.7112008838517314","-0.24016602324513728"
"0.008754112898725807","0.021646052093929998","-0.06839402341514207","0.38087578755882684","-0.01393483540764826","-0.5377256515494936","-0.06734285845349146","0.7704731475975211","-0.34449201996278017"
"0.00870751014790961","0.03406809796363447","-0.05788555913017242","0.2553492120183693","-0.049350976978742155","-0.43550555311037464","-0.22700307439191345","0.8178069341210341","-0.4670045116500167"
"0.002695755292618468","-0.0058733293349018546","-0.09338260228526428","0.07324231213075959","-0.05659777589711856","-0.3750521413821548","-0.3656811691004033","0.8540308180877462","-0.5130698707114907"
"-0.0029987423744238643","-0.01736484927263534","-0.07668559689174652","0.07343854801425916","-0.06638219674531275","-0.38386955302112247","-0.4977704855535124","0.8871037843125086","-0.5469241848193883"
"-0.0027298803504841786","0.012980156279865141","-0.07726828420391502","0.20638222671386489","-0.059993418818872095","-0.3217764121109191","-0.6384487450895282","0.9135481532134653","-0.6146840537015479"
"0.002806884929180196","0.00534847294139076","-0.054215298819042156","0.23363448503486892","-0.08702397878441613","-0.25996480960743373","-0.7441829485211143","0.9348810333330367","-0.7189627513425468"
"-0.021030422113311437","0.04036224699742258","-0.039031940926100045","0.3890625033235749","-0.0526277723982343","-0.11524169323984587","-0.8218364065309586","0.9429567188049971","-0.8522712572737619"
"-0.03547727486633665","0.15546315361706098","-0.11235677648495772","0.4758048962017484","-0.1493505905104067","0.1398321032465826","-0.812933712102557","0.9325120099937189","-1.0453697376726332"
"-0.03821966751052138","0.19499005582116974","0.07223086182141047","0.26383948016540576","-0.31991124985331404","0.5108966294721455","-0.6987674412608111","0.8983303875264188","-1.253958665672394"
"-0.059872022505129914","-0.026083362138686197","-0.08846659668604967","-0.36908256783433147","-0.10771255443939247","0.8779484599448171","-0.44764870811079466","0.841870609616962","-1.2432375416331014"
"-0.12843183860974713","-0.16245438040359167","-0.15547563758542587","-0.008510170172301148","0.07902710111728445","0.9066901280592062","-0.132799232907244","0.7642063223107541","-1.1523838985795398"
"-0.11606418550852204","-0.11523168164640372","0.03273638277818341","0.08548559154972553","0.140682866314831","0.8165668996230218","0.12655547306199874","0.6729930887141621","-1.1554583385613957"
"-0.02174738751048392","-0.08715451525051016","0.08695912083088304","-0.34075101215407977","0.2322865456710623","0.8743596187163251","0.3764976386664116","0.5748128258881475","-1.0530558376272727"
"0.035937855932519934","-0.09538974712647105","0.00991111427392812","-0.7142737516528104","0.23105251934096163","0.732043501034743","0.5572184136711407","0.48829095870734723","-0.8460829614128469"
"0.056156280132783516","-0.10087695397644017","-0.026741926928063525","-0.8232459907086705","0.1737531155503476","0.7041062283681194","0.7054659244172073","0.402084183300742","-0.6148771915978439"
"0.06988079024815749","-0.13184363663055682","-0.1276205050416472","-0.6447019985808501","0.10821306613255126","0.5082049985507766","0.7901003498642996","0.3234629506062383","-0.4646671489458622"
"0.06777828922094922","-0.18348793639497207","-0.19846054757964846","-0.3855786467910149","0.11994045729646102","0.24768296982005972","0.8317116220604843","0.2735850897577435","-0.38021858918783363"
"0.09573456247019667","-0.2055694118250654","0.04290394149775792","-0.08014362649527887","0.2840452540600833","-0.03892931587606541","0.8334372544607026","0.26159993227262324","-0.24581037972464706"
"0.052628810378694976","-0.07845059366778315","0.05130870365913995","0.08462705955941487","0.2734980558628806","-0.30911955912319405","0.81355326294","0.2864455021711832","-0.14575706626383977"
"-0.0647473872059027","0.4411980647066094","-0.008457600925535085","0.32688025773964563","0.7513726816803884","-0.23245139146520966","0.749508769540972","0.334747904148703","-0.014407530423627675"
"-0.04890245192839112","0.39251623761703647","0.3627343095917292","-0.4490486903604102","-0.10555507887569295","0.05861291365143279","0.7330760428207073","0.3248633584915493","0.18003109048015511"
"0.08487074428954086","-0.29093063007009273","-0.1370238727000904","-0.2620082977141938","-0.19523732126156615","-0.43482491080841923","0.7210750538555493","0.3448541810543644","0.12252329646056885"
"-0.23192579369159283","0.19536810270728766","0.3134603951592744","-0.2212249619887578","-0.07714762711565741","-0.12896591711018277","0.6775420546682123","0.37537140288843407","0.1388020620055237"
"0.03735923983241435","-0.23645650566105192","-0.6066095683100818","-0.07778266352192456","-0.07125080331007567","-0.048897631771066645","0.6794245627411779","0.3791174939816411","0.09706062686724966"
"0.035545317377568","-0.23358246500635418","-0.05197161778942787","0.6015491709254633","0.15091120535962513","-0.39126380348327416","0.6357739067992807","0.42220337658637724","0.07348992033968785"
"-0.042879942592142416","-0.04583907543897793","-0.010239150638601955","0.06313923031621092","0.03609706432482253","-0.45546074787224866","0.5410994382963698","0.4881159077216834","0.04526813794213899"
"0.010480207092418512","-0.07858324169799998","-0.12371583029458709","0.198385614461257","0.04906262284678628","-0.469166408770714","0.4385811861561003","0.5464895764077318","0.039946991819696104"
"0.009019390095679607","-0.015437694473635303","-0.10895441838631872","0.41055646493813824","0.09758304737628141","-0.47037300194236226","0.32288537750506974","0.6090878088811351","-0.01815204065793935"
"0.017902591366646507","0.013049354335628248","-0.05410813793404567","0.4494050374996956","0.1251498704617853","-0.45756455135101987","0.19463951503426646","0.6673447769100742","-0.08453629472770445"
"0.0100356885461716","0.0017690763860150514","-0.07827961505606952","0.39268060242559844","0.05751860192754322","-0.4705276933746248","0.057883147316929257","0.7232443916654063","-0.1915898715318144"
"0.01514765182801129","0.026511581842282955","-0.08752893894233026","0.3852297712239738","-0.01616353665214551","-0.48667747890283913","-0.09405094173869498","0.7775918876811855","-0.3019228509832372"
"0.01685761430026762","0.006414742024283631","-0.05617768252554064","0.23971166505199654","-0.06578878743959655","-0.3892528148638605","-0.24371033353948618","0.8208294811401637","-0.42290206426926613"
"0.010259740232787983","-0.016003880482610765","-0.054590361916529925","0.08895651373912435","-0.0701865591260627","-0.37214394245561816","-0.37042665820100507","0.8547660322275346","-0.4694167645588575"
"0.000623725294790025","-0.021314665452391517","-0.08494368259178962","0.1623548665393264","-0.04320983252391231","-0.3329760718067306","-0.5005158098265874","0.8843263086733084","-0.5248315744369495"
"-0.008035424289560462","-0.0002940647519622593","-0.08918323510446378","0.24761935791989365","-0.08769482531286012","-0.2987521393329553","-0.6109170645224015","0.9093119193603996","-0.6200643236697957"
"0.012776288776863338","0.022966342154688076","-0.049506917434508274","0.3555490938446624","-0.11136080006630081","-0.21799702403459334","-0.7064543492254218","0.9273655110152009","-0.7563605546090194"
"-0.0297415516889569","0.062315495998306304","-0.11915479512692341","0.5182102441517357","-0.10191511530469133","-0.03872821701412404","-0.7523012645857797","0.9294427827117456","-0.9521511407868748"
"-0.060391822418079916","0.17537804455361286","0.026912858434154655","0.5160332523191622","-0.2459856188299679","0.22733795264888398","-0.7299857001374959","0.9087634262719859","-1.1724071743588065"
"-0.04728927978475307","0.17583789105836453","-0.020345761604834714","0.13829757369654988","-0.24948064642260195","0.7096441816431202","-0.5580107438884216","0.85798697036375","-1.3487144825490802"
"-0.06293704957804216","-0.12395550043366327","-0.06525286997368206","-0.3261559683187985","-0.07276641954100468","0.9016162490809932","-0.2844587895355611","0.7933931566537784","-1.314146740701803"
"-0.13318173436601474","-0.13521289659806407","-0.0870735051810951","0.1223564743478887","0.17138030653307348","0.8008193118186901","0.0003097754187213441","0.7095904147836238","-1.2530521000367183"
"-0.10260316017660898","-0.09514876987157715","0.06684569247257054","-0.023166537721175988","0.24792720825089526","0.8510012124446741","0.2404472114764369","0.6195791979552568","-1.2090245428606539"
"-0.01108252722754345","-0.07944987549541652","0.06863929778519952","-0.41354226018970497","0.23660149679846126","0.7990558294908967","0.4607790938498239","0.5257752097708394","-1.0734732723785723"
"0.031023058134902658","-0.0738499178197631","0.003443954864389122","-0.8167763389245438","0.25605190509538356","0.7057459575501029","0.6212236881519816","0.4460686609652195","-0.8520347618905422"
"0.0776616572209717","-0.11672839358735018","0.0010529276179046284","-0.7948224494580285","0.1172612122106384","0.6213153738211817","0.7400177913397684","0.3693379789158856","-0.6289880827966183"
"0.07264110702727149","-0.13628292404181308","-0.02438438745814045","-0.45438385344305493","0.13186247677417853","0.4127913231312116","0.8095921522031347","0.3012431454926364","-0.5177800704272827"
"0.07435106949952783","-0.16705726705211532","-0.06636466415552078","-0.28005893281047545","0.11526937776507323","0.14618373345528451","0.8364963300792723","0.2663496490169698","-0.43104933022118425"
"0.07544981897069464","-0.15396932807072242","0.06734131156567935","-0.03935109221280381","0.29325075920039806","-0.14572828071015692","0.8297114572329579","0.27029413122726254","-0.31317214804505344"
"0.043123641625681","0.009743102182474008","-0.21300763771792383","0.35211496588341973","0.37879197363291334","-0.33019162602600394","0.7966891281196804","0.3049892365858434","-0.218979978498374"
"-0.13836180936058579","0.6904437134840143","0.42689688948338583","-0.5001620056406912","0.5840751523647271","-0.07255613942130702","0.74978330196828","0.33717527781657547","-0.030962207249005533"
"-0.011584403005564153","0.10360219540329155","0.06699303868944073","-0.3796609084292307","-0.2583217411030212","-0.017074819708871335","0.7596664693513505","0.3123180378523046","0.061113328617857746"
"0.09915807224169522","-0.24452592749924182","-0.31650495995860956","-0.20778893634039597","-0.059188817087534644","-0.4212120647693114","0.7427238966946577","0.33575152979984263","0.03273388263149578"
"-0.18315422254893576","0.3412477739382355","0.5045818335505388","-0.3334228283796423","0.010380866631674304","-0.20370662952217533","0.679267687068431","0.3753247226255903","0.1017117027372367"
"0.013525517616908572","-0.2895378257528161","-0.32077800024784514","-0.12590644776451673","-0.06503304983810872","-0.07624398316644715","0.6726004709766766","0.3832253571118867","0.08019062286424557"
"0.023808593825854703","-0.2475768321942287","-0.2940145692199683","0.624913505804632","0.22380572042258517","-0.42783285807015015","0.6182822692879723","0.4266029913593961","0.08708840487481967"
"-0.04331012183044588","-0.007533198353014997","-0.014418425153465602","0.31771236255739965","0.011588804485668819","-0.48822439322546507","0.5200388792300631","0.5034036938029954","0.01109455506689473"
"0.014445025738782286","-0.06875623345943721","-0.1415380249805681","0.17960829335889095","0.00420162471967357","-0.4868631086215543","0.41250060556188517","0.5644731476682676","-0.03368190415603193"
"0.004954196293711731","-0.02188947358333107","-0.013762064732862013","0.22911186115733959","0.06728314584156127","-0.5447795808606676","0.28213692150899483","0.6273164515216004","-0.05479700028782931"
