"AccX","AccY","AccZ","GyroX","GyroY","GyroZ","MagX","MagY","MagZ"
"0.0007273641017329176","0.017610159164209545","0.02789365303981957","-0.07340996388751676","-0.027612349830890802","0.3692044137905796","0.646157281701594","-0.6052042764927014","-0.6991627936940306"
"0.00385556411506174","0.030198375437358833","0.05000672104030915","-0.0279778102904221","-0.022959541026136322","0.32433133596273955","0.6354575727617885","-0.6548350808401013","-0.6982312172244101"
"-0.004105026131230258","0.04261520333811191","0.056764226130118056","0.0069880035863908296","-0.08578382805133333","0.2588782851776208","0.5885070270233199","-0.697381424279858","-0.7149669067839073"
"-0.008899866410201492","0.05649246791516236","0.07946134744338208","0.032391403341826705","-0.14223691898623825","0.2778322461205862","0.5389930093513561","-0.7483974584136687","-0.7278455428902392"
"-0.006463933497390818","0.05459473120990254","0.060510593560715045","0.043423551001693365","-0.10147907013845842","0.21642723718602655","0.4406058419908024","-0.7958382804320766","-0.7522463090155608"
"-0.0029881557048032424","0.07305689442790364","0.03133271094799493","0.0023672868839272605","-0.09408617553535849","0.11418020408896172","0.39479771309226075","-0.8291233732998303","-0.7428324836383435"
"0.01776060092407834","0.0016684437378411457","0.011306518304503885","-0.0722209681322209","-0.08679858600268146","0.05388670784478336","0.348599490638622","-0.8410495421275948","-0.7673966842320197"
"0.010571228963620855","-0.00870886253139707","-0.032989567787365205","0.03292958036790799","0.12338315467029982","-0.3010037621389123","0.3267821153785502","-0.8137539190029881","-0.7847207378775929"
"-0.01097955616975531","0.029375711249857037","-0.03400154134910309","0.14891972660801756","0.3296135619053666","-0.5241799783124207","0.4556801715127678","-0.7636217933995537","-0.7041965753193481"
"-0.01714159990176653","0.02839412329886058","0.05003563457064453","0.10162946628402329","0.12811230965111095","-0.43176425069294266","0.5295750363782984","-0.7169461459298299","-0.6271535669370534"
"0.01942242709305512","0.03758157877670573","-0.021397307375049378","0.05702142634404059","-0.02940133937955289","-0.47404056306508835","0.5879776143414025","-0.653542199706118","-0.6196682682864189"
"0.04300283538066248","0.04912380661953392","0.020969688625365617","-0.008979487345033076","-0.026084947650347457","-0.48231623615286195","0.6335628326370313","-0.5770775154962482","-0.6510149993168052"
"0.034102533465238755","0.08326021553122451","-0.07742346815632567","-0.03129929640845508","0.13422718362680544","-0.37422284045507964","0.6442068139261086","-0.4951378754638981","-0.7200660621965667"
"0.022911684356306472","0.05326932779670521","0.08393881414103052","-0.02418457686866848","-0.14687273538190174","-0.09015126090373661","0.6492501663170063","-0.4480532553905673","-0.7753395993940466"
"0.05484358753945531","0.04490453650636185","-0.023140380203838712","-0.016159096207821248","-0.018403421422406523","-0.07630588994603907","0.6169559927200421","-0.42355447716804684","-0.8548994985890003"
"0.030301322738054328","0.05308962968504131","-0.0014360256071612283","0.004752210191634887","0.12319887079705974","-0.07287184964715353","0.6648539085208892","-0.3975913131713209","-0.8545072558649494"
"0.006958730825729275","0.05515148374083809","-0.029255591869769084","0.0010533262306254","0.03145182819109147","-0.015260545161511065","0.6944452910575383","-0.3741347554547666","-0.8572202680396336"
"0.031032102611897535","0.029854559975157954","-0.02831796738603643","0.023586095505441284","-0.0021558063749721364","0.06573960736404624","0.697203809768582","-0.3770239490092804","-0.8636105557522932"
"0.0020984188321054196","0.041410291144296146","-0.062132341113249515","-0.04448992867024347","0.18835398982418583","-0.040363743778904886","0.7224484355484351","-0.361245522108831","-0.8379023138801358"
"0.0014918426522355583","0.027992139661785837","-0.01765507044878601","-0.06505907386206224","0.0026619005968764116","0.002607628057269628","0.7254855925131195","-0.3501241058236481","-0.811736455496586"
"-0.006617984590691115","0.015128663275394163","0.007127335977308102","-0.06956474198739393","0.0743564644972658","-0.08451118340931257","0.7515661330538947","-0.3195567018701857","-0.7674784014661968"
"-0.017228253641747925","0.0029748801711599656","-0.014377515260055346","-0.0676219132957445","0.06471147736534845","-0.18486039352847738","0.7517611798314433","-0.28429270930755934","-0.7375698937573296"
"-0.030765493465510125","-0.017251274498587408","0.01793397446536864","-0.05659072838547727","-0.04050743436358826","-0.2225037851016319","0.739250322242973","-0.24613952319041935","-0.743649655980116"
"-0.05025295676799562","-0.027651951909516016","0.03400721250401649","-0.07474048383392881","-0.06137219808965663","-0.38264412655906044","0.7422874792076575","-0.18066037082001793","-0.7640462776307532"
"-0.01480194892226853","-0.009943897530058221","-0.09048618811141163","-0.02072926855631475","0.00027817673003033413","-0.471953443166119","0.7482224740102057","-0.1345018758038874","-0.8341923514484896"
"-0.15953295107788232","0.18027538276415375","0.07332135275144996","0.04159528951237608","0.17733285688560535","-0.34063477138329457","0.7998262785844751","-0.09165342034404682","-0.8559945095269751"
"0.011956725983990259","0.0204655933200712","-0.08506077066919647","0.038254548402354496","-0.16303945698887487","-0.07979089480059712","0.7555785239063221","-0.09822204806455995","-0.9219730044016724"
"-0.025344820620006488","0.06244535738305728","-0.0063339776459725985","0.074102529737125","-0.1285089670783777","-0.06041708299423437","0.7446001767128758","-0.10550044114230067","-0.9494626819788935"
"-0.025989909573201398","0.09583388976065532","0.008442261379395641","-0.007997675303534514","-0.02483421060936979","0.2081515640982529","0.728188383573435","-0.1132247462846193","-0.9447230823966141"
"0.011138329550832526","0.06595933837588376","0.02699815970028988","-0.0058332216540963235","-0.16049777551639444","0.27834189167731127","0.720163601868581","-0.11927358301861261","-0.907345619483948"
"0.022001820086501696","-0.005394938511440351","0.04466597893693329","-0.04537565830171894","-0.20216507724509947","0.39184723781079306","0.7063710083133632","-0.1549016931250954","-0.861632998685204"
"0.03524636283299334","-0.015855238301614668","0.006984214002148029","0.026798790918738703","-0.13097884963920617","0.3447414270677766","0.7122502754651834","-0.21335839011162633","-0.8269685479472221"
"0.03974465475736154","0.003045055919275649","-0.005879415644057273","-0.013650170751707056","0.03337843232041988","0.2825889379833535","0.720609423074406","-0.27476760544290685","-0.7967658581953171"
"0.028270736764489997","-0.0037073343379123653","-0.004344933284115949","0.012582830333557522","-0.01586245793904259","0.28477313322646086","0.7651915436569283","-0.3380132396910289","-0.7417865030408749"
"0.021339400385310486","0.002334677083628583","-0.0018674567848082592","0.006061549646859485","0.03333774627048375","0.29887332696252095","0.7727705041559569","-0.3970636065860216","-0.7159148267003632"
"0.028529735165101097","0.03043312557167121","-0.01200041001605472","0.0029283773504749774","-0.04489434786552487","0.2915926761521629","0.781854111224646","-0.4411139137938814","-0.6952403664535233"
"0.014970350496677009","0.04526704888191504","0.019614883203936936","-0.016191829694201864","0.013935047715355408","0.3212249249503201","0.7984330873162715","-0.4846101290871769","-0.6663614958952894"
"-0.013039989542646553","0.042449008552758016","0.04336280481967491","-0.04960405454241484","0.035903360713514874","0.36379246335488014","0.7952008835740384","-0.5316419785019777","-0.662651533463643"
"-0.02670239587971521","0.04407564001440928","0.05702651315530318","-0.02783532334970648","-0.10510970177099406","0.41465994368324827","0.7824113877319274","-0.5919720338663212","-0.6576340952851609"
"-0.031728312798636873","0.04296317366994663","0.05743336783216515","0.010468632213209572","-0.21301628609277024","0.4395840382907073","0.6978725415773198","-0.6669063689788229","-0.7016469976130184"
"-0.015427781488800916","0.03707156852915096","0.07674347559185747","0.04059499267856846","-0.186780963775133","0.4007781694714989","0.614086018707542","-0.7456929621640097","-0.7143295123573249"
"-0.0015054139317880232","0.05338254799422756","0.05452755803346065","0.036273209726727866","-0.1628527798185797","0.1680109092971456","0.512327328477935","-0.8120124872715003","-0.7238577418623902"
"0.0177557868274127","0.015415349280129635","0.06892236563614038","-0.032239902767098046","-0.12102512718718522","0.046043020038424295","0.40884108107575506","-0.8291101806351979","-0.7685734124041719"
"0.024618763033940217","-0.024500483292242727","-0.01592438913299754","0.02064682097838195","-0.059555685624861285","-0.2210112516855085","0.3472620270211462","-0.8298621625192494","-0.7979098994737984"
"-0.005038960884363223","-0.0024653399326145195","-0.07024671687665392","0.1176977570985075","0.2301313832174239","-0.5906037825389204","0.393460249474785","-0.7649410598628019","-0.7760913979484771"
"-0.03817920233058614","0.038486301639476014","0.06119419202792983","0.21148882307496358","0.1503101398368513","-0.5099099027241188","0.5200456081037843","-0.7088854278393829","-0.6710520651370624"
"0.003153668821212347","0.03383596380179226","-0.051686295653514354","0.09168522567151238","-0.11149262501685599","-0.47549669322715993","0.5402190176673753","-0.6479617025665778","-0.6803841732801024"
"0.041129188958397817","0.06684536432530172","-0.037415403180843354","0.05452694213191784","-0.044377395701630525","-0.4397729665843365","0.5231106288938326","-0.5980142742679982","-0.7412471692953052"
"0.03319074355676772","0.05624317573713151","0.023940553867324695","-0.004558059809651486","-0.013673787782184418","-0.34107161043191603","0.58413240644116","-0.5313913178739605","-0.7665304815497409"
"0.039202587472811176","0.05262012941641654","-0.01949107962508189","-0.02275104271511744","-0.08021941239830407","-0.2336601690267039","0.556881585235093","-0.4906127914949565","-0.8658659514155846"
"0.04594039716603221","0.06133808462563693","-0.0017094649940471393","-0.027123851395727823","-0.011975504191909342","-0.1624651116358161","0.5387979625738077","-0.4622749478643836","-0.9562778993092748"
"0.03274592102486316","0.05425922548696936","0.0031608126657289497","-0.041895318499780024","0.08200304858820277","-0.11706540006602682","0.5589992359627631","-0.4340162602216057","-1.0026606014282717"
"0.018834144480514677","0.04022823073346655","-0.021583180070062456","0.010423382982036367","0.04684312155222313","-0.05548565551201854","0.5700333108069372","-0.42778932251507384","-1.0405937415333433"
"0.0186839446645469","0.05195535027500096","-0.04144884066262721","-0.01246598874440834","0.09748289394037188","-0.036670026934449915","0.6070086070650667","-0.4323275991486478","-1.022714010695365"
"0.011912436294666429","0.053971500764825424","0.023958108510742596","-0.03918325287818614","0.08084708611060573","-0.008045177520085907","0.6249250467741676","-0.42289484393642274","-1.0002254278497904"
"0.005227581664767367","0.03079459922981594","-0.008821780406114347","-0.09271501885528412","0.0637828781079827","-0.0327117797772186","0.649082983364822","-0.38728784209335193","-0.9808584433497863"
"-0.0009854914918995727","0.004999091108074101","-0.017710832257289935","-0.08894681692311569","0.080677162019696","-0.04256492720723647","0.6684483419928549","-0.342986874257475","-0.9377117437042074"
"-0.020309275507753546","0.005971953832839478","0.07350102968996261","-0.09782336822985893","0.04382517396578447","-0.182804823116353","0.6845257692279274","-0.29471491436722075","-0.9067409119510365"
"-0.02307256699382734","-0.02675242263378804","0.03223316089272497","-0.05129368008941422","-0.0043870772194104886","-0.23770821087726293","0.7036682172530476","-0.23348775780786846","-0.8757373933041944"
"-0.025729948353257197","-0.006910842697349589","-0.07298937175418026","-0.01765424633573581","0.051084043933800685","-0.28139454262301467","0.7207487422012268","-0.19306807190686792","-0.8945977309522997"
"-0.12576687706512707","0.16799774299613462","-0.017863660917634024","-0.06800508763631757","0.20131369337737012","-0.21471106185094535","0.7669469646548652","-0.15135946267127381","-0.8893351410712859"
"-0.013733219462497809","-0.007453053184566681","-0.08703721699283556","0.03592854537013197","-0.12582368778259326","-0.006830764964918187","0.7622658419937003","-0.12270103729013163","-0.8822093982510312"
"-0.060410700732482885","0.016888250565328552","0.024330473476418802","0.0158138179892441","-0.15889665978655504","-0.10449899676734883","0.7469128742180942","-0.12182372509207152","-0.9020666861560986"
"-0.0116342733162815","0.06826840717489446","-0.006375489214525519","0.04084819582321851","-0.10807021022811111","0.044669403918870074","0.7155939345088725","-0.12567730243121972","-0.9368291975750935"
"-0.011615016929618959","0.06946397091203407","0.018261729984241706","-0.06260117413471782","-0.11103789857639337","0.14658152707865846","0.7036124896023195","-0.12661002382073627","-0.937368531320663"
"0.026578100376853164","0.05111295045673838","0.0050711709200300615","-0.030769784128768664","-0.2310043067586489","0.24368842070361046","0.6663306912651854","-0.1308475077006897","-0.9362408334890174"
"0.04383086000715149","-0.004846495719772488","0.013373897681047716","0.038976610601926885","-0.16317587492101368","0.2751626741567883","0.6617331600801126","-0.17694399719304754","-0.9016744434320481"
"0.04997268453316706","0.0024409378745142312","0.005874760538136615","0.023321339365598076","-0.03957644180916745","0.21482064024054087","0.6646031340926127","-0.23726085989275847","-0.8778783848396378"
"0.03930175786412324","0.009701468687921789","0.014077116043847204","0.02661105474684988","0.07072822616178523","0.2169368827427516","0.7167363513487994","-0.28635076499022666","-0.7968312319826587"
"0.02640960699355598","0.020702420889200504","-0.0201292425446268","-0.00038733226996142913","0.011374698525845434","0.27822054749713865","0.7391110031161527","-0.33156202668574497","-0.7630493273737908"
"0.01842013216727017","0.024925845872006427","-0.006845953658125298","-0.04103173210909145","0.01604737169615696","0.3039940513658061","0.7663896881475835","-0.3807838584295379","-0.7280253208054289"
"0.010660771161601657","0.02588146588779134","0.004749611157657431","-0.06467782502068802","0.03538880184667561","0.2964221745230337","0.8076281496864166","-0.4116019230110175","-0.6943905072180802"
"0.002887930685269349","0.021704783188366196","0.0487427867142202","-0.03909467991503859","-0.030072659203498997","0.335179505670173","0.8076281496864166","-0.45468916570070605","-0.6921187681079531"
"-0.009362019690102351","0.02794331994358813","0.05811903155154674","-0.03450717807375535","0.007544705248622765","0.2992858971751079","0.8299749376284059","-0.4971959311465654","-0.668911073601619"
"-0.03570475664445038","0.030262775916683464","0.04969486796312054","0.01117432766959165","-0.04496614677717685","0.27797785913679335","0.822395977129377","-0.5369322370196032","-0.6741900069294682"
"-0.034713052731329824","0.04180188760728627","0.08519861796278586","0.05321471442789495","-0.18027119578535256","0.38417828562388256","0.797903674634354","-0.6023414682674526","-0.673372834587696"
"-0.019221289661320314","0.03903162827891849","0.10013039112883672","0.0808658456731197","-0.22228552558704223","0.3281900808922293","0.6939158783756211","-0.6952705979386608","-0.6885068663573194"
"0.0011683353563049698","0.05160114763871546","0.05480223657164665","0.05928196240350187","-0.19224725424890457","0.15751706459581621","0.5568258575843651","-0.7542418088458586","-0.7299211606383408"
"0.01890443029183293","0.04148300136288848","0.04939127589459918","0.004881218637958487","-0.1763294355356583","0.07939082763346755","0.4512498232798794","-0.8002050524254283","-0.7566917265548021"
"0.03885982379021805","-0.024671871664638936","-0.016550160539541583","-0.0013614423146645525","-0.20997919212989105","-0.06362542311799882","0.3370638669378946","-0.8009702269741124","-0.8194505624029166"
"0.006779646429767705","-0.015571668449104578","-0.11185948278574916","0.08453488439654686","0.17178519431196154","-0.47054585067611643","0.3603858887676265","-0.761959517655861","-0.8053134808902556"
"-0.04300292718955117","0.05712089194728179","0.007173184575411328","0.21719792819958264","0.31046718546483587","-0.4594549926083377","0.49003626818667384","-0.7156664574604791","-0.694096325175042"
"-0.0038161803312922373","0.02330233056258054","-0.021126759341197003","0.028063843892389525","-0.07869727547128189","-0.38150349126543764","0.49020345113885816","-0.6767085188007577","-0.7011240073142841"
"0.031396048319819445","0.08088051394843838","-0.06265898041578657","0.056646916749862365","0.10066597902361012","-0.4344095538207061","0.5318877338835167","-0.610797966296874","-0.7269303098674541"
"0.025534404219743765","0.0433371119369929","0.07043619547441358","-0.02833499039181057","-0.0922720563676182","-0.33393657263776516","0.5394109667318174","-0.5639903921808253","-0.774146527775059"
"0.02549877990441807","0.040936636006037544","0.02581167233045638","-0.04315363222623484","0.020691564631513202","-0.2946453270978663","0.5289341683949245","-0.5213517000886412","-0.8542457607155822"
"0.03934989883077957","0.062108812942715634","0.026052893783540025","-0.001841180440060447","-0.08153093918448044","-0.24707840847019377","0.5271230197462596","-0.4789900539537393","-0.9377771174915494"
"0.05300171415518383","0.053162339903633636","-0.026956966208107315","-0.01660099827395955","-0.023043067093358138","-0.12662246769642346","0.49207032743825146","-0.4615229659803321","-1.0322912705409364"
"0.032668895478213014","0.06251183529719884","-0.031572804800932164","-0.022052086505931365","0.13565837526573513","-0.09760422044993977","0.535342848228662","-0.4343592695020502","-1.075437970186515"
"0.015947612119800662","0.06306443295850055","0.005517058862844775","0.019207510327234327","0.09364404546404545","-0.04860301361262674","0.5773336330523251","-0.4320373605267333","-1.0764349204434773"
"0.018330589969289386","0.05827075211844906","-0.007386843200613363","-0.004447921255476711","0.10043861580337882","-0.0207516120026831","0.6121634147574205","-0.43377879225822097","-1.0491250207814464"
"0.005078344668132726","0.03674852741511932","0.012233651307229134","-0.07294495583099214","0.06143744699401769","0.0017929232315905639","0.6595597817017147","-0.39848841436632965","-1.0075309485852348"
"-0.005404832230951375","0.015456897976468108","0.0016005146537024751","-0.11308294938082207","0.12186580433738779","-0.10431698049708989","0.6999066008288974","-0.3376966157398494","-0.977442662961178"
"-0.007686714050461803","-0.006648047193008737","-0.012706726257104428","-0.049070691264330696","0.039498092890224525","-0.13240815820705465","0.731114085236663","-0.27724782639381357","-0.9290333734345853"
"-0.012991848575990207","-0.004619639837764418","0.012164217529380916","-0.004455430702352265","0.0075865879470864254","-0.1925584683186293","0.7482224740102057","-0.2294244171010638","-0.9112190163839488"
"-0.01537964052214457","-0.03290890071374149","-0.06318975022265727","-0.006418958510389445","0.09241149748068629","-0.29449971408165915","0.767950062367972","-0.18596646053520244","-0.8965426011257178"
"-0.03041887850558448","0.020475980494155818","-0.028001983804514192","-0.038358176471474756","-0.07605507552248865","-0.36864100816713846","0.7938076923058345","-0.13292403311384246","-0.8892861107307796"
"-0.06891239544399216","0.06652647808090392","-0.03549265341354136","-0.09399355032332699","0.10455269344103785","-0.2943298322294174","0.7833587577943061","-0.08810195502498247","-0.9126082093649616"
"-0.04801921591514157","0.005028902297696956","-0.0164840724702036","0.002688748975176888","-0.2729947035897879","-0.11096664157055022","0.789851029104136","-0.03610174810958861","-0.8953004991662239"
"-0.051129122361141","-0.002189560460667895","0.0015271982017806488","0.023796937667716424","-0.05862229977338541","-0.19855287081915743","0.7563587110165161","-0.002139871546188365","-0.9326125882915483"
"-0.01566848632208261","0.036957309614220155","-0.018258124081495117","0.0663937936944902","-0.11300758205271298","-0.029180664134194945","0.7296094386670026","0.0036081724341843428","-0.958631355653579"
"-0.014753807955612186","0.033156642616658204","0.01293627074690025","0.03337629618204344","-0.05171285117540887","0.1292851276368512","0.7208044698519546","-0.012034370020550399","-0.9588274770156044"
"0.021945013745847217","0.06610891368270226","-0.022434063962789005","0.005866207753135167","-0.1219656929298263","0.21326258096712425","0.6988477754650624","-0.045757459354102706","-0.9567518592675027"
"0.03357202001268591","0.04771322837884271","0.005999914819445423","-0.07279572964308051","-0.06913605373629185","0.2891415237126757","0.69438956340681","-0.08231301378424905","-0.9105489350636954"
"0.03194196688170232","-0.009394416020981898","0.04045492976880359","-0.02647977191370925","-0.0922146172382966","0.3161284693830695","0.7027765748413972","-0.13261664402790563","-0.863970111582673"
"0.03299336559347673","0.0036150624843431793","0.00576034556809523","-0.021272259330393187","0.06110477870336346","0.3134103597472025","0.7514546777524387","-0.15863521721608803","-0.793873068105443"
"0.02077229979809883","0.0006183004378862051","-0.0018881093064763792","0.0306882993004353","0.0764697457968894","0.3257146596167076","0.8167674844058338","-0.22094153374237738","-0.718251939597832"
"0.01496553640001137","0.012427894141652478","0.0017101795437601916","0.0027929184818351977","-0.013935853809714183","0.3527744117952049","0.8351576091461244","-0.28796027007538955","-0.6855813893737744"
"0.018761933030530167","0.013864024830591848","-0.006652233004878328","-0.03051176723612147","-0.01473880497168894","0.32513220755187894","0.8749471517660253","-0.3573404933776162","-0.6577158125193382"
"0.009139516615261372","0.03075720540311131","0.017070492534424535","-0.041699880331095764","-0.000243801357679635","0.32491378802756815","0.8858697713087433","-0.4033960856096133","-0.6499363318256657"
"-0.00970863465002798","0.026231513654442984","0.05624791308841506","-0.054229103618075834","-0.04078266352492089","0.39958899650580715","0.9085509251551014","-0.44723531018335333","-0.6223976239079383"
"-0.007908162497080953","0.02483755489228717","0.056018670097898925","-0.04211001166045288","-0.07875232130354842","0.42050873316756926","0.9201701403319209","-0.5075521728830643","-0.6171513774737599"
"-0.019375340754620614","0.020936132306104423","0.07242296805888673","0.003300768895534444","-0.17187311641912478","0.404879602761334","0.8749192879406611","-0.5720643029359048","-0.6525349398725017"
"-0.01926943062797666","0.02748628428386491","0.07008923311038916","0.05344673708135755","-0.23481443567031454","0.39869104957252965","0.797569308729985","-0.6606002752844962","-0.6883270884421295"
"-0.009968595869972213","0.03743096475247876","0.06520078123154513","0.08953925681438324","-0.1874917730004877","0.29433505462406445","0.660339968811909","-0.7336348666899206","-0.7329446983028984"
"-0.005905498284177301","0.057552998389201915","0.06269769560536897","0.06272668047026188","-0.18732424220663307","0.15245215851541047","0.5671354729690732","-0.788252498268399","-0.7364421959256838"
"0.012007755408645978","0.010982103380814416","0.05365189111473235","-0.006507531473536991","-0.2200525794346653","0.05431626624259448","0.46389999999517034","-0.8126853131677569","-0.7752905690535403"
"0.0049695460834893995","-0.004350300413750257","-0.005347819736319863","0.07609927240634251","-0.03255450824960279","-0.28493779268405556","0.38847262473461547","-0.7935295641213921","-0.8055096022522809"
"-0.010902530623105162","0.025585431426379708","-0.047161328156029234","0.18016095110951622","0.19550037483061394","-0.5534239257340254","0.4445346413671372","-0.745917237462762","-0.7447283234712553"
"-0.021300979420874118","0.02512735704924803","0.03901544900853562","0.1650072724144904","-0.019941593439697668","-0.44654397183796946","0.4901477234881303","-0.7044394998582363","-0.6762165943370636"
"0.0245571425966201","0.03475626742568947","-0.07525082287683942","0.14507835570629246","-0.14101394419109933","-0.4932857500404681","0.5202685187066969","-0.6477374272678256","-0.6891442607839018"
"0.03546203436361373","0.06947851295575254","-0.07873077277791767","0.09100456170471546","0.0214526330950243","-0.5095458701836011","0.5511973648608216","-0.5915498685980817","-0.718251939597832"
"0.016652395871649447","0.05909860989299317","0.0405767796466455","0.021011703076565868","0.002879929958592956","-0.35075487600969224","0.5774450883537815","-0.5405470271289036","-0.7725121830915144"
"0.046802120469180655","0.05408991454939007","-0.03590363859473695","-0.021704533900537188","-0.07528922046486741","-0.27304606302713746","0.5506679521789041","-0.49511149013463307","-0.8904301520092607"
"0.05253089550128485","0.053868667741387696","0.007113498787790461","-0.051359147062175446","-0.001248507461396486","-0.18898366877074352","0.5442592723451666","-0.4630137370838027","-0.9779329663662415"
