"AccX","AccY","AccZ","GyroX","GyroY","GyroZ","MagX","MagY","MagZ"
"0.011334744694790372","0.006711416755923477","0.05469897396330605","0.015229428982390183","0.014893563185909479","-0.2299980016690938","0.7542967879395746","-0.23216849134462017","-1.0092306670561215"
"0.007255279180332308","-0.028986703779389503","-0.020090002753457376","0.1493048264477895","0.10374375903642542","-0.304304323839608","0.7920801351332621","-0.24937172602537763","-1.084508583180188"
"-0.003729526591310843","-0.05113735251483867","-0.030742573429873733","0.14985359371946452","-0.03377269645063157","-0.4218625655908557","0.8569471205808319","-0.35099482168939194","-1.1432632745536182"
"0.02327177878689589","0.08948940382977026","0.022492605573172796","0.012886096457377923","-0.35946452618933483","-0.3973753100320182","0.8384734043644492","-0.4289898549966297","-1.2717227666802275"
"-0.002477861458246054","0.18963422661439513","-0.1964005802341989","-0.010791767190999826","0.3195377813035373","0.1744154551266572","0.8906344854460001","-0.5508768835361375","-1.2179037962511023"
"-0.0028822455781592894","-0.0555487853485762","0.0687881242452976","-0.1638102257747809","0.10577327493912168","0.11146694822030162","0.9035075727642036","-0.5464573408842558","-1.1593125393460264"
"-0.001775003345063519","-0.003645011293404654","-0.011857907616544688","-0.03749170183198789","-0.05388357160435405","-0.17253910547374815","0.9061824999991551","-0.45631186345050145","-1.1456821046852643"
"-0.013492514629216133","0.003990236825105519","-0.03593255212507233","-0.027427117519548225","0.09079362867146144","-0.074257600184725","0.9208667359660231","-0.4178816313760793","-1.0836750673915803"
"-0.14303985590142104","-0.06266711574876532","-0.018128013194985963","-0.1328289436651283","0.022651674919612532","-0.20858560763583078","0.9447181704776725","-0.290321757044604","-0.9931977457105484"
"-0.03254670923179461","-0.0110501315700701","-0.035792114977729106","0.006903762996440717","0.032406753716062955","0.032993666902659244","0.9032010706851986","-0.2619047574262362","-1.0211940701396682"
"-0.046565358722120156","0.030665798271166667","-0.04423486583565662","0.003721394195525346","-0.026824476440362958","0.009010717756619178","0.8797675935540102","-0.2675380252243063","-1.032830604286506"
"-0.01951976365458963","-0.0164099133977333","0.0208775783787258","-0.019862793916827888","-0.0034252111329793242","0.07920153071239826","0.8474734199570457","-0.23613948339899746","-1.0269142765320745"
"-0.020540352147703975","-0.015615294580259977","0.01091436822306962","0.044643354744170985","-0.09295175273125703","0.06572989982963244","0.8091606600814409","-0.22628456291853286","-1.050873769592839"
"0.001953995932136401","0.02384973463683994","0.035973332566821524","0.049482134230905424","-0.15509849736016476","0.14899142249688696","0.770095576921006","-0.24941130401927505","-1.0564305415168909"
"0.02565957073305024","0.06502137655604269","-0.007413898003998601","-0.03408934474760279","-0.1037120162908353","0.1634119648686028","0.7218075675650611","-0.2432371369712732","-1.0808803379827188"
"0.03053721347467038","0.061965469940347906","-0.10048407385094857","-0.13446561798415907","-0.11780135605401086","0.20669300705257787","0.676083030142612","-0.18975011675179854","-1.069129399708033"
"0.010387330470993645","0.04048998752039894","-0.005849676012855182","-0.14744348258447346","0.1501497889341618","0.34583352468933026","0.7195784615359353","-0.14602171056097132","-0.9467987001447159"
"0.016688983006308264","-0.021174510150347853","0.025857520928559606","-0.05073335982254605","-0.09689351298095131","0.4067725719720271","0.7419531133032885","-0.16933182970010502","-0.8589199865105199"
"0.02750914667198674","-0.009412074216925748","-0.025614552299679506","0.02971592220501115","-0.06165700043920952","0.4749437323930128","0.7561358004136035","-0.23864608967916914","-0.7823672815332885"
"0.018162096585992202","-0.017160906084051224","0.009796364615087606","0.08077149621237557","0.1950815478459773","0.4292212453039643","0.7948665176696698","-0.33660162457535336","-0.6998819053547902"
"0.003363563435833969","0.014666434028628635","0.034502873024051375","0.015220764235995311","-0.00023374951004835628","0.39757468311494143","0.8220058835742802","-0.4340030675569732","-0.6386266666155367"
"0.0042570597769756024","0.012295042185110206","0.05252219817948618","-0.002705344480508681","-0.19570317519642033","0.3525074545988251","0.8080182432415134","-0.49811941767083917","-0.6198317027547733"
"0.011610111024064632","0.037269963554167174","0.04643176953955756","-0.01097757786368979","-0.20376619297493884","0.35214342205830723","0.761792156962511","-0.5574336378584814","-0.6563429629851608"
"0.01462566117541763","0.05379388008797844","0.048695285914383525","0.010572609169947995","-0.1911774504652899","0.4298279662048275","0.7245939501014688","-0.6166818947229613","-0.663239897549719"
"-0.008726558930238687","0.05095402669324372","0.05497778300582566","0.03781168358661677","-0.18460067015796758","0.5271217298672455","0.6370179469821771","-0.7033181233644752","-0.6904353930839021"
"-0.011393568482999808","0.032372410973269504","0.031349232965329425","0.01317203308840859","-0.27237244635547064","0.5173899266174001","0.5418351195384918","-0.790798682542468","-0.7271264312294795"
"0.01005034370439928","0.02780413181085424","0.02453555301658324","0.032215220165131044","-0.27110399891628545","0.36573397023764226","0.4022094906391051","-0.8685826332155863","-0.7704692522370836"
"0.029587873612207397","0.03557685417837434","0.03574408957630539","0.0648687983289933","-0.12619225552907348","0.15051550539985523","0.2957975415736975","-0.9112477106370352","-0.786665608051011"
"0.016801632868284087","0.031245402585088386","0.03194815609370492","0.01809360904069399","-0.047395343288069186","0.015284939936625387","0.25082532743607805","-0.9336092771890935","-0.782677807023162"
"-0.018345124068174973","0.032269577949831776","-0.007999810043723167","0.008634690501255647","0.09612828780720432","-0.2590914823072845","0.2695219542553733","-0.9020128453942974","-0.7934644819345567"
"-0.030081891738990115","0.04750860104937573","-0.017527024814443667","0.07650266448850362","0.23919479916496017","-0.4479272954919375","0.37966765591956714","-0.853081252272419","-0.7486997810522689"
"-0.012837797482689943","0.05503514739109037","-0.0045576542572975855","0.0861580802211856","0.2613327969243238","-0.4085389746079005","0.4775254105982036","-0.8069596967172594","-0.6652011111699727"
"0.011698690402712292","0.022896192055871952","0.06475262151134692","0.06562070576614802","0.1389539453105615","-0.3622340354540234","0.5164233108064542","-0.7662735189906829","-0.6152718810876836"
"0.041608672986294934","0.010231630053200722","-0.0019591539810147104","0.022954531768215304","-0.05329960712291786","-0.48899016606235685","0.5812345686032957","-0.684729658897307","-0.6119868482737589"
"0.028162900999179803","0.03560593826581127","-0.01840062648100515","0.017656520722552835","0.09786582146918249","-0.5906037825389204","0.6264296933438279","-0.5957187506219462","-0.6481058657800957"
"-0.02108915916758623","0.06373232825214152","-0.00818609578916961","-0.0473030829997775","0.1463899192606526","-0.4269104834860373","0.6685319334689472","-0.5150851843882119","-0.6827866599649132"
"-0.012221593109488803","0.055099547870415","0.03994274723143421","-0.025308105651203124","-0.15278178581086055","-0.21017764327969576","0.6775040852361799","-0.46104803005356276","-0.755841867319359"
"0.06464027425402004","0.026475612245431525","-0.04810927890059595","0.006085329561965402","-0.16734260509388418","-0.20667322335631008","0.6171789033229543","-0.44033554658056495","-0.873449310747232"
"0.0440186097771112","0.03098052964593061","-0.009028512148012232","-0.06064871794707408","0.16827183423512418","-0.2667847033302295","0.6599777390821758","-0.38693164014827486","-0.9328413965472444"
"0.013367256307020951","0.0442875383657355","-0.02742371319780683","-0.03799810812128799","0.09975891943973997","-0.13098600441543137","0.6890675727622716","-0.3609288981576514","-0.9854019215700405"
"0.013448133131003598","0.05129368728581075","0.01238939197312843","0.05024078091525615","-0.02726771505496125","-0.04122771434173405","0.6935815124712521","-0.38178650094160665","-1.0184483710713133"
"0.020125285206237648","0.04277828197124041","-0.037047788295150805","0.032143013945173805","0.07676890792877268","-0.006948954196406332","0.6837455821177331","-0.41963625577219954","-1.0276824185333404"
"0.003131523976550432","0.020855112348244397","-0.019755431902433826","0.0033224307615216156","0.03576933607843117","-0.019745183372331273","0.6879251559223444","-0.44654929162246426","-1.0134472763396667"
"-0.01001673683662854","0.005512321379595105","-0.011612142608694063","-0.0018334784432650082","-0.0003151216099206111","-0.05732037951622876","0.6985134095606935","-0.46752562838811174","-0.971444617972569"
"-0.001534298511781827","0.008710636151990019","0.0037779100131723796","0.0020948287472886125","-0.10640447547778495","-0.0891052740706485","0.6616217047786562","-0.4895705709889904","-0.9788808862826972"
"-0.00017768607140622656","-0.0032071919057379793","0.005566624914848263","0.009469586953881214","-0.03125973454281191","-0.120749409376068","0.6351510706827838","-0.49840965629275374","-0.9690094443940875"
"0.004462140294931602","-0.012056648738869646","-0.00010290533348407402","0.05923671317232867","0.011480242925973862","-0.14811252200499694","0.6345659303501381","-0.5331195569408158","-0.9274970894320534"
"-0.0008218122052680296","0.014061692753422138","0.016968469077384026","0.09107484242547385","-0.0315588966746952","-0.22193832122202745","0.6465195114313269","-0.5878163445070892","-0.8704748034231808"
"-0.0912401757792016","0.03913653873717314","-0.013636089732169832","-0.040104604244840504","0.0912244221413734","-0.325636630713957","0.7031388045711301","-0.6013652110846488","-0.8187968245294989"
"-0.060555123632451906","0.017273614723867903","-0.0017286718391984906","0.02564445414902231","-0.2290202634999989","-0.11322121643815776","0.7284670218270757","-0.6043071752976925","-0.8336366742560842"
"-0.02604767873318902","0.09283511260242594","-0.07602529243939393","0.0548966379780989","0.020988333466341425","-0.038349430388039174","0.7391110031161527","-0.613885049820875","-0.8406480129484908"
"-0.0066372409773536225","0.04344513854747294","-0.03820226425639873","-0.036921754069125415","0.08747651895313949","0.08307969071071564","0.7366311226587501","-0.5922754651528682","-0.8381801524763384"
"-0.0004857882580067885","0.003467626935386103","0.01700605666682","-0.146365203033112","-0.11667171984401957","-0.06416661816156875","0.7045319958393338","-0.5140561565468782","-0.9014456351763518"
"-0.011643901509612744","0.005146485108334839","0.010942703482798282","-0.15002365151094546","-0.08914641041370154","-0.07466531663010506","0.6844421777518349","-0.3911796781599343","-0.9770340767902919"
"-0.007080137870591941","0.02513047320147341","0.0014887845114779437","-0.09664881371855451","-0.03789874057356594","0.03928900297001549","0.6669436954231951","-0.29871229175086295","-1.0183503103903004"
"-0.012173452142832475","0.037269963554167174","-0.0021662987733459572","-0.07043699312447738","0.02869474998365505","0.10942351222619447","0.6879251559223444","-0.2161539157472494","-1.0005359533396638"
"-0.012183080336163754","0.0724398962872773","-0.05555038245761963","-0.03105860900859762","0.13522997509287826","0.2360243222839069","0.7179344958394548","-0.17320915383559168","-0.9387740677485116"
"-0.02976416135905829","0.058877363084990794","0.06025243703986355","-0.01796232620755336","-0.05867734560565193","0.41240294193203725","0.7636590332619043","-0.18093082044498382","-0.8356305747700087"
"0.014696909806068997","-0.04459551027634588","0.007846869832225406","0.009708252579579874","-0.40237634238667436","0.3274134781391244","0.7425939812866625","-0.2254270397174215","-0.7987597587092415"
"0.056525632914427755","-0.01436571753788036","-0.01892933103570902","0.04864357932980201","-0.13902750763539423","0.3574340283138341","0.7125567775441881","-0.30769649636558366","-0.8021428522041788"
"0.04808074454357298","0.00894922954071371","-0.008805671439213215","0.024803973748720048","-0.040476321501872393","0.32355473320963474","0.7410893347170024","-0.3663642759862343","-0.7638501562687278"
"0.027787401459260373","0.0183767326116544","0.023925890576940334","-0.029100376323357303","-0.033727223806585306","0.3142355001723764","0.781073924114452","-0.42199774274141394","-0.7155389274231478"
"0.02580880772968488","0.005489054109645559","-0.0017001713592964863","-0.03901477169828591","-0.15546706510664499","0.2897482446135388","0.7876776507257377","-0.46360740699226444","-0.728613684891505"
"0.018232382397310464","0.016232819880589118","0.023673723287372588","-0.012686458402677776","-0.1097287650872721","0.29035496551440204","0.8191080457364164","-0.5262461786672923","-0.7171896155535279"
"0.027400348087343412","0.013196337280432562","0.04143179404370567","0.0033751894395703716","-0.09428003259681886","0.31294925186254646","0.816851075881926","-0.5689640267472713","-0.736115326988975"
"0.011943246513326481","0.029928308911158746","0.055915407489558325","-0.0023425804314435137","-0.07490150634194667","0.2956213029338943","0.8286374740109301","-0.5919984191955862","-0.7439274945763185"
"-0.016612049268546817","0.04276373992752195","0.043654005375195405","-0.021745932133312672","-0.1414997834932778","0.2751141364847192","0.84086969334576","-0.6204418041432189","-0.7644385203548039"
"-0.026798677813027885","0.03973483996444717","0.055772905090048286","-0.017221971765591804","-0.16084480358937905","0.14433908662906816","0.8240956704765859","-0.6317215324039916","-0.8160020951206375"
"-0.006242485050771666","0.049657707367483324","0.08422175368788377","0.01922098882162634","-0.028456226372507193","0.17059796721842616","0.826408367981804","-0.6604947339674364","-0.8238469496016518"
"-0.022129004047363128","0.0636814310991269","0.08877356946353744","0.007116145558074944","-0.0012226598532017684","0.22226631913593367","0.7834702130957628","-0.6970384149994134","-0.8249256170927911"
"0.0008246088543787156","-0.0007090765383872057","0.07967613366873053","-0.00956041045332905","0.0003540442466759375","0.1114426793842671","0.7424267983344779","-0.7241625334837979","-0.8384906779662119"
"-0.02214826043402567","-0.009085916950668725","0.014859846615068957","0.062048904752263274","0.13178602063063777","-0.30847856363754655","0.7225598908498915","-0.7126849152535379","-0.8136159518826623"
"-0.023852450653660023","0.02631772719934532","-0.004660297289988141","0.13258186590569299","0.284858906975626","-0.46246432827661904","0.7333710550911531","-0.6673285342470624","-0.7433227870434069"
"-0.021840158247425093","0.030984684515564458","0.07738989952006962","0.12382084455088135","0.17306560823642206","-0.42377980363758333","0.7526806860684581","-0.6408508563296696","-0.64295768002693"
"0.01741302314481959","0.02153235609856153","0.021147506836928134","0.0542419682504866","-0.09772877365316945","-0.4459615197731408","0.7063988721387271","-0.5874733352266446","-0.6610171887800984"
"0.033697186525992386","0.021759835211014676","-0.017355608884598264","0.06191797080674081","-0.1293753406123117","-0.479185556304408","0.6949468399140916","-0.5217079020337182","-0.6837509233282044"
"0.028011738363878904","0.039463734720838625","-0.07482125042614253","0.005905102836952134","-0.03474676835204357","-0.43200693905328796","0.6694235758805976","-0.4467207962626865","-0.7487651548396105"
"0.0211814980146777","0.07457861543130027","-0.11594455157170332","0.05224715108046795","0.10850881347306253","-0.30770196088444174","0.6477176559219823","-0.3942667616839352","-0.8134034870738014"
"0.03651920999138691","0.0475013300275165","0.04763787680497577","0.010775749335427692","-0.026219690274547694","-0.17401465070464736","0.6457950519718612","-0.38503189644119734","-0.8695759138472312"
"0.05455281610085103","0.046813699103114746","-0.10793963417313995","-0.11530690095550503","0.16725946958083113","-0.19933190045586574","0.6370179469821771","-0.35492623574987175","-0.936812854128258"
"0.00931186127589107","0.0530761263587313","0.12052475627610534","-0.12790929321204178","0.07995438630906598","-0.11473559180671225","0.6940551975024414","-0.31352765413314104","-0.9306023443307883"
"0.006975098754392425","0.01928145547442468","0.06997977474554813","-0.03061670694245932","0.05123721494532493","-0.04701097796876178","0.7076527442801107","-0.2810209284787037","-0.958811133568769"
"0.017000936470241323","0.015548305108412753","0.01292986846518313","0.10470063750620451","-0.019053440902562543","-0.013065914318908809","0.7052843191241641","-0.2973006766351873","-0.9946359690320676"
"0.009591078882497828","0.03731670583754796","-0.09203512723652064","0.11379862122081659","0.08504732244224715","0.014062275977205932","0.7216682484382407","-0.3306121548322062","-1.0130713770624513"
"0.005402814783396439","0.03618969744936684","-0.04572597790009488","-0.026942854471035005","0.06275854696841432","-0.08096307958106475","0.7364639397065654","-0.3507573537260073","-0.9931814022637128"
"0.0005116925711125311","0.026461070201713056","-0.023291143612015997","-0.1380663014860267","0.028603804695562528","-0.12087075355624062","0.7500336226588707","-0.324622685089059","-0.96397566276877"
"0.002675147612648336","0.005033161039071649","0.019928181957642316","-0.15000439651895686","0.040412332365259866","-0.14549634148047497","0.7621822505176078","-0.25446409457351593","-0.9290987472219273"
"-0.007715598630455589","-0.011131151527930126","0.0539162433920843","-0.05004018011095656","-0.010355242085629428","-0.1910707886697128","0.7604825571703995","-0.19703774469478194","-0.9103364702548347"
"-0.015533691615444852","-0.022252698820331266","-0.045571083987583985","0.08527042509051126","0.05836445357531251","-0.17524508069159792","0.7775352182932139","-0.15107054331582245","-0.8776332331371061"
"-0.1046522490896573","0.05247886384886573","-0.050657800074441976","-0.002855244593139909","0.19075925336452754","-0.20730178620960432","0.8157922505180912","-0.149123306016068","-0.8489504839408976"
"-0.054913002340329135","-0.03691315632336196","-0.08225822347883259","-0.09440656990148237","-0.1799528872770287","-0.21256812362909663","0.8306158056117795","-0.1270810019481159","-0.8421352666105164"
"-0.07004852225708172","-0.055244441147896874","0.0093311665645132","-0.038224354277153996","-0.20252646510041447","-0.3382321566158764","0.8065414604972176","-0.05878125787928964","-0.9116276025548349"
"-0.034703424537998545","0.05770984471787966","0.012624830720144998","0.1377710862466199","-0.10240288280171402","-0.07743439082164456","0.7864795062350827","-0.0781982216853777","-1.0083644643738428"
"0.0059516218032786925","0.0764867393106447","-0.09103761043995043","0.08082541018994366","-0.04155091187959718","0.11292793214958015","0.7559964812867832","-0.10024976061857253","-1.0671845295346147"
"-0.00020560783206690579","0.009273620987376347","0.03529179935177356","0.010562981673953696","-0.07618431356346222","0.1177816993564855","0.7395289604966141","-0.11448860355641115","-1.0445161687738505"
"0.027531291516648654","0.04143937523173308","0.022160306499532743","-0.0009342703173975274","-0.13119424637416213","0.20873886993028848","0.7071790592489211","-0.14208897723402822","-1.027845853001695"
"0.03292693105949098","0.0580983250286444","-0.03497840562400517","-0.008523529134743099","-0.05708101646992268","0.2465739853081157","0.6971759459432177","-0.15329218803993253","-0.9776060974295324"
"0.03312623466144823","0.02668751059675774","0.009416688656740885","-0.07788097302726898","0.016512628643661858","0.33816457250241977","0.7136991943841153","-0.16797430450942255","-0.9028675150510357"
"0.03442315230316997","-0.015790837822290033","0.021341434015391778","-0.045410317287298406","-0.0842856240948618","0.3852461144094018","0.7429283471910311","-0.1879216134337364","-0.8148253669484854"
"0.03049292378534655","0.011651037391863855","-0.03281402135318618","-0.002849371820583387","0.015896354651982275","0.40233137497770866","0.7587549999978266","-0.24938491869001012","-0.7719074755586028"
"0.012782824971813022","0.01924925523476236","-0.014377515260055346","-0.030819847107939016","0.1017477492925001","0.41283978098065877","0.8068200987508584","-0.3248997310463412","-0.7110117926497292"
"0.0014148171055854263","-0.00044119131874489215","0.027323849966996137","-0.00808461159236303","-0.07426967591940915","0.4492430350324489","0.8364672089382356","-0.3978419737993381","-0.6637955747421243"
"0.0001929993718475654","0.016670119909551563","0.03839174285415839","0.026281794383844866","-0.0777303834610351","0.43689019749087477","0.8291111590421194","-0.48053359571573967","-0.6525349398725017"
"0.0040336856916901856","0.027035480928592467","0.04442227918124947","-0.020257521252594127","-0.09955964590029522","0.3888136333064772","0.8262133212042557","-0.5402831738362539","-0.6390679396800937"
"-0.003729526591310843","0.022372678482007177","0.09740425826864485","0.004080499796112681","-0.11470442966475503","0.3565846190526257","0.7908262629918785","-0.5966422371462201","-0.6627495941446556"
"0.0036061939077819106","0.03628733688576225","0.08978760827744214","0.03590736487894452","-0.16548061998504257","0.3108864007996117","0.7724361382515883","-0.6564841639191616","-0.676886675657317"
"0.007101228087032027","0.050158369158361936","0.058296643237892576","0.052900858058480826","-0.21743909905053288","0.26217884687831644","0.73512647608909","-0.7045846191691935","-0.7023824527206134"
"-0.0019386826316950623","0.07398031420402623","0.048402020106696225","0.010761308091436245","-0.289412721387543","0.3337233755081014","0.6336185602877594","-0.7504423214317035","-0.765909430569994"
"-0.017180112675091598","0.03749640394921186","0.028299888141031494","-0.051085726175937374","-0.25935291037590974","0.32649126236981246","0.5268165176672547","-0.7957987024381791","-0.8332607749788691"
"0.001559240005554428","0.0037095338326427856","-0.019941304597446908","-0.0054353172446519665","-0.14787313355091947","0.01185187039118123","0.3927636538406832","-0.8118145973020131","-0.9061852347586313"
"-0.0018231443117198644","0.0033957269163723733","-0.02582107751636071","0.10410373275455799","0.15583626273699946","-0.29648975863649035","0.41126523388242986","-0.8076984859366785","-0.883042914039639"
"-0.027578561472860554","0.03937855989334475","0.0008844917274687485","0.18327063231567464","0.35299607413336476","-0.4833112584302775","0.5180115488522067","-0.7812999640070805","-0.759323021495309"
"-0.041115801296622734","0.026263713894105305","0.06045483175221113","0.13948478053360502","0.25659406875529245","-0.5414108518969347","0.6067021049860619","-0.7311282604097489","-0.6396236168724989"
"0.008764979894675064","0.023149639103536644","0.012403435687862752","0.012085088790652287","-0.11591304467756353","-0.6002627792806622","0.680095420995039","-0.6373943781959592","-0.6020500325978074"
"0.038170445147699295","0.02984105664884795","-0.0350011233978401","0.012987185165318058","-0.10449223113078694","-0.5987095737744524","0.6810149272320534","-0.5380799988426294","-0.6586310455421232"
"0.01860595629856363","0.03122670567173607","-0.02995984285865198","-0.05611127908496119","0.055248380809616124","-0.5622335132145587","0.6882037941759854","-0.44239360226323216","-0.7210793559003642"
"0.02493167931720641","0.05253287715410575","-0.07188239659276903","-0.0022116464859210537","0.03531221634091349","-0.3519925866474531","0.6914917255689463","-0.3638048990475327","-0.7812068968079718"
"0.0350470592310361","0.056344970043160775","-0.011638990886862615","-0.043672554260327526","0.16094834524662116","-0.2876801711559571","0.692522687107417","-0.3269314013997435","-0.826821456925703"
"0.03250810464958084","0.040352876822481974","0.030435152356298432","-0.12237348301532014","0.07195838084808932","-0.22285325634052908","0.725290545735571","-0.259358573152167","-0.8789733957776128"
"0.015370883339257728","0.022055869672426308","0.06444696419065875","-0.06854711566079659","0.08294361433084384","-0.2513011859402014","0.7431791216193082","-0.21075415811317422","-0.9211231451662293"
"0.008729355579349372","0.02045416742857812","0.03441200192871165","-0.006491742380106342","0.044078863453621504","-0.20018859036788453","0.7542689241142103","-0.18437542518052505","-0.9547743022004136"
"0.0016160463462089108","0.026416405353149198","0.0004660716384726359","0.04108118122628053","0.06596077842809307","-0.11328188852824408","0.7831637110167577","-0.17561153806516677","-0.9794692503687734"
"0.012869478711794417","0.02499440122096491","-0.04196928420866384","-0.0009173259244475618","0.021244416251233526","-0.16246996540302297","0.7831915748421218","-0.17008908865000955","-1.0148691562143506"
"0.005758095117320204","-0.012517839268226711","-0.0005107926364294452","-0.1528541353332692","-0.026253435763024132","-0.23043969448492216","0.8164609823268291","-0.10203077034395772","-1.016094914727009"
"-0.006415792530734472","-0.05108437792700712","0.01314961129573193","-0.12268156288713768","-0.028783390079934763","-0.3062215618863356","0.8145941060274355","-0.012428830693061632","-1.0451045328599264"
