"AccX","AccY","AccZ","GyroX","GyroY","GyroZ","MagX","MagY","MagZ"
"0.013885253108243152","-0.03916197951268189","-0.005905644346575785","-0.03046555525534883","0.02988661191707809","0.3698354035274773","0.751287494800254","0.5031642499407012","0.737181031439185"
"0.016649507413650073","-0.03193146763237888","0.02262416213619872","-0.02297632612138402","0.04910000067515069","0.30006249992821277","0.736658986484114","0.42085521529864156","0.7862440588391953"
"0.020016486621594328","0.008069539767487359","-0.00913342695808628","0.07977793862576397","0.1195945654321298","0.34571218050915764","0.697315265070038","0.35524809408130503","0.8324796699366735"
"-0.010546287469848271","-0.003110695058491874","0.08227835139891367","0.14266185421172353","-0.13163939962640445","0.529038967913973","0.7006310602883632","0.3002742605577496","0.8082423382797064"
"-0.01391615513579191","-0.026679712415195712","0.03635746946984856","0.0631560667916076","-0.18034060139994948","0.2845061760300811","0.7164298492697947","0.26016856007500216","0.7974556633683115"
"0.010464356017643795","-0.08401068105783963","-0.08542425505055538","0.11741855971467284","-0.051566860055049825","-0.02010484752236296","0.7090737993736783","0.26408678147084946","0.7814881158100805"
"-0.009776032003346867","0.07127030048534924","-0.07745651219099466","-0.07073640824990006","0.10136003516957935","0.028938344401289815","0.645070592512395","0.281210860163812","0.7925526293176777"
"-0.022735580227232974","0.01580279087348591","-0.003698096305470426","-0.053599465380048714","-0.04498050655950725","0.1220020499428897","0.6150333887699206","0.22646130193900882","0.8172966078265437"
"-0.10458485173633845","0.03285645328561273","-0.02400778611389976","0.11660022255515748","-0.08242363898602019","0.06167700421186647","0.6146990228655517","0.2304059086641212","0.7772061327391936"
"-0.050657340887908874","0.009892800434560462","-0.004896149087438075","0.10783920120034583","-0.058471522058916224","-0.07830078826807717","0.6294947141338764","0.25767514645946293","0.7407929331898186"
"-0.05422940061380914","0.0385029211180114","-0.025701292890685613","-0.06853556266560341","-0.027968951092095684","-0.10333166575408809","0.6572749480218606","0.26462768072078124","0.7140550541670283"
"-0.025277423266687617","-0.00014619557474172405","0.02713839032241642","-0.07578410439971077","-0.038099777526191515","-0.1866150303737737","0.6922440488537763","0.2662371858059442","0.7076974533480395"
"-0.016737215781853297","0.015408078258270402","0.026913897411883953","-0.006146981748550512","-0.04184768071442541","-0.21001261519466097","0.7303338981264687","0.2933349189610637","0.6872354579100605"
"0.01894390588449112","-0.031103609857834773","-0.013394455228652825","-0.006936340145123047","-0.06364583029196966","-0.28032671383749547","0.7846962214117819","0.3502612668502266","0.6427976259644814"
"0.02701522035409271","-0.02862003653420247","-0.03715931191215866","0.027469827389541304","-0.037621118115178244","-0.3651948334502357","0.809104932430713","0.41257022190944237","0.6075121242467524"
"0.027116316384071023","-0.05093272518537168","-0.0573326950775784","0.07840698319617585","0.07964804428601749","-0.4665414927304195","0.7930275051956408","0.4874781716926792","0.5440505201847136"
"0.02519260335648376","-0.022425125910135933","0.06371999542794092","-0.008386337316824345","0.03533854260851922","-0.6849367482051261","0.7130861902261056","0.5800510994188104","0.516348377798632"
"0.03748010368584741","0.0051255030166839095","0.026509314512405478","-0.0758851931076509","0.012398311676297308","-0.5544432168474756","0.6382439552981961","0.6577558941041337","0.49039498422394273"
"0.04309526603664264","-0.003994643573092916","0.03391634140867676","-0.10147218921169807","0.028747402518866507","-0.4953971387754719","0.5525626923036614","0.7211598403278454","0.47594737722140806"
"0.031464408492471445","-0.008388937569590815","0.0067774822602501466","-0.11647182797081514","0.05294124244853216","-0.4423211943679618","0.4795316060244169","0.7522681435312397","0.5103339893631876"
"0.014181801462846186","-0.03872779563594483","0.01169736727707306","-0.06304018795205783","0.051285080886426256","-0.4272987848625897","0.4285686694335214","0.765012257566218","0.5320217433138251"
"-0.0033058860847350663","-0.055855206984072446","0.005417100657971074","0.023666003722193966","-0.0016197078346372748","-0.47013328046352953","0.36339518190694664","0.8073475183718549","0.5158253874998975"
"0.011853704315345697","-0.04503384902271678","-0.01434240597321954","0.05479266102136048","-0.039090602506988974","-0.47668586619285175","0.3015096257733331","0.8656722887120611","0.46390225690368403"
"-0.011817208989575584","-0.04798276774534","-0.034348503713127504","0.02008361246271549","0.04896358274301191","-0.46375057658644897","0.22318441267491412","0.9228624898938736","0.41475751226949653"
"-0.00877469989689503","-0.051322244213544886","0.002619923123240883","-0.02549680457269137","0.04231021692992747","-0.36609278038351317","0.13658364344336502","0.9652109433641433","0.43266993000114584"
"0.02127970558665663","-0.0610799555486356","-0.006372391336275301","-0.05808491576379239","0.17352272797393972","-0.21518187727001517","0.0595958939624218","0.9941688422324428","0.4469377590884905"
"0.002034872756119048","-0.06587467510609554","0.03950284851990325","0.008991966877604065","0.14734005819151394","-0.10271766420241459","-0.005577593564153268","1.0123351414313713","0.48439693923533395"
"-0.003719898397979564","-0.04927804835369194","0.017009567595503584","0.05418324052492139","-0.010199917106755621","0.18792834303068173","0.01005401246509391","1.0200396575767414","0.46813520963406463"
"-0.02425683477357324","-0.020583479944933054","-0.047613618380561065","-0.006655506086969359","0.010667000586662315","0.4336139046262137","0.08732040019967785","0.9812004528987123","0.4687562606138117"
"-0.024073899100279173","-0.04839929342613321","-0.027543497823481925","-0.09583047655903913","0.011594163865795017","0.500061977688748","0.17539795217552312","0.9160286896142477","0.5401117494973712"
"0.008247945912786004","-0.058766731879991034","0.03914762514721159","-0.07414069083348403","-0.14716950421672997","0.39444400326648743","0.23374480248789928","0.8763979250582695","0.567928296011301"
"0.053644877469712506","0.011333916967060447","0.023888302987504353","0.00627296945889428","-0.3509922546144","0.4442193859733019","0.2991412006173866","0.8501577151042615","0.5599363505087677"
"0.04743469277104493","-0.057433018727526014","-0.08162832156795492","0.11294177407732404","-0.2797198683145243","0.63688967525141","0.43389066007805993","0.7992736076167757","0.5166915901821763"
"0.00018722245584880122","-0.03724139102443591","0.0003972987413177947","0.04229039472316443","-0.014192175924311788","0.4649449719467878","0.525116824320046","0.7349065968748923","0.5216599980201521"
"0.02446567475997306","-0.0014690021944179033","-0.025224219640152035","-0.03587043150654801","-0.0745712313483475","0.3856829534580233","0.5823769854432232","0.6851966365396976","0.5623551806404139"
"0.03524732565232647","-0.03307821165132077","0.0038504003642274806","-8.396987118108301e-05","-0.05969210355700007","0.45264067207728265","0.6396928742171283","0.634127831747357","0.5707393688669978"
"0.02168986662256863","-0.030359888193376084","-0.002798265936390432","0.04314146536906042","-0.0075313908903566484","0.4405790605681229","0.6835226715148205","0.5656579023047718","0.6072506290973851"
"0.025352431365782805","-0.03718841643660435","-0.013811636166348857","0.04825655399083122","-0.01702057438398919","0.32981609290654257","0.7062316891865428","0.5120297205737295","0.6334164874809352"
"0.014622772717418239","-0.03517226594677988","0.018212990033104944","-0.014850719502196082","0.01036807778448453","0.29977127389579844","0.6884824324296261","0.45015612344738565","0.6860914166315791"
"0.003986507544366981","-0.0165324820519318","0.03906708031270592","-0.013621288263724161","-0.002884325998534331","0.2879280819109494","0.68851029625499","0.38724030581507557","0.725577184186018"
"0.004493913332924779","0.04532417833938044","-0.013508044097827488","0.10689570659290458","-0.01501762407860417","0.310303948734783","0.6922440488537763","0.35088132208795325","0.7203636246455104"
"0.004333122504292609","0.033054848310628944","-0.008024799594941593","0.09097953021513028","-0.0730227681537196","0.4621540558028172","0.7219190228665179","0.30494446383764845","0.7001467809100631"
"-0.003941346844598715","-0.08902249255366812","-0.017927683734805196","0.04665068765898222","-0.14254326100928671","0.24242886811341857","0.7333989189165171","0.2540603563501626","0.7000160333353795"
"-0.003575475498010545","-0.02530237313157529","-0.07096129412637087","0.22675803172192105","-0.03684090327522662","-0.11013422049456596","0.7041697661096012","0.293044680339149","0.6603014575252446"
"-0.0723015194965983","0.11041124987100907","-0.04803699507475753","-0.07016260948863987","0.07674736825527709","0.12800615997783163","0.6562718503087535","0.30474657386816123","0.6558396965391676"
"-0.07934935701508618","0.0060001030746087945","0.040640802463816676","-0.06616912415020484","0.02128749559822472","0.0667734597791171","0.6680303846123937","0.2624508910564216","0.6539928870467623"
"-0.05459527196039731","-0.0103801588416122","-0.025978036681038423","0.05702720284163716","-0.08569527606029588","-0.0671346968085914","0.6828818035314466","0.2645617173976188","0.636080469315113"
"-0.042386722816350066","0.04564410330118669","-0.016593530835044633","-0.014928702219749897","-0.04059598635462571","-0.12210846419400148","0.7152317047791393","0.28276759459044504","0.6067766691391572"
"-0.02149354328749948","0.017748308579534973","0.03354253076648379","-0.08561666605868784","-0.002965937428112093","-0.1611303256539171","0.7528200051952784","0.2666329657449186","0.6113528342530823"
"-0.001736490571738453","0.009388710876233922","0.05334829904621099","-0.05225642968884407","-0.04720387952366389","-0.17172852635019495","0.7951451559233106","0.2794694284323243","0.6066132346708027"
"0.026464487695544214","-0.026853178222408843","0.01899530755389333","-0.08944840946441865","-0.07379580310250602","-0.295324854506833","0.8385291320151771","0.3278997002981684","0.5678465787771237"
"0.038238805320351295","-0.04074290740836083","-0.059036528115198314","-0.03719421220576406","-0.02399224870539745","-0.4012583237975425","0.8543279209966086","0.38275479984003147","0.5423998320543336"
"0.024999076670525287","-0.033933076078484885","-0.010103682426054564","0.021731839776939394","0.12289492207106631","-0.5284512934544975","0.8177427182935767","0.4618844023056627","0.5153841144353405"
"0.02571060015770596","-0.0038163996658008605","0.02649774910027133","-0.05262034903742856","0.09342625543203442","-0.6140474781482733","0.7374113097689441","0.5408029221371744","0.5142237297100237"
"0.04320213898261972","-0.018523703323953186","-0.00010352490913411709","-0.037745867726237364","0.10943262613631814","-0.5237916769358683","0.6524823700592394","0.6087847229883578","0.5215292504454683"
"0.03253024949424277","-0.01832426958152851","0.005528417749762242","-0.015191532860394248","0.14017692010570038","-0.5446628759255613","0.5625936694347287","0.6744314221995918","0.5095658473619215"
"0.022506337417060113","-0.016402642375874067","0.00039213561090076525","-0.0313965341179975","0.15881113097644692","-0.4674879773357661","0.4769681340909221","0.7187323900354686","0.52396442402395"
"0.02038043232951624","-0.04077303021320623","0.009442297783609355","-0.0077719105224682145","0.15451516276260283","-0.5005421320147916","0.39295870061823174","0.7552760710674459","0.5492804231720566"
"0.011877774798673878","-0.03529379588356992","0.006694665648360985","0.024230174987459857","0.10920526291608684","-0.4678277410402495","0.31833937629323505","0.7896033844411657","0.5450965007821823"
"2.7394446549773205e-05","-0.044048106202086476","-0.011680295930198856","0.033029706326248694","0.07360496922197497","-0.41266467673377005","0.25854360706192736","0.8264109187657925","0.5466164413378788"
"-0.022802977580551845","-0.06734238280425216","-0.025284111952989585","0.05978644319360313","0.033574682678935326","-0.35507472882383795","0.21641350311144375","0.876846475655774","0.5136026787302769"
"-0.012115682982844867","-0.06466353060782902","0.008753763363715897","0.0633303244691044","0.040043764618779655","-0.3073379283439238","0.16266418398414031","0.925144820875293","0.4767155192226742"
"-0.002564515198227448","-0.05615331888030099","0.04031449262146038","0.033236697490126116","0.13813543771772877","-0.2850834057002627","0.07845970373390136","0.9713059544243502","0.4760290944555853"
"-0.0006523560026377223","-0.036250454616763295","0.057307387449989616","0.028401769001789402","0.013390572635327815","-0.09627671511885115","0.0016391372051427757","1.0089446266208235","0.4463657384492499"
"-0.011518734996306285","-0.017696884266817547","0.04003981408327438","-0.026747416302350748","-0.049788640343135536","0.2597762321108983","0.007379085230142377","1.0091689019195755","0.4416751692074769"
"-0.019076866761351296","-0.03351655039769168","-0.03283673912702111","-0.08530954893646972","-0.0907642792229264","0.5900993593768424","0.07547827441994515","0.9737597900459919","0.4470521632163388"
"-0.014965628208900057","-0.1199554969776623","-0.04595935139494465","-0.02843704184935014","-0.0431352745300511","0.5012026129823708","0.17656823284081458","0.9117278809440583","0.47751634811761107"
"0.0332225165947609","-0.04108776158797017","0.019163832130705192","-0.019336169885939756","-0.23938323974843617","0.3031931797766667","0.21529895009688083","0.9017410338172689","0.48067063335685223"
"0.06876595509646818","0.00089459926853706","0.004013142234972268","-0.03294559822348013","-0.2270936593706705","0.45261640324124813","0.33553135654287025","0.8586274057983153","0.4688543212948243"
"0.04728545577441028","-0.022723237806364486","-0.05089530407362535","0.036437839908230366","-0.19061741895440434","0.6252163651188027","0.46685356548376233","0.804313205506384","0.4656183188214059"
"0.004189662423656732","-0.05460147507205897","-0.023004073560829123","0.07085036159025096","0.04836765177630039","0.5555890745357454","0.5522283263992924","0.7635478717920126","0.44435549448849004"
"0.016353921878380147","-0.015654765841781527","-0.05413981522768702","0.010284747039718468","-0.016158269455048786","0.3856586846219887","0.6105194490609404","0.715355067889553","0.4697368674239384"
"0.03163675315310114","-0.035850548414505475","0.0020073693305644406","0.0015715743399984886","0.020184185655839137","0.5190644763037826","0.6709560862756218","0.6516476903792942","0.511919303706226"
"0.03322925633009279","-0.040103057484748336","0.03259251476975026","0.05953805379695022","0.006067801635941324","0.44264191163105765","0.7709593555072919","0.5490351448678435","0.536516191193573"
"0.022970416335627214","-0.043257642254247004","0.002579444180771368","0.055429038506583615","-0.02185958169962783","0.23494435908037045","0.7916900415781654","0.5049188743368215","0.5521405263682596"
"0.011294306282799055","-0.03323505797999851","-0.01522633390061508","0.010907646030549582","0.06630780650107769","0.19840034577958007","0.7624051611205207","0.4868449237903201","0.5644634852821863"
"0.006715137534448208","-0.011496780055708701","-0.008485970403790713","0.007839748157006419","0.058821573312830173","0.23154914891914016","0.7501172141349629","0.43954922108286953","0.5867559467657353"
"-0.0024874896515773163","0.006158611351140075","-0.005175990756041104","0.036705484296871864","0.030793671500948236","0.18670762057814502","0.7294422557148182","0.3969896849784803","0.6026417770897894"
"-0.01030558263656658","0.03608374827370373","-0.011624534121694933","0.12085557578463742","-0.021529306706028675","0.2308914634626045","0.719076912679382","0.37061754837814737","0.5855792185935832"
"-0.0003981716986922527","0.05779501954537353","-0.030744638682040547","0.12393637450281295","-0.05086562401791539","0.288049426091122","0.7184081808706441","0.3525567904962786","0.5645615459631991"
"0.0005964206724276762","0.04387205140235076","-0.015046656962102438","-0.02228410915939396","-0.08234226688614794","0.24133191672465795","0.7164298492697947","0.3212505973233971","0.5595767946783878"
"-0.09460041525181398","0.013059226582515598","-0.0468969758786773","-0.057798016383162294","-0.038561683857819315","0.09654161405906765","0.6959220738018344","0.298427287509202","0.5813462658632026"
"-0.05144685274107282","-0.040431292185822275","0.02103618974513696","-0.06192243566711978","-0.009982127074744584","0.05440606093592222","0.7023864812863001","0.27464091317683564","0.6095550551011831"
"-0.05240004388086831","0.014327812153470067","-0.05091595659529347","0.0016921105898471062","-0.0505018428655453","-0.04070350748338827","0.7107734927208873","0.27268839881122825","0.5927213048606733"
"-0.036503896690945566","0.024724334694764826","-0.007389321503213535","-0.0899856237409005","-0.012534099724561827","-0.0870375692405068","0.7435413513490408","0.25878333028859146","0.6010891496404219"
"-0.02727045928626001","0.015755009872696665","0.03640910077401886","-0.10157809166763535","-0.023684470704115917","-0.20478510791282387","0.7717116787921222","0.2637041941965075","0.5918877890720655"
"-0.009227224983464613","0.012980387931213344","0.06219790458100046","-0.06336944831506285","-0.05210774518949481","-0.2100223227290748","0.812532182950494","0.28534016419377906","0.5799243859885187"
"0.023450863182857457","-0.02190472848849654","0.03773705791727898","-0.049685888258366374","-0.08027924482468074","-0.29515497265459134","0.8502598024934535","0.32696302110926206","0.5600017242961094"
"0.03724325012989823","-0.033927882491442574","-0.04854298185562647","-0.01961633001937384","-0.09129080457504099","-0.34298884847864364","0.8905508939699079","0.38345401106555305","0.5161849433302775"
"0.03831968214433394","-0.047653494326857594","-0.012626181422598758","-0.004340863500020112","0.08235246995824246","-0.5017070361444489","0.8669780977118993","0.4561587858551653","0.4904440145644492"
"0.025343765991784666","-0.010272132231132167","0.036324425435179566","-0.07597665431959674","0.05657426737812288","-0.6439952218148794","0.7972070790002521","0.5410008121066616","0.4736102643239393"
"0.035427372867621175","-0.011983938520277314","0.00998768957582107","-0.08651394868535646","0.08801979738463955","-0.5766492018190676","0.701996387731203","0.6150908166826845","0.4777288129264718"
"0.026925678156111924","-0.007294129421072015","0.01479644337354783","-0.07712136359331884","0.10855907271121891","-0.575605641869583","0.5951943451106981","0.6781649462905844","0.4967525850429315"
"0.018693572857878163","-0.006816319413179559","-0.012655094952934124","-0.08635028125345337","0.17791442806998645","-0.4538246226483275","0.46629628897648057","0.7273340073758473","0.5388533040910417"
"0.003363563435833969","-0.038987474988060294","0.013309874863876543","-0.01148013315459217","0.14347009685347167","-0.41392665620756547","0.3726181081024557","0.7577826773476176","0.5778977985809233"
"0.014902953143358138","-0.0363865265972718","0.0018609429519374678","0.048838054748886854","0.046594218658496236","-0.4027872604677177","0.3141319386632595","0.7991416809704509","0.5552948116075008"
"0.013424062647675435","-0.05551762382632234","-0.01434240597321954","0.053378381859798034","-0.0029958536413004226","-0.3658015543510988","0.2507138721346216","0.8396959320507027","0.5168713680973662"
"0.006193289455893509","-0.064854654610986","-0.023295274116349615","0.03303933382224299","0.03569993046383424","-0.3868426351930335","0.19250634094906613","0.8800391004968348","0.4903459538834366"
"-0.006695010137341247","-0.08865167043884721","-0.04487302875520153","0.030154936022351163","0.113793213370649","-0.44297645294089405","0.09899534302722564","0.9317675385207996","0.46159783089988604"
"-0.008630276996926013","-0.05866078270432793","0.027427732150986782","0.028718513620001825","0.07135766328726767","-0.3960647928861537","-0.03026494283672459","0.9895514096110738","0.47004739291381187"
"0.023467231111520617","-0.011351359618524041","0.03748509715292792","0.013855585304003786","0.14974771502891068","-0.08414715086879467","-0.10296166321160008","1.0258444300150338","0.4608296888986201"
"0.006585156924476092","-0.015148910463860604","0.03901338375636881","0.008573941001531624","0.03281122091836916","0.24059899787641523","-0.073398144500315","1.0172823906685524","0.45372028952520094"
"-0.01995303235449667","-0.07941020165576206","-0.05518070231976028","0.0012046704676557725","0.019528422262750953","0.5622630044452402","0.038809480240820746","0.9644721541447242","0.473675638111281"
"-0.025855114866563677","-0.09551759250878011","0.03185315449403156","-0.04535255231133262","-0.009208613466547142","0.4035205479434005","0.14566725051205373","0.913825514620623","0.48147146225178905"
"0.03313586285477949","-0.011728414037795697","0.04801788320366918","-0.09780411323787033","-0.14104027045870507","0.33547073170258734","0.18921840955610522","0.8892343877456752","0.5254843645796465"
"0.05226130608800936","0.0003045039087898769","0.033961776956346626","-0.04345112185245866","-0.2651925551902716","0.531198894321046","0.2885250831536732","0.8446695666171486","0.5338522093593951"
"0.028848428364366054","-0.061333402596300296","-0.016591465582877822","0.09953067215726621","-0.29721486978705924","0.6550913022773052","0.44626219853970983","0.7820439876067532","0.4838739489365997"
"-0.014089462615754715","-0.027673764975093714","-0.01596156367200016","0.10060895170862764","-0.09164979913330094","0.462882120883853","0.5696989449025683","0.7387984329414748","0.44133195682393245"
"0.02676585014681288","0.004255005892522447","-0.06569077059666661","-0.042505701745818546","-0.07368810473502804","0.3681123161690259","0.6266804677721044","0.7089566255427989","0.4426557760176036"
"0.04073828430914835","-0.019556188427964274","-0.023805391401552183","-0.03824072102034431","-0.01819616189743778","0.486883999722","0.6884824324296261","0.6447743121057706","0.5043359443745786"
"0.02847678010177913","-0.0316749044324888","0.01935094397701836","-0.0020237177641123467","0.043755768351187545","0.4125970926203135","0.7232286226586294","0.5747872262304499","0.5514050712606646"
"0.01787228796672104","-0.03395385042665412","0.022040315348640965","-0.020703274317130142","-0.009959869412132468","0.3167594591199672","0.7333989189165171","0.5174255204084149","0.6045049300290303"
"0.014615070162753225","-0.040760565604304695","0.01910848337263463","-0.04487214026121712","0.003883678743487781","0.2577861875560671","0.7338168762969781","0.46072344781800434","0.6574086674353706"
"0.014482201094781735","-0.025813422096538523","-0.008281097388842964","-0.02640756569375201","0.08395119239102677","0.24107466706269196","0.7135877390826588","0.39952267658791696","0.7111295771834832"
"-0.006772035683991379","0.02967278442867713","0.005595538445183632","0.05415339528733906","0.008726036675003513","0.360103600277632","0.6897641683963734","0.3513694506793551","0.7511219915898207"
"-0.005193011977663487","0.023288827236270532","0.013179144401717342","0.04787337965025813","-0.01348663195247823","0.3257389284527421","0.6909344490616648","0.3082690153250341","0.7567277938543788"
"-0.003373283438053936","-0.008125103347841504","0.0005786278815638907","0.10167760376399479","-0.10791703921658688","0.2872485545019826","0.6940273336770771","0.2726092428234333","0.7528217100607073"
"0.005611746578684937","-0.058585995050918674","-0.0563021342463392","0.14782219206466754","-0.09674034196942706","0.04397288832467916","0.6970087629910334","0.2806963462431452","0.7220796865632323"
"-0.014272398289048818","0.05117215734902071","-0.06415009248022485","-0.02426159683662287","0.048903750316635256","5.017811595119508e-05","0.6584730925125157","0.29412647883901266","0.7005063367404429"
"-0.103236904669961","0.05514213528416194","0.007327871962705547","-0.08028207052824703","-0.016787945910236746","0.1649433284223814","0.6310829521796286","0.23949565459590172","0.7375242438227293"
"-0.04476488656917313","-0.01065853510707998","0.01588317906372431","0.05942830034261522","-0.07007183288482279","-0.03290593046549481","0.6388012318054779","0.23784657151684135","0.7272278723163981"
"-0.041847543989799056","0.02871197082584991","-0.053233169526456556","0.05164446983122487","-0.07105787127151013","-0.05840762337057556","0.6697300779596027","0.26282028566613114","0.6793742599822106"
"-0.02354434846705946","0.010762830135888116","-0.003754271164407712","-0.03597729671208473","-0.022626394076071088","-0.09723048037500806","0.7044205405378777","0.2679918102020643","0.6626385704227135"
"-0.032325260785175475","0.01255690284378344","0.01615000964367642","-0.03163048227065895","-0.0546613931472506","-0.12678749578145823","0.7503122609125115","0.2653796626048328","0.6412776854087849"
"0.002964956231919498","-0.021476776916210256","0.029590464220072322","-0.005818106485385275","-0.049391353031994524","-0.20520495877622122","0.7979594022850824","0.2871475592484293","0.6128237444682725"
