"AccX","AccY","AccZ","GyroX","GyroY","GyroZ","MagX","MagY","MagZ"
"0.00623565350655109","-0.05121733375529023","-0.00016961297847210111","0.057454663663784024","0.02541593301821416","-0.34143564297243395","0.3951878066473579","0.8363449952340521","0.4734468298555849"
"-0.000405874253357283","-0.05943670460844894","0.015901146757575577","0.02926824364127627","-0.012679372855804352","-0.3155407949235939","0.38602060810257677","0.8746960713206793","0.45950586970494894"
"-0.006906830390629136","-0.059223767539714256","0.0013171620564158657","-0.011739112796838801","-0.009323970384601341","-0.3459253776388214","0.36141685030609727","0.9179152406566926","0.4394688038846915"
"-0.018643598061444257","-0.04924480939662116","0.008505767883525112","-0.045472896011261345","-0.01491806292111341","-0.2817343063274981","0.30602356548231335","0.9605935107427743","0.4265084505441824"
"-0.016804613135172165","-0.02769453932326295","0.015322669625651531","-0.00816105391055776","-0.04406866038152698","0.04419858849980026","0.2656767463551306","0.9786410759600106","0.44476408065937617"
"-0.012029029242863455","-0.014032289249764103","-0.0010950524744205666","-0.014066078578660754","0.00017981222106710706","0.35003203332330346","0.2833981392866833","0.9679550176076996","0.4350887601327918"
"-0.018865046508063407","-0.04530599298373379","-0.02465421004211192","-0.059858300525942175","0.002907931534137232","0.5673109223404218","0.3469833887675055","0.9040101721340559","0.46986761499862206"
"-0.01074847952980488","-0.10839457222148179","-0.04707252231285632","-0.027195094866085633","-0.010877220173339397","0.5083619196125562","0.40719711537927494","0.8385349775630441","0.49524898793407035"
"0.02476414875324236","-0.025968190990399338","0.062047141172823186","0.000729938640176913","-0.20614513024767478","0.2728328658974737","0.4504417723443215","0.820381871028748","0.46743244142014057"
"0.04642662092926122","0.004902313807127709","0.007142618843342509","-0.03260959861327911","-0.2909204985322348","0.40805882028185697","0.4886430769184702","0.8184425493277732","0.444829454446718"
"0.034050541221249904","-0.017974221814876862","-0.009475432716910351","-0.00745343295497682","-0.26447456607375175","0.5548852782907441","0.5486338929273266","0.7994319195923655","0.42544612649987834"
"0.007307271424321168","-0.0005587741293827747","-0.04059382626556703","-0.01615043146142638","-0.14848103100290633","0.4721528162490422","0.634872432429143","0.7536006026591205","0.4368701958378555"
"-0.00021716166406443414","0.00020302121798315315","-0.09933992415053472","-0.08252335159571972","-0.06317435077212158","0.4525921344052136","0.677922042616641","0.7118194337680477","0.4910814089910316"
"0.03194389252036857","-0.026412762041221016","-0.014842196997588047","-0.021835467846059647","0.03519973137932537","0.5526525453755676","0.7568045322223415","0.6237452046815932","0.5885210390239637"
"0.05452489434019035","-0.03990881732936597","0.04993650246663755","0.14071710002087523","-0.027761212907715927","0.5140893649167045","0.8067922349254943","0.5564494223912988","0.6447424961378996"
"0.028347762311140137","-0.021045709191698583","-0.011550185043689699","0.09377920605027229","0.03820331918343363","0.4450687952345103","0.8022504313911502","0.5158819786464145","0.691468410640441"
"0.020269708106206666","-0.020223045004196787","-0.015232529657115516","0.05864654766787818","0.007760580642989748","0.42696424355275336","0.7969284407466114","0.46071025515337183","0.725838679335385"
"-0.005886241897514759","-0.1057250684817348","0.012368326401026947","-0.05164989744120327","-0.005643797503025825","0.29317015049440714","0.7721017723472191","0.3769236420724741","0.7884667676088161"
"-0.023274759053783966","-0.015310950379580652","0.008211097704364375","0.09990614450104386","0.004220415639135615","-0.10227597138658619","0.7359623908500121","0.37425872381671255","0.7673183474037484"
"-0.0037102702046483017","0.061747339284570914","-0.05099650142979915","-0.05771233166881304","0.05726832352409212","0.1176069637370369","0.6809313357559612","0.3803405422122872","0.7875351911391956"
"-0.011441709449656137","0.005150120619264455","-0.056209197898832663","-0.012257072081332062","-0.024024079556229833","0.0824511278574214","0.6437609927202835","0.3493773583198502","0.8141913529278089"
"-0.0336443232715591","0.012635014392899772","-0.056973341200553106","-0.019797326944066655","-0.020439399227151465","-0.020840678630929813","0.6164823076888525","0.33452241794367465","0.8192578214467973"
"-0.10871534667545221","0.057106349903563315","-0.02319614201234264","-0.04501077620353502","0.01844665199386097","0.08663750207337727","0.5961695789984407","0.30912653852614547","0.8094190664518586"
"-0.058571715806210796","-0.03267518929683757","0.011004826267975987","-0.055878293681899165","-0.06484965871066803","-0.043409482701238004","0.6225844854435852","0.26539285526946527","0.8021952629505911"
"-0.044967078629129756","0.009933622028713014","-0.03271075874484558","-0.02534083913758374","-0.046605555259897305","-0.08538486150655554","0.6731573284793839","0.2678862688850045","0.7779742747404594"
"-0.017757804274967637","0.011784408707110354","-0.015823191776823755","-0.06328761459911131","-0.045016406015333243","-0.13878600831692828","0.7169035343009841","0.2754720510486821","0.7480494235847569"
"-0.009458301623415042","0.003434772303756454","0.03118607804415128","-0.06637515256448284","-0.050978108979503514","-0.20517826305658324","0.7699841216195493","0.2869100912850446","0.7221450603505742"
"0.019419538635055737","-0.026378484366741773","0.04580393288084671","-0.0652583630291442","-0.03994022296153753","-0.32898573008672166","0.8176591268174842","0.32234558848789313","0.6881670343796809"
"0.03379539409797132","-0.04561449205404696","-6.655689534818293e-05","-0.011273141990714752","-0.07720385810892048","-0.44387439987417154","0.8573372141359288","0.3945094640275736","0.6225971256758697"
"0.035931890198179585","-0.04254196595981678","-0.07650443094209432","0.0381447949480195","0.07223361000942197","-0.5670144739133605","0.8423464760900559","0.4889557501315174","0.5600670980834512"
"0.027979965325885717","0.0014901998305490907","0.058916218887936175","-0.05550378408772096","0.05117738251894828","-0.7047886560813691","0.7665290072744038","0.5799059801078532","0.5318419653986352"
"0.04164911139828626","-0.0046843519323115914","0.000746119832292344","-0.02577600195652603","0.14865397827474533","-0.5398333775546905","0.6800396933443108","0.656212352342133","0.5162012867771129"
"0.0313979739584857","-0.014276387840752641","0.01328405921179139","0.03252137453774973","0.18563759766668556","-0.5011973905877238","0.6046680457344841","0.7186004633891439","0.4971775146606532"
"0.017551669128789842","-0.012649756379101366","0.01032223977432295","0.005612908333525174","0.17126106225690205","-0.46212456457213563","0.5038288617418917","0.7752365726563921","0.48171661395432075"
"0.012484350978543722","-0.028556674772286295","0.02486578683805648","-0.005675330719789828","0.1135658501504177","-0.44766033829555774","0.4349216216165307","0.816450456968268","0.49431741146444996"
"0.010592410988949646","-0.037303714068943616","0.018269784467692275","0.00896115889042231","0.033457411123237066","-0.4394817405519222","0.3850175103894699","0.8542738264695962","0.4796083093125481"
"0.0016767039641958918","-0.057691659362233014","-0.01209541161572807","0.006387247836346603","0.01662128432996187","-0.39468146923218567","0.3278409407423852","0.8953689767997797","0.4668767642277354"
"-0.017016433388460053","-0.06287070436082384","-0.014034683400364551","0.0220899826279273","-0.0024138037975082877","-0.3312427318379327","0.2854600623636248","0.9392873573613147","0.43338904166190545"
"-0.00025760007605574913","-0.052424323383922916","-0.0010285513546492175","0.0017065518338385537","0.10671623397881784","-0.19997987837798756","0.2294816372071955","0.9716621563694272","0.4162937962720284"
"0.005656999087341908","-0.05558098558823851","0.012129748470716822","0.036294390217915314","0.12028862157809905","-0.19972505559962503","0.17300166319421262","1.0038654507373175","0.424955823094815"
"-0.00627136963076547","-0.031165932902342486","0.01769151386098491","0.03384226698816749","0.0495260075509525","0.011529822937003059","0.12602325363037986","1.0318998630813434","0.4105245595391157"
"-0.021589825220812153","-0.035197195164582966","-0.028712430549897524","0.0019320277900250248","0.07245857993259819","0.37029651141213327","0.15341339396326698","1.0146702430713208","0.41691484725177547"
"-0.013579168369197545","-0.059394117194702","-0.10307596532029767","-0.02833884139020829","0.13517253596355666","0.47377882826335554","0.2297881392862005","0.9646964294434764","0.43807961090367853"
"0.011291417824799666","-0.040650461559007735","-0.022149059163768952","-0.07843840504533887","0.15026227389574995","0.3417563602355298","0.23435780664590897","0.9231659211804207","0.5063952186758449"
"0.04961547856057703","-0.006894223218814199","0.08742909030294284","-0.011244259502731856","0.00022983212951799465","0.4933152412711496","0.24890272348595655","0.8860681482338794","0.5721775921885172"
"0.02650974020420116","-0.017131821996614293","0.062466387362686025","0.06254183254717136","-0.17628156959455696","0.6635853948893896","0.3393765644431126","0.8386273262154716","0.5636299694935785"
"-0.004018372391248863","-0.05907938581993805","-0.0007377638495620865","0.06550036206621929","-0.16976701501066638","0.6104123751377414","0.4617544854421363","0.7823474188933004","0.5399483150290167"
"0.0033914851964946483","-0.023569792494260902","-0.005370537510154795","-0.021653508171767408","-0.2239225407727076","0.30644520380529333","0.5236957692264781","0.7697616168339119","0.5315804702492679"
"0.04395795215912422","0.01747928077074335","-0.07774358224218152","-0.09347462828923428","-0.19568163552292475","0.3904396453207905","0.568166434507544","0.7553288417259757","0.5497870700239553"
"0.029962410332793704","-0.0388347835290164","-0.04969745781687439","-0.028264709671052192","-0.07940569139958152","0.5497402850514244","0.6369343555060846","0.684523810643441","0.6479621551644824"
"0.04300283538066248","-0.051183056080811","-0.03679376227863294","-0.007015863262035953","-0.049376993249664124","0.41708682728670093","0.6600056029075401","0.6181119368835231","0.7362004246290582"
"0.02702677418609023","-0.04437634090316042","0.021296411518155277","-0.003042403115269072","0.05210119518220389","0.38150871366008465","0.6655226403296268","0.5351036910159418","0.8089777933873014"
"0.03340160099072248","0.0075698128222763585","-0.1047178407929132","0.17407637364111958","0.0933999291644287","0.346513052098297","0.6361820322212546","0.4801298574923863","0.8479242271961704"
"-0.012029029242863455","-0.037514573702861376","0.0702172787447315","0.10878269580778709","0.015270028812671413","0.4064570771035782","0.6433151715144582","0.4225834543654968","0.8268902111189509"
"-0.02689495974634056","-0.02467394909945586","0.0034005884422958236","0.07939380153559146","-0.04906586463250549","0.05009834253979373","0.6342594282711334","0.42105310526812884","0.8138808274379353"
"-0.0013321064518252176","0.027208946735805595","-0.09753902426107465","-0.08762111072470077","0.06588897951644108","0.00436202221420557","0.578754688145893","0.42908743802931076","0.8277073834607231"
"-0.03738969047742219","0.023625371676612175","-0.07417689175009717","-0.07025503345018513","0.04334172796066107","0.12195593915442413","0.5351478014511136","0.37920597305389364","0.8791402106518732"
"-0.11075652366168094","0.04113295359623683","-0.023664954254208965","0.010882614540964407","-0.04669889384504488","0.0841329581946141","0.5336152910560893","0.3481504405090293","0.8658529883746553"
"-0.06297180015860007","-0.019459587708977325","-0.0339850193317686","0.05638312335961859","-0.09178621706543973","-0.04052634498033622","0.5623707588318162","0.3570686818005876","0.8356176117290791"
"-0.039565662170288646","0.010572848721880442","-0.058743262307511","-0.08543085538599787","-0.02867401640451823","-0.08232213439899824","0.6090148024912803","0.3565805532091858","0.809435409898694"
"-0.009766403810015587","0.0012440238047436297","-0.001857130523974198","-0.13859581376571312","-0.011214435728398245","-0.13707262849289067","0.6521201403295064","0.3385329879919495","0.7923238210619815"
"-0.006078805764140107","-0.0032499870629666095","0.028031611884562612","-0.10633407468881882","-0.02179113340385293","-0.24889857117278325","0.6945567463589947","0.33315038082189646","0.7906241025910951"
"0.017311927114841277","-0.035515042691572296","0.04089689373250137","-0.06349749401178702","-0.06927007837137555","-0.3388388775167396","0.7355165696441871","0.3692191259271042","0.7626114347151396"
"0.03533205375364162","-0.06298496327575465","-0.05503406941591663","0.005577479148266155","-0.053045917635080826","-0.45700384016885054","0.7596745062348409","0.43617189893695396","0.7058343004087986"
"0.018057149278681375","-0.04234564836961749","-0.048914727245652635","0.0977303304063324","0.1507911925449196","-0.6500624308235111","0.728188383573435","0.542188151923585","0.6274347859391618"
"0.03232805743428614","0.02559166373083048","0.02001203119561489","-0.14558537585757383","-0.013494051173348938","-0.7008085669717067","0.6567176715145788","0.6350513182716309","0.5780612330492778"
"0.04319251078928845","-0.030287177974783752","-0.0061241480258244965","-0.05235848114638364","0.1865805567063817","-0.49726583915013045","0.5815410706823007","0.6797480660464823","0.5889296251948497"
"0.02058069875080661","-0.012351644482872813","0.008890648277332196","0.0475624115296423","0.17653828226332333","-0.5378918706719283","0.4962499012428628","0.7366612212710126","0.5698241358442129"
"0.017842440567394112","-0.008053431846657634","-0.0005975332274355516","0.014309040365335245","0.16188651769220716","-0.463338006373862","0.395605764027819","0.7919252934164829","0.5526635166669939"
"0.016961460877583132","-0.02290293591802839","0.017960822743537195","0.04626558781921028","0.07471545905552575","-0.41844065970998745","0.33530844593995773","0.8310415440517941","0.5445081366961062"
"0.011543676490078886","-0.027681035996952943","0.01496145702167611","0.05596240178466775","0.04364328338959942","-0.3703640955255899","0.3055220166257598","0.873733006802508","0.49511824035938684"
"0.00855893655738594","-0.042546120829450626","0.004281418491441148","0.04194573036656855","0.022168228914489135","-0.3027511183333982","0.2756798596608343","0.9038254748292013","0.472024949980901"
"-0.003296257891403804","-0.05923207727898196","-0.003952741897638348","0.01040797898844549","0.05948212330002848","-0.2290685052489714","0.25121542099117516","0.9237595910888824","0.45406350190874517"
"-0.018556944321462862","-0.08490709418134222","-0.009735241439495302","0.019784197337292808","0.07036683830647021","-0.27362851509196606","0.19830201662479424","0.9470710294944794","0.4357098111125388"
"-0.011374312096337266","-0.06583312640975708","0.02225819945223963","0.03331082920928221","0.05940314449721129","-0.27739018467731774","0.11164551974251659","0.9947361268116395","0.43907656116064075"
"-0.007436381023848848","-0.03300030784568613","0.005604419029500924","0.00826807545379276","0.01001961373326687","-0.02237058605454638","0.036719693338514936","1.033179551550694","0.41820597955177563"
"-0.00898652015018292","-0.013766377593197866","0.015217548290360799","-0.007932304605733227","0.03700667065590046","0.34580925585329575","0.04315623699761668","1.0236676403506741","0.4316402928505127"
"0.001210699406962551","-0.01880000215460404","-0.0637473683076965","-0.13007547981075893","0.030817604471498894","0.5854397428582133","0.12215018190477323","0.9660025032420922","0.48055622922900404"
"-0.0071090224505857445","-0.10448899476566521","0.014799334726581365","-0.0557309929931864","-0.027944060802722995","0.4655759616836855","0.17723696464955213","0.8950655455132326","0.5616524124264896"
"0.034608013615130294","-0.03796745449295075","0.017902376107216414","0.07499981236379362","-0.24060382124651997","0.361389848587462","0.22223704261253552","0.8950391601839676","0.545897329677119"
"0.04814814189689186","0.004153585524760231","-0.013320106150647597","0.023964456098017218","-0.19948458454342516","0.5136767947041175","0.31279447504578406","0.8749731172779615","0.5234087468315448"
"0.020982194412720465","-0.028003038393576124","-0.005374048438838373","0.024245578981050734","-0.16807256069567938","0.5943464056828845","0.4401878846103413","0.8252103862842366","0.5232616558100257"
"0.006576491550477954","-0.004186286934954129","-0.04958799945203335","-0.011506127393776776","-0.08992183865954304","0.48042848933681587","0.5224418970850945","0.7810017671007871","0.5507349899404113"
"0.027021960089424597","-0.027641564735431393","-0.05236782886856232","-0.017202716773603206","-0.08426887101547634","0.429803697368793","0.5697268087279326","0.7558433556466426","0.5801695376910504"
"0.053110512739827156","-0.04378115582811178","-0.03885694919327813","0.05618383419253662","-0.0767275919949623","0.4392200057501894","0.6266247401213766","0.703626789031276","0.6353123273138469"
"0.0397032535260371","-0.047649339457223744","-0.007269536877538438","-0.0015859555212515935","0.003257113574471412","0.36566116372953866","0.659699100828535","0.6298534084064328","0.7068802810062671"
"0.017122251706215303","-0.057038306112310505","0.013463323099870675","-0.05273876723815843","0.06718375322323199","0.25472831421571673","0.6457393243211326","0.5515945218065451","0.7859498767961574"
"0.020560479544810942","0.0005400850170290266","-0.08577947842324705","0.07756746554547303","0.12354589887004434","0.17977158723947728","0.5942469750483196","0.5062381408000697","0.8375624819024975"
"-0.016005473088676975","0.018403739264274407","0.01004384378223669","0.00976293675682749","0.08709598472138395","0.3623363331928085","0.5593057380417678","0.4674648994452029","0.8299464356771792"
"-0.01110472268306177","0.015654254284075863","0.014989957501578114","0.013197064577993767","-0.08472120415888389","0.2974414656364838","0.5547360706820593","0.40473377911774766","0.8684352529746558"
"0.006935623161734235","-0.04363469667351866","-0.07833217910972294","0.14174724209226516","-0.12303549671344094","0.19129200370506716","0.579089054050262","0.39253056433270117","0.8549845962290833"
"-0.04118319864994162","-0.0005363378333599992","-0.09095500035327796","-0.009741407378021861","0.03144943489403642","-0.030117441205127677","0.5516153222412827","0.3970424556370103","0.839082422458194"
"-0.09392644171862524","0.04430104169204551","0.024177025240424675","-0.1213144584559473","0.011893804657089325","0.14398961539017097","0.5379899116382492","0.351039634063543","0.856913122955666"
"-0.05852357483955446","-0.027350723861062073","-0.06040372504962786","0.0373967385092625","-0.11622895988883229","0.0010850012844634174","0.5822098024910386","0.3367783635958292","0.8229187535379373"
"-0.042906645256238496","-0.001328048242089629","-0.07697943894046107","0.023735321693352913","-0.03293264918430328","-0.06893301755874982","0.6240891320132453","0.3501821108624316","0.7825667833012199"
"-0.01903835398802625","0.014210540958054725","0.020249328669581585","-0.07103197237692502","-0.03928445956844936","-0.09456090841121012","0.6620396621591174","0.34002375909542","0.7590649067518478"
"-0.015726255482070198","0.010698118041340942","0.02251077979224074","-0.06757088756697471","-0.043451189741319854","-0.1741068722815786","0.713225509352926","0.33811082272370996","0.741724509659439"
"0.010765718468912468","-0.019231069879115714","0.021458946863683385","-0.045815634868658375","-0.022489497484521292","-0.28457376014353764","0.758559953220278","0.36514259255566706","0.7078935747100646"
"0.025152164944492437","-0.03843279989194166","0.0005846171128476447","0.0059737468833914835","-0.08963942960704523","-0.3585937100488444","0.7910213097694269","0.435024137113928","0.637878248467012"
"0.036894709531306344","-0.06328203645457474","-0.11114284028386538","0.16959958800377076","0.05981957818479284","-0.5099584403961879","0.7899624844055921","0.5202355579751338","0.5537585276049689"
"0.02801270118321203","0.016345001360703","0.08368478812451265","-0.0405108845757999","-0.018927314147760544","-0.7519187356604201","0.7148973388747704","0.6058823367692114","0.5066730572720476"
"0.05520271915071159","0.010107711066371221","-0.06595718812618535","-0.12280672033506357","0.029530010655873205","-0.5081868153656675","0.6419498440716185","0.6709617514012488","0.4806379464631813"
"0.03807320039505349","-0.018862325199111754","-0.0460564182467848","-0.049064914766734115","0.3719749197800409","-0.4125918702256665","0.5607825207860639","0.6846161592958684","0.5259583245378743"
"-0.0011395425851998538","-0.017025872820951183","-0.006734223515900766","-0.07425140703741845","0.3704671426353491","-0.4449179598236562","0.4446739604939576","0.7118722044265777","0.5781592937302905"
"0.0015159131355637224","-0.032617021121963706","0.02629803921574061","0.07130670490038071","0.19772135449771552","-0.46149357483523795","0.3477635758776998","0.7378485610879361","0.628578827217643"
"0.011193210252820742","-0.02725308442466666","0.03716911357140568","0.1642467002309408","0.07713747567525289","-0.35366713633383545","0.3211257588296427","0.7765558391196404","0.600321007639156"
"0.011584114902070201","-0.04723281377643054","0.013315037994293573","0.15821026024251564","0.016284786764019545","-0.3061972930503011","0.30663656964032304","0.829590350942221","0.532642794293572"
"-0.006589100010697294","-0.048865677542532585","0.02313985560225168","0.08409298233040857","0.04653917282622969","-0.3200062607539468","0.2905034147545229","0.8725456669855846","0.47913434935432014"
"-0.007542291150492784","-0.05863065989948253","0.019041156151996558","0.008339318924150569","0.04042190555348013","-0.3233068224546424","0.24589343034663638","0.9293928588869527","0.4188924043188644"
"-0.004085769744567716","-0.06300158275429003","0.023463480616791123","-0.05291591316445352","-0.012236852230322585","-0.35272065172848893","0.16519979209227117","0.9736674413935645","0.4364289227732985"
"-0.01625580611528991","-0.042018452385952004","-0.0037127595958547912","-0.0849283000950955","-0.02487944392371054","-0.18260096489366295","0.08879718294397398","0.9924669884948524","0.4762579027112816"
"-0.021686107154124827","-0.012362031656957432","0.003346891885958711","-0.059537704909332044","-0.024416819602966218","0.16849143225062924","0.05268566527213075","0.9956068426773833","0.5038946713100216"
"-0.008466597710294453","-0.0352397825783299","-0.04181439029615293","-0.018418669517683107","-0.033308396821948694","0.46744466205834406","0.09503867982552684","0.9598019508648253","0.5007240426239451"
"-0.0076000603104803745","-0.08106176233521639","-0.021814488312745406","-0.08307596986579247","-0.023722284797585966","0.42009616295498226","0.1317910654807434","0.9234693524669679","0.5179827224821766"
"0.010292974176347221","-0.05334670444263705","0.05211740875479103","0.01851047961724711","-0.2104530649467942","0.3115173905365094","0.13112233367200582","0.917625002034778","0.5292433573517992"
"0.056230047379157835","0.005499856770693563","-0.0077742845071072965","-0.06187718643594658","-0.3135371557026117","0.3882311812416486","0.18431437629202752","0.9078096595482109","0.5171492066935688"
"0.03726154369722764","-0.033933076078484885","-0.033823929662757254","0.008422307939621423","-0.2645463649854037","0.5332374765479462","0.27815974011823696","0.8798939811858774","0.5219868669568609"
"0.01995390336494109","-0.021514170742914885","-0.07419341376743167","-0.021406081524713936","-0.13415236153422413","0.41157780150686335","0.3554261278528209","0.8518463761772193","0.5341463914024331"
"0.012662472555172168","-0.028008231980618435","-0.06708481580926472","-0.0428397758568207","-0.08394338261598733","0.3669231432033341","0.38521255716701847","0.8359096373011802","0.5863963909353554"
"0.056839512017027076","-0.06651452502970806","-0.00644095770821346","0.06668743232231629","-0.05361073574007648","0.39189577548286214","0.4274541164189585","0.7961733314281423","0.6464258711619505"
"0.04531552741883295","-0.05949279534850588","0.004442714685669167","0.13002095197120958","0.010664846619312756","0.35583228513555537","0.4696678118455339","0.7591547144693956","0.6683914637087907"
"0.0264356031155504","-0.0421275177138405","-0.02006521972745563","0.06609052757066979","0.03926594307588308","0.3283114250724019","0.5009310239040277","0.7278880992904116","0.6847839408847435"
"0.013492422820327428","-0.06019808446885148","-0.03251042928466481","0.031615427164686245","0.006126437413790451","0.26962937954091615","0.515280893966527","0.6800646899976619","0.7051642190885452"
"0.014022936272880282","-0.04421845585707422","-0.031017251968059732","0.05976237445361737","0.09846893232705921","0.17764321031924926","0.5036338149643431","0.6539168286960811","0.6839177382024647"
"0.003840159005731714","-0.01989065543348899","0.019661557902906888","0.11339426638905606","0.09844021276239842","0.192556410062466","0.48435204781240215","0.628362637302962","0.6732291239720829"
