"AccX","AccY","AccZ","GyroX","GyroY","GyroZ","MagX","MagY","MagZ"
"-0.01552406342211359","-0.021823708530636515","-0.018080512395149285","-0.07988830594208023","0.007405176030312396","-0.2569558247362462","0.856584890851099","-0.085214080736932","-1.0132184680839702"
"-0.036619435010920784","0.027180901365777124","-0.024984650388801845","0.009393818560406084","-0.020812035578625297","-0.21448536167582424","0.8538820997907832","-0.08955050960162907","-1.009835374589033"
"-0.12716296509816086","0.01923159703881851","0.014828454782133417","-0.09582084906304483","0.0919495911490585","-0.0667439685484355","0.8896592515582572","-0.0515292501308139","-0.9599388314004148"
"-0.049010919828262126","0.022842178750631936","-0.0617688567318906","-0.02733950730600011","0.05323561798630532","-0.09921809804623581","0.8681205145518265","0.01494726768580324","-0.9559837172662368"
"-0.035839551351088114","0.00444406284803659","-0.06612034304736351","-0.027412676275556776","-0.08718869342265728","-0.01765345239451541","0.8249037214121439","0.04441308414245339","-0.943513667330791"
"-0.018951700248044837","-0.008939457796075603","-0.002140896171694168","-0.041030769359492014","-0.04601441088729591","0.0104326288598821","0.7909655821186993","0.062239012593864","-0.9249311682788884"
"-0.01565885812875133","-0.01559452023209074","0.02017436001592631","-0.0034669756886176357","-0.09417472752639594","0.04519603766081931","0.7521234095611765","0.06664536258111324","-0.9219239740611661"
"0.009698914647808013","0.02305927068900046","0.02908633616615351","0.03423988257273202","-0.17916070595180178","0.22850826376401398","0.7302224428250126","0.03977586252413571","-0.9336422254421815"
"0.021435682318623167","0.05330672162340983","0.04331736927200505","-0.0022260877299125014","-0.20777735883923004","0.29525727039337646","0.6915195893943102","-0.001131951968266694","-0.9330865482497761"
"0.008688917167358057","0.09167382653976557","-0.0005475541249987014","-0.007881278876963445","-0.0916593723215212","0.4418653088779528","0.6922719126791403","-0.04620337141868062","-0.9101240054459737"
"-0.028647290932631256","0.05714374373026795","-0.031213450923906875","0.04174066470188998","0.12399583871639684","0.5974285478592695","0.7414794282720992","-0.13057573880926057","-0.82378157581431"
"0.003141152169881694","-0.028127684482591547","0.05432722857327988","-0.061973461395889565","-0.22497080488282664","0.49518394164580815","0.7670026923055934","-0.2413637785934606","-0.774587800839616"
"0.040631411363171284","-0.004745947874633378","-0.02282646187448329","0.10037789180476447","0.010831180764639868","0.5125604282465294","0.7812411070666366","-0.3522217395002128","-0.7321438694079616"
"0.039511652478744864","0.0023052813809691123","0.10479579577366505","0.03484448932117396","-0.13172316502333178","0.49431026354856517","0.8160430249463677","-0.48435946845915967","-0.6426144676433856"
"0.02851433005577107","0.014565678440007834","0.031155099261649104","0.023500410791092035","-0.18194171712978885","0.48389893288975316","0.7714887681892096","-0.5771566714840431","-0.6562612457509833"
"0.012612405949849572","0.016828004955637764","0.034494612015384125","0.0019336644643440555","-0.23587227296865382","0.398108597507701","0.7245939501014688","-0.652829795815964","-0.6842085398395968"
"0.009142405073260763","0.007909265671361694","0.04521120550897166","-0.03154576030590913","-0.19130908180331851","0.3349853549818968","0.6744112006207675","-0.7017481962732097","-0.7306239288522649"
"0.015223571981289336","0.028665228542469123","0.042018325659080286","0.006737977515418898","-0.21194887560621065","0.3047463852828764","0.6193801455267166","-0.7381467579942297","-0.77417921466873"
"-0.002785963644846616","0.06659191727763702","0.04844332515003246","0.0205967579992116","-0.23743748924266722","0.3409554886463904","0.5436184043617927","-0.7808118354156787","-0.814008194606713"
"-0.02711640819295971","0.094276852365371","0.02223197074972112","0.027759615018969692","-0.1688623487238513","0.4261633719636139","0.4076429365851","-0.8361286782196787","-0.8614695642168496"
"-0.005241152944319832","0.03398346167379385","0.027489070140341097","0.005653921466460886","-0.1502233512589946","0.24805438430622181","0.2907263253574354","-0.8964851189132872","-0.881506630037107"
"0.025648979720385847","0.0067357227432814845","0.006875168687740355","0.01730511711876094","0.09410834509272833","-0.15812584375284267","0.24288413720731622","-0.8980022753460227","-0.8886323728573616"
"0.001384969706258498","0.022566918637389542","-0.013264344342143668","0.09630642374877564","0.2892386405863974","-0.4808601059907904","0.3484880353371659","-0.8572765196255485","-0.819385188615575"
"-0.027607446052854374","0.04491076881081262","0.00883612562012836","0.14445256846666304","0.4210375094089009","-0.6440194906509139","0.5082313461494156","-0.7921575269996138","-0.6972996407547897"
"-0.03081363443216645","0.029480621708111686","0.041892345276904754","0.07234743721736439","0.1704521278522896","-0.5627674276073182","0.6017702078966203","-0.7125793739364781","-0.6119378179332526"
"0.034102533465238755","0.037059103920249414","-0.021959055964422245","-0.0282810764142425","-0.16459749337172308","-0.5966952603835867","0.6762223492694324","-0.6158903348450123","-0.62630370770161"
"0.05054363639771122","0.05183382033821091","-0.049484736843692756","-0.030532947727308923","0.2068374229804632","-0.5601949309876585","0.7013833835731936","-0.5113648529618519","-0.6753830785484558"
"0.02675044503748285","0.03979093070450411","0.10943228688815801","0.0040247565943056915","0.12104251015044494","-0.36929626674007066","0.7689252962557146","-0.4277101665272789","-0.6679468102383278"
"0.030132829354757137","0.03716089822627868","0.033191437898125745","-0.027489696243511164","-0.02194334709655515","-0.3069981646394404","0.7255970478145759","-0.3422612777026884","-0.7741301843282237"
"0.029793916949496523","0.04960888764928561","0.040741999819990465","-0.006995741795407869","-0.05525971741101719","-0.26945427529402743","0.7284391580017114","-0.2659285201391434","-0.858151844509254"
"0.03514911808034754","0.05601985149431221","-0.033730993315250715","0.022317191533392747","0.03650168497728146","-0.09665530896098978","0.7641327182930933","-0.2108135251040204","-0.9003506242383768"
"0.0292855483416056","0.04126487070711149","-0.06804309281466549","0.04909895989033235","0.04786505939473646","-0.055109488553483375","0.7836931236986749","-0.19347176744462186","-0.9488906613396528"
"0.007190770285012828","0.055077734804837304","-0.08730983027885476","0.07151658431305642","0.18833245015069025","-0.10243614570441406","0.838111174634716","-0.1923437946185446","-0.9413726757953474"
"0.007521017316275306","0.05576744316405598","-0.04390855599330032","-0.03580977828178394","0.04564168643057982","-0.1124300523834322","0.8493681600818033","-0.19093745656872196","-0.9230026415523056"
"0.000649375735749644","0.024756534934427143","-0.018879764983705534","-0.1992490385297937","0.16944933638621681","-0.17038888660108908","0.857392941786657","-0.1426839664089532","-0.8685135898029271"
"-0.018104419234893282","-0.012588472052002118","0.03106422816630937","-0.18494257948226614","-0.007743197679730021","-0.17519896990313227","0.8802691424105639","-0.06896467570910304","-0.782710493916833"
"-0.00345993717803533","-0.023286222641750814","-0.03894162453211742","-0.09143937563603957","0.07202539316563118","-0.14816834032787632","0.859510592514327","-0.022599055858242557","-0.7494515796066994"
"-0.09463892802513903","0.10770227486974052","0.020997156479184216","-0.014640840089520374","0.1806571464950925","-0.06977029240194099","0.8692072037410254","-0.0060805204719109555","-0.6913669695535225"
"-0.048596907515017634","0.0893419059577687","-0.045779674456431996","-0.1095496583509145","-0.20458470056777156","0.18001427559982255","0.8504548492710023","0.007568610356855659","-0.6336419153307254"
"-0.04045145595676527","-0.02795110252315303","-0.08221072267899592","-0.014475247158418438","0.07423201305040236","0.07669941371723855","0.8270770997905421","-0.005230912869579071","-0.5994187376573006"
"-0.0468542045220582","-0.028495390445187046","-0.02127545749720747","0.05545310724656936","-0.15051054690560256","-0.023348862835098155","0.8252938149672411","-0.028568736604440984","-0.5862786064016016"
"0.006054643471923255","0.039329740175147045","-0.00984531937998638","-0.04002469602808782","-0.1618069090055157","-0.08954454000287344","0.7904640332621453","-0.038694106709871466","-0.6592520965218701"
"-0.0072727017372172876","0.03478119664349256","0.014383186414968746","-0.12336511510273289","-0.09034784553534485","-0.03808490007526283","0.8041730353412714","-0.01843677016669426","-0.668616891558581"
"-0.00046171777467862436","0.061690209827105505","0.05025868180466021","-0.0051595857593752575","-0.15156359760983176","0.12032992714011082","0.7997705509337472","-0.016502725531572292","-0.6975611359041567"
"0.021521373239271446","0.08018457328476893","0.04326367271566793","0.04075480911207382","-0.21422968769968892","0.2850643592588752","0.8025847972955185","-0.08293702682136549","-0.7267505319522641"
"0.013307561508367096","0.01911422197166232","0.022742088034923683","0.009902054073945104","-0.17615472485063846","0.27433753373161435","0.8301421205805906","-0.15459166550623207","-0.718251939597832"
"0.026070694588295366","-0.025087358628023682","-0.01132300730534038","0.0766855869123953","-0.27948053860901767","0.4196350550703263","0.8261018659027995","-0.24799968890359944","-0.7421787457649258"
"0.040634299821170665","0.02215350910882172","-0.033421205490228915","0.1157241204196763","-0.005732588823768786","0.36374392568281105","0.8264640956325322","-0.36412152299871225","-0.7246095404168208"
"0.019141283847782103","0.03215220288267559","0.021725777443635498","0.05915776770517543","-0.010303068209828981","0.38992999976406545","0.8346281964642065","-0.484530973099382","-0.6743534413978227"
"0.016600403627660604","0.01554622767359583","0.059461445459974546","-0.027869982335285953","-0.0500255767515871","0.3634284308143622","0.8165724376282852","-0.5663914571439372","-0.6619160783560479"
"0.03238775223294","0.021855397212593167","0.055169851457339186","-0.03138883212120206","-0.23393848894816022","0.30734315073857077","0.7892937525968545","-0.6215499879723474","-0.6754157654421268"
"0.03219518836631465","0.019184854755437724","0.06477533928518185","0.008165831446333309","-0.21828153961391622","0.26654723736453123","0.7257920945921241","-0.6617480371075222","-0.726521723696568"
"0.01742939107348274","0.02750186504499184","0.08101028656849109","0.057159099536759045","-0.12576624865327166","0.26533379556280495","0.698290498957781","-0.7057587663214845","-0.7378967626940387"
"-0.002054220951670277","0.06518653262398813","0.05157631268708628","0.07264588959318764","-0.19085196206580085","0.3237246150618764","0.6356804833647013","-0.7510359913401652","-0.7618725992016389"
"-0.020039686094478065","0.10458196777472109","0.02638870378586366","-0.0014686926200410376","-0.3355076226681208","0.3828434996419836","0.49992792619092113","-0.8012472729313945","-0.8205292298940563"
"-0.012308246849470215","0.05480766827863723","0.038916316904528646","-0.05403270269979215","-0.2842671327191504","0.35148816348537504","0.38069861745803796","-0.8602580618324897","-0.8617147159193814"
"0.021889170224525866","0.008533223218624732","-0.003517799791307737","0.016945048768574177","-0.010886075372443143","-0.014957427399439826","0.2723083367917809","-0.878305627049726","-0.9050902238206563"
"0.01211559117395618","0.008477340222049486","0.0031891066204142752","0.07839446745138329","0.24058291145689864","-0.3416540624967447","0.34450350831010285","-0.8612211263506608","-0.8506665458586194"
"-0.011056581716405441","0.03778620610617272","-0.014608823502738288","0.09700826820676","0.38664583072759756","-0.6074948924189512","0.47184119022393217","-0.7972367028831198","-0.784753424771264"
"-0.04027814847680246","0.07818400355607139","0.016585984376090438","0.09257288080218669","0.3371045816877243","-0.6305260178157172","0.6061169646534162","-0.7143471909972308","-0.6881636539737749"
"0.0040539048976858515","0.027749079788205764","0.08446338819140078","-0.045107051163478004","-0.005650259405074504","-0.49187815755046554","0.7053121829495281","-0.6401252597748831","-0.6346715524813586"
"0.045593782206106576","0.01841516515576749","0.013443083628635917","-0.009900261061927786","-0.11290467027934512","-0.5006877450309988","0.6872564241136064","-0.5607845746751321","-0.6962700036041565"
"0.0373067962058846","0.03807600826313358","0.020016368225165195","-0.038893465248757746","0.13479678832591122","-0.5573069394995497","0.7154267515566879","-0.4565757167431511","-0.7358048014991017"
"0.018916946943163572","0.03540858195820352","0.0288370602296193","-0.021267445582396037","-0.007122137093940304","-0.3711164294426602","0.699767281702077","-0.35247240012823","-0.801489114330761"
"0.033059800127462485","0.05039831287971663","0.005240728122925327","0.023693923460577433","-0.014974544731612976","-0.28590854612543665","0.680847744279869","-0.2913507848859376","-0.8619762110687484"
"0.047516532414360706","0.05437867798894247","-0.043421156481932684","0.0018640576683052771","0.0060228076513060775","-0.18705186942239518","0.6929127806625143","-0.24088884266669122","-0.8916885974155901"
"0.02078385363009635","0.045439475971719705","0.004102567653795227","0.0015245921595463119","0.20297224823653107","-0.09549768548214285","0.7248168607043816","-0.21592040558325448","-0.9031453536472381"
"0.01407589133620225","0.049000199247926965","0.0014813496036774198","-0.048509408247863095","0.14779478463197654","-0.11493459626219536","0.7500336226588707","-0.18849813287817588","-0.8934863765674893"
"-0.012356387816126559","0.016891366717553938","0.027529342557593928","-0.024994249281788995","0.05070590299910021","-0.12622688566906068","0.7474701507253756","-0.1600455130653004","-0.889563949326982"
"0.002201440500749982","0.00015565570415729225","-0.02387354472305698","-0.02662129610482544","0.12822000801858893","-0.1557814741919074","0.7532936902264677","-0.12959552382706707","-0.8804606494396383"
"-0.00950644259007137","0.006719622623450326","0.0171367871289792","-0.040397280123067175","-0.013789144700238617","-0.18734552233841295","0.7841668087298646","-0.07868898880970605","-0.8395366585636804"
"-0.003931718651267452","-0.012097158717799657","-0.02596977567237117","-0.024587006201230163","0.01597198283892237","-0.19945809840324524","0.7752782484387238","-0.04460705899815022","-0.8405336088206427"
"-0.01192311911621952","0.0043878474618906345","-0.02758893337115179","0.015400798411088695","0.016352756400383427","-0.22591841033168986","0.7626837993741614","-0.02497109695916295","-0.8297469339092479"
"-0.134258943583305","0.03871897433897147","-0.0797344853309883","-0.03144467159796899","0.3153973773982725","-0.2569800935722807","0.7766993035322918","-0.01606209053284737","-0.7960630899813927"
"-0.025017462046743384","0.0060540125081079655","-0.031566609044431725","-0.1122357297333238","-0.3112395905297481","-0.1323038022121062","0.7467735550912737","0.0008179238644142601","-0.830482389016843"
"-0.06971153549048735","0.019044627905295375","-0.0019100009794445856","0.05278532810654925","-0.10093818500401341","-0.0837709839102595","0.7530429157981909","0.0332494513304465","-0.8362025954092492"
"-0.02376579691367861","0.049332588818634754","-0.011461379200516783","0.01987950954763636","-0.08357960146361723","0.09461466847792623","0.7388602286878763","0.020897159435052944","-0.8739886444928018"
"-0.008091098170375038","0.02018617833719496","-0.0118083415645412","0.001542499302095707","-0.09800639611155715","0.1639531599121727","0.7315041787917598","0.007213727678241867","-0.8752307464522955"
"-0.005847729124189711","0.04267441023039423","0.04262964030045665","-0.0164122993524713","-0.15939685887106392","0.26045575951986505","0.7077363357562025","-0.008783697455106657","-0.88637697719407"
"0.013181432175727493","0.05847226329569066","0.014903629961005372","-0.04750911141405548","-0.15105382533710263","0.35413346661313844","0.7032223960472223","-0.049525284373139765","-0.8816537210586259"
"0.008331711194768025","0.06760362803347887","-0.03971609409467193","0.024621051324828377","0.04345181962519412","0.4298279662048275","0.7529035966713705","-0.10377484060837193","-0.8132237091586115"
"0.0032663186831881712","-0.019756660887797418","0.07476909452038519","-0.03791338615653816","-0.2638283758688838","0.43502149711621624","0.7920801351332621","-0.20064593847176596","-0.7662689864003739"
"0.05374019658369206","-0.013910759312974065","-0.046880453861342805","0.03612687178761453","-0.1496776795304395","0.4924901008459757","0.7889872505178496","-0.2941344371233915","-0.7654354706117659"
"0.05020568681178373","0.014712137594600955","0.0054371336039891515","-0.028258933173455614","-0.07066776385153431","0.38614406134267926","0.8111668555076545","-0.39508470689114916","-0.7316208791092274"
"0.04261578200874552","-0.0045096396642083075","0.017238191010369674","-0.04260582770415926","-0.07688315630354162","0.3356891512268981","0.8136745997904214","-0.4560216248285868","-0.7352327808598609"
"0.032180746076317754","0.012807960841408672","0.022329450651994646","0.021180184256466093","-0.08119109100266103","0.2869573284695683","0.8401730977116582","-0.5054281538772346","-0.72037658768644"
"0.01875519329519828","0.016565209451296914","0.06079146785540149","-0.00195738431671163","-0.05063586750062902","0.22596246286399216","0.8517923128884778","-0.5365232644159964","-0.7229751957332761"
"0.01453226770010433","0.028145869838238195","0.06523382526621413","0.0019096919993182523","-0.07355168680288925","0.2280034719744958","0.8918604937620198","-0.5545444443039678","-0.7200987490902375"
"-0.017459330281698354","0.07192884732231407","0.07398842920133024","0.028265058558670363","-0.06582851720619017","0.27499279230454654","0.9216469230762174","-0.5769060108560259","-0.717483797596566"
"-0.05084990475453422","0.1042090682250833","0.06752005941487502","-0.01744629242225896","-0.21853044250764309","0.4531017799619387","0.8931979573794953","-0.6250196587706904","-0.7611371440940436"
"-0.04119282684327286","0.04608348076496606","0.09099578079502718","-0.04935085139776478","-0.3516384448192679","0.551244952885565","0.806179230767485","-0.7161809713811459","-0.8247785260712722"
"0.023931310030087718","-0.01795552490152455","0.038156304107141825","-0.02071290181312444","-0.21876977221314972","0.23593695447418264","0.6289095738012306","-0.7839516895982096","-0.9234766015105336"
"0.008091006361486333","-0.02084315929704852","0.008347590220068979","0.06729877831795425","0.16254228108529534","-0.28496206152009007","0.6318631392898229","-0.7804028628120718","-0.9124284314497717"
"-0.010488518309860646","0.018136788890299706","-0.04243396594619654","0.13924409313374755","0.3451939257338485","-0.5961128083187581","0.721696112263605","-0.7338723346533051","-0.8404028612459591"
"-0.0530258764474007","0.06860391289782765","0.026594609426894816","0.19265744091011572","0.37424855198235396","-0.5806050220926955","0.8175476715160281","-0.656985485175196","-0.7063702537484624"
"-0.02146465870750566","0.049651475063032545","0.06441185490382295","0.05037749135837518","0.027253985156505116","-0.42877918386069586","0.8784301299365348","-0.5879746564826789","-0.6137029101914807"
"0.03572488404155734","0.0035993570771272357","-0.00012169912820206264","-0.0055302443551557496","-0.16498999408875395","-0.3899733150414875","0.8185507692291346","-0.5255205821125057","-0.6645637167433901"
"0.06959590536162345","0.003504792244260868","-0.07180185175826337","0.0489911319351962","-0.042654221821982766","-0.5168022521579245","0.7860336850292573","-0.4500189624208072","-0.7091322962636529"
"0.016696685560973278","0.05262324556864193","-0.08627513894328193","0.08726331676133106","0.25953782413302406","-0.5133318086049872","0.7840832172537722","-0.3556386396400259","-0.7099004382649189"
"-0.006435048917397014","0.08365700558125694","0.07660716894884788","0.020189514918652774","0.018444258696805903","-0.25501431785348405","0.7959810706842327","-0.29788115387901654","-0.7002741480788408"
"0.050805523256321705","0.06415612495479396","-0.018043337856146667","-0.05019229454766648","-0.07699564126512973","-0.0995772768195468","0.8085197920980672","-0.23722128189886105","-0.7407568658902417"
"0.049083039469357936","0.00624046228292687","-0.0063697065084584465","-0.05658976563587784","0.2002750024554713","-0.08268131317230926","0.8132287785845961","-0.20311296675804028","-0.7566426962142958"
"0.026294068673580775","0.007112881034293987","-0.060350028493290755","-0.013790732193223814","0.19038829232099228","-0.2448699443910518","0.8452443139279195","-0.15020114671654183","-0.7481767907535346"
"-0.025219654106699994","0.046729562993029335","0.03806749826396891","-0.03734343839367569","0.0778554647917728","-0.17106113335924544","0.836104979208503","-0.11969047122099909","-0.7657133092079687"
"-0.005712934417551954","0.039376482458527824","0.018159706527201194","-0.006986306849333455","0.06953875752541726","-0.1135731145606584","0.8221173388757362","-0.09475369653268026","-0.788970034054809"
"0.006471544243167143","0.007592768477003366","-0.03238238365032248","0.023185591672078468","0.005665967060395686","-0.06731185931164342","0.8585074948012202","-0.05801476406414239","-0.7528019862079659"
"-0.0024200922982584466","0.003959864728082094","-0.02702511952961211","-0.004366087539525173","0.04544543607206439","-0.10430484607907263","0.8475848752585022","-0.05503454112366454","-0.7479643259446737"
"-0.013425117275897246","-0.008881289621201738","-0.018638130480188527","0.004318684047011626","-0.047179946553113215","-0.1647512359902685","0.8321761798321679","-0.03197772114547451","-0.7428651705320145"
"-0.04199196688976808","-0.00899450981872408","-0.09734902106172795","0.0003849854587011973","0.09468512968299932","-0.19931976603784848","0.8129780041563194","-0.04261496663864532","-0.746803941219357"
"-0.11386643010768036","-0.02441219231252347","0.012396826880928953","-0.13904830607744514","-0.06915280681567733","-0.256349103835383","0.8323990904350803","-0.018668961064225952","-0.7334350017079618"
"-0.04527518081573032","-0.018448915670543933","0.021073364284139577","-0.08291326518348881","-0.10114640184780418","-0.3004941165821872","0.8030584823267081","0.04084578762583006","-0.811409586559877"
"-0.04459157908921031","0.09665551523074865","-0.03291728396152679","0.12646840594931344","-0.20209806492755758","0.020360524304886322","0.7830522557153013","0.006744068817325489","-0.9148799484750888"
"-0.0007929276252742259","0.04803107590583205","-0.04982756870338355","0.041264103650172204","-0.006760749238625287","0.22895481034704926","0.7735228274407873","-0.044861677425557134","-0.9373521878738278"
"-0.0038161803312922373","0.00919976817963471","0.034887009927078404","0.023815229910105592","-0.10697408017689074","0.1364541418014504","0.7333431912657892","-0.07624174952038051","-0.9590235983776297"
"0.009911697720429026","0.05907887426223239","0.053501127706555074","-0.004297636043005711","-0.17329712816688925","0.27712844987558494","0.6937208315980725","-0.1105413582983723","-0.9797961193054823"
"0.01703174668890139","0.09694323995289258","-0.04451780538250986","0.0262923846294386","-0.05967056388350446","0.4176692793515296","0.6984576819099656","-0.15217476934556126","-0.9311580215231935"
"-0.022244542367338343","0.08015133432769815","0.0068216786566199245","-0.022512280814458833","0.21682225829420002","0.5605156482507543","0.7550769750497686","-0.22371199331519875","-0.8158223172054475"
"0.017668170268098166","-0.0431922030575139","-0.01412555449570428","-0.11369910912445717","-0.3071470525655846","0.5462941103345216","0.7607890592494042","-0.3053218167317368","-0.7607939317104991"
"0.06248548458648237","-0.017584702786703665","-0.022940050743657948","0.035177600682576686","-0.13501873506815815","0.5018093338832339","0.7105784459433387","-0.4211006415464051","-0.7665795118902472"
"0.04761185152834025","0.01440156108947086","-0.0002526361155779445","-0.06163649903608911","0.006550768981653714","0.35413346661313844","0.7159840280639693","-0.49118007607415326","-0.7438457773421412"
"0.029140162622303456","0.005363057687999136","0.037090633989066826","-0.04447067367825488","-0.050576035074252366","0.3398148533527676","0.7406435135111771","-0.5531724071821895","-0.7115838132889698"
"0.02237731962642113","0.009352044151715217","0.05290633508251322","-0.03807705358844123","-0.08213644333941224","0.2865204894209468","0.7328416424092355","-0.5966422371462201","-0.7112406009054255"
"0.02375318845345926","0.02954502218743632","0.08577275806515959","-0.03583962351936626","-0.1563023257788631","0.2672510336095325","0.7343462889788956","-0.6246238788317159","-0.7302643730218851"
"0.004835714196184784","0.0425746933591819","0.075012794276069","0.012119747776231765","-0.11621220680944683","0.24533627467035485","0.7415351559228275","-0.6314972571052393","-0.7517723490573328"
"-0.040287776670133724","0.07111241543926304","0.0454239264821533","0.03940503417367317","-0.14522375371096102","0.29113156826750686","0.7210552442802314","-0.6606794312722912","-0.7715969500687295"
