"AccX","AccY","AccZ","GyroX","GyroY","GyroZ","MagX","MagY","MagZ"
"0.002102967018291082","-0.06456803076405088","-0.04454358782850023","-0.11867065983527039","0.008038744651510095","0.4943007580647107","0.7586954045426596","0.5412129558096638","-0.019106020219168747"
"0.01520922738585548","-0.06464584193890051","-0.05241632312948139","-0.15609215324400258","-0.017919340227875596","0.4791192113754127","0.8250963053007839","0.46044098028484626","0.00053161272203743"
"0.03293324579060948","-0.08357841236802581","-0.03882637747834761","-0.10481428439627065","0.014204560537349928","0.34136429088876497","0.8739401196606736","0.3903681998665331","0.014365085210313745"
"0.05093819244097198","-0.04471728847170001","-0.0012082794612293178","-0.007819387345781647","0.026907511443487943","0.2098869719867216","0.8994681232837072","0.34680719121862263","0.01730067675579094"
"0.04195168094792758","0.005685678148891515","0.026292516169096152","-0.030837405099209618","0.04692928580611785","0.10165599609542199","0.9128115089463659","0.32465846784230074","0.03330568271606415"
"0.03141208318796804","0.021937987080910975","0.038899912716876796","-0.04979090398903038","-0.009060432981231723","-0.03148360608336098","0.9121092254904365","0.31910044441035046","0.038091099071020186"
"0.022283511388905695","0.0847493905959506","-0.04771736689720485","0.06512569429653799","0.01444125935830078","-0.07354353670020955","0.9033306822913189","0.3283128682488081","0.034163572482778924"
"0.010344060950544758","0.15534858112522534","-0.04059399609855672","0.0448165488530424","0.15488929651390337","-0.024366535429713468","0.8962025052136352","0.33862300171507587","0.04614722016157642"
"0.015364057157582895","0.20581468595626626","-0.0853971772851035","0.019995306001234257","0.1706566579153038","0.07251639445423343","0.8881613596432439","0.33321782392750415","0.06653550664865807"
"0.046045890891028625","0.05211093751117034","-0.0020193563343427275","-0.08331491355594746","0.05176945127650211","-0.07483428845459501","0.879137017234551","0.33021649127425107","0.08741976065712172"
"-0.18971515831983068","0.15901237587243042","0.07064696025953998","-0.32081396861512634","0.17023532716310472","-0.058906475862637364","0.8539250411666858","0.3333428794547231","0.11808931981717617"
"0.015929106015227238","-0.04714722030343252","0.0315764175158409","-0.3510873852056227","-0.16835702675451972","-0.0429434318332151","0.8643539504872374","0.3035379788008897","0.1350862608202133"
"0.06477390853719027","-0.15541368898919738","-0.19992652140049694","0.22256090944165957","0.22049015208596928","-0.11507179289713755","0.8493953128759412","0.3027042752860971","0.15877206109810496"
"-0.0573756080732389","0.07880017048459088","-0.12354864650682354","0.062066075338591334","0.18943156728768604","-0.22670100107479693","0.8090491283327977","0.3535879798056021","0.16547432490056443"
"-0.032794386582495755","-0.03564895183708257","-0.0154594290850099","-0.0141298682576398","0.13662135422546792","-0.29633113293668306","0.7667716642858475","0.3920356068961181","0.18961587911702343"
"-0.01656120329932319","-0.04418817248272258","-0.03372188280951437","-0.031640302909272985","0.04175685136855221","-0.39987312478723747","0.7199293577753567","0.4415437006162153","0.20134484077132744"
"-0.005801332255875159","0.0003220427076858166","-0.0854677057088525","0.059814733740524206","0.044959650175919","-0.4014104966038752","0.6542307404731618","0.5037935630540585","0.2043340504272243"
"0.00487872962688863","0.018996724671595237","-0.059782135384766684","0.06919128907010842","0.05027595365082091","-0.37306520373461616","0.5934129931896764","0.5645844443410147","0.20347616066050953"
"0.005400681537763503","0.013765590545276329","-0.02733465243374633","0.10206168333436083","-0.0032077035242617596","-0.3920581513859953","0.5275036908507025","0.6301552257794482","0.1919214578650694"
"0.008652106744039064","0.034147672003028894","-0.04042649109215286","0.0826657164721601","-0.009157373308770205","-0.312925139982517","0.4573455736033562","0.6887367927522042","0.17347682788070104"
"0.01203282279062309","0.022333712484431913","-0.04219851773884627","0.03815532129316996","-0.00030291915137721634","-0.30612867540979755","0.3921736688931078","0.7338679430196405","0.16590326978392184"
"0.011367214390516595","0.013287607614057216","-0.023036826611542164","0.048459848966043495","0.004514295782098649","-0.28237628084274385","0.3277040476387895","0.7756642792279067","0.15528688392082607"
"0.009051152547460225","0.024138931740943156","-0.03575398301878219","0.03398885996054634","0.009132149335265691","-0.24275372512685642","0.26569241848022385","0.8131392522178316","0.14831652956626823"
"0.009844455604661474","0.030966306539891467","-0.03736291268555604","0.013756373101931162","0.034494890436340846","-0.226428758148934","0.20269759248335678","0.8438334366207769","0.14719054924745512"
"0.0009201952569507573","0.05231324656577935","-0.06535388086093702","0.018685385620996874","0.0071662817036637575","-0.166913251697344","0.1546262899249897","0.867983048432601","0.14732459452350427"
"0.0061844074956826384","0.029207773988289998","-0.002843657286909062","0.03762678052373126","0.0022860384300215303","-0.09633827673981595","0.12723723514374355","0.8862550504651375","0.1445900708921008"
"-0.03332112704301167","0.06344913727497248","-0.06000253670898228","0.1058905779160198","-0.04634238128028925","-0.034644826881322414","0.10651987319382633","0.8983020662538896","0.1219632282949977"
"-0.0639838065778932","0.16499272045372998","0.08688128099861252","0.11730060307611626","-0.16134512391101183","0.15376649496354006","0.12899294378356685","0.899941683166315","0.08952427149109397"
"-0.035268470563706904","0.041135115504525005","0.0821276652379305","0.12957808064407014","-0.26670864104020486","0.5260410803623782","0.2463445092693689","0.8624528151178102","0.03452549472811173"
"-0.0837126310990351","-0.06757821164251913","-0.03341332095561252","0.28612029051970755","-0.12559024267968064","0.6428172812678228","0.4150329953836101","0.7913795904817461","-0.04188567443096793"
"-0.06961833332219992","-0.010172128126640355","-0.025483281310335296","0.229285346711872","0.03726265667842894","0.6115253590833414","0.5493798205029033","0.7215013408835511","-0.0949649228409258"
"-0.04227571487178238","-0.02168518071621173","-0.027907695876706884","-0.009010419675081672","0.07456584278775992","0.6574543421053949","0.6788808897762837","0.6284461335741234","-0.10310281154987204"
"-0.005429421567086659","-0.062451566808141144","-0.046606544223158235","-0.18157777049810772","0.047511612862002714","0.5378275976232678","0.7737944988451415","0.5392398574913214","-0.075426483403996"
"0.007633741853708269","-0.08121517582902156","-0.04683576160034245","-0.16702608824536802","0.013547216054853999","0.5296282812678663","0.8474640333721355","0.45183993902390324","-0.0426524134099693"
"0.022216471693930956","-0.08503681610235017","-0.014273669960729976","-0.15309305422148783","0.028363329083200123","0.4164072526883966","0.9012940602691235","0.37361075921920295","-0.024951734707673884"
"0.056135364984729104","-0.06324968714445585","0.019305353388813264","-0.02162358115156454","0.006681922611298341","0.24082657979655692","0.9307197370725654","0.3193922406405279","-0.015594033986680002"
"0.05635563826821758","-0.026076398789439573","0.020559877726248444","0.03607074573940411","0.040438051859636455","0.03259437151989677","0.9398494219996477","0.3049274846588772","-0.014548480833496323"
"0.0344991015232341","0.02705351603316759","0.06486539272271642","-0.0017715629536979866","-0.025608112637517867","-0.11122516049759178","0.9288586859143521","0.3145984454304707","-0.007926644196666407"
"0.011951417446725166","0.14393923971584638","-0.007401556671687629","0.034799827095333954","0.0022983700617932104","-0.04202741445913508","0.923240418266917","0.3294939482280975","-0.011304585153105944"
"0.00966727926794247","0.19081046826883474","-0.10616779807918147","-0.04602521911771142","0.1026922395869993","-0.005388961496500621","0.9212740245903147","0.32627029463756635","-0.003972308553215341"
"0.015991357160560934","0.17467687695787157","-0.02741399691046394","-0.11139347382144649","0.06005219728314696","0.008993472133940934","0.9184648907665971","0.3208234316742551","0.016844922817223728"
"0.05556712376065737","-0.008228316051839811","0.013203322326580209","-0.10708714419360246","0.027554922111501127","-0.11018423166340996","0.9070878987805407","0.32193503636064513","0.03460592189374128"
"-0.21525408973878454","0.25788147781278514","0.06770768819980076","-0.20546297168190228","0.17891200029578935","0.01810015814695384","0.8909704934669612","0.33007754068845224","0.06389481471048905"
"0.019474228932820765","-0.04412592354284288","0.02516626540235445","-0.2519826287172319","-0.10965160861478468","-0.038549110723992114","0.8937093989450858","0.31848906183283593","0.06772850960549585"
"0.05629817567252493","-0.12545194031924412","-0.20805051421108386","0.11871407979031491","0.24559529910114714","-0.13627791539288492","0.8782942770874356","0.32210177706360366","0.09310328036160732"
"-0.05239551644654287","0.021742347555574783","-0.09469811316700175","-0.004038908712468215","0.18922261463822151","-0.27403924159543525","0.8360870413860793","0.3651347734854788","0.11980509935060576"
"-0.029889333133589744","-0.05098442281173105","-0.014591047867600442","-0.032129841942544445","0.13422011148326032","-0.26132069267070895","0.7966187111628467","0.4016926726091318","0.14349089962849743"
"-0.02964990565153704","-0.10937392841888784","0.007369740077241757","0.14564679594496976","0.06211432015163338","-0.3509334552909348","0.744052794486532","0.4527986980659146","0.15083658075599302"
"-0.00010615054944844234","0.06157499954930872","-0.11238311542206135","0.06177961431088028","-0.022078183042874566","-0.4084247555172851","0.692715873858093","0.5237885523504996","0.1364401181083101"
"0.009865205986439383","0.014730449113411646","-0.08527816057002709","0.09727791866033171","-0.0005683917797953195","-0.3736737467453686","0.628140910085385","0.585802198792485","0.1274858936682243"
"0.008189213612070527","0.02530832254011177","-0.046042316833166286","0.08066721371545296","0.011567646610172424","-0.3924745229196681","0.5587904188123574","0.6478575304102099","0.1177542066270532"
"0.011038400648497565","0.03625524325324153","-0.0118492553943584","0.07157442963867171","0.013430408098350034","-0.33139602178782973","0.4886323015650103","0.7027013266249792","0.10682951662904427"
"0.018149396865462557","0.0396989435344434","-0.045852771694340884","0.023666848750770245","-0.015438284424479047","-0.32169136219530375","0.41654290481385803","0.7489996618131252","0.09725868391913217"
"0.019009739617638546","0.030221542437759367","-0.05570471088677813","0.01134996598041294","0.025622966467271312","-0.2759577535082811","0.3469466143312547","0.7896149180421019","0.09562333155133207"
"0.014139784632686782","0.02866754211719119","-0.04241451103657756","-0.017637334737782607","0.03302879643681893","-0.24425906836398087","0.2837059891248131","0.8231159042781823","0.10264730401630956"
"0.005568280775200366","0.021986896962245022","-0.058746249160953376","-0.03645499999474509","0.05188249123440917","-0.22155080548906037","0.2221508442126014","0.850864336262194","0.11468456980552676"
"-0.008270627687445265","0.0358150543212351","-0.012259201857399406","0.03609629860103092","0.060274851745691166","-0.1863706137516659","0.16638953781180735","0.8734021212787525","0.12204365546062718"
"0.0016496509856046293","0.07276202331626017","0.04310428837761355","0.08629422282316673","-0.018294427360930853","-0.08501297102391765","0.1293089713387348","0.8955647397136541","0.10457755599141792"
"-0.06594711193072529","0.1077192494115592","0.04721521387688289","0.07566154261150683","-0.14287165442638172","0.08106802518428108","0.13787682950107383","0.9004419052751905","0.07530206770227502"
"-0.05075144773644772","0.12281239415596171","0.044388346492493624","0.10458603708559859","-0.245491383486376","0.3076574138089817","0.20013425786921485","0.88148904537224","0.03231374767330013"
"-0.05287437141064825","-0.039957467747327384","-0.08665346483313241","0.09333470864507916","-0.2022347595939397","0.5646034900963758","0.3361665632827388","0.8297716373379427","-0.011197348932266597"
"-0.07648192114104378","-0.05520401166500487","-0.033038638704446004","0.21033588248441337","-0.057978646038176984","0.48725447057178756","0.46977599077330606","0.7659794233977333","-0.06447364389801677"
"-0.05530056989544888","-0.010144649666036317","-0.0008776774749059277","0.053579835503583244","-0.0054308226964340095","0.5998989847200181","0.5855123043104709","0.6943920815942136","-0.08846104604701913"
"-0.026505424720578357","-0.03491752679349612","-0.036265314090962356","-0.07849080225829705","0.04079087354643729","0.567870405206731","0.6971753738032446","0.6083955640433628","-0.07948135300448396"
"0.0048037090158454575","-0.05739384044291568","-0.04638173487245832","-0.14913908510660295","0.006589777918337735","0.5290837954161405","0.7801150499485061","0.5233994907102631","-0.05646980046511969"
"0.013099073177364397","-0.0760240588783396","-0.043900015961790675","-0.18046151391125248","-0.02687518780205795","0.5169449637806046","0.8568044033359965","0.43729181269077333","-0.03493274596229651"
"0.04652953440477507","-0.08258242932995065","-0.008300794074487269","-0.09820416255965182","-0.03601840767010444","0.36878075495213875","0.9104939735417988","0.36407874903340826","-0.026138035400709202"
"0.06600296961172741","-0.057516115146250796","0.013888329642242288","-0.009944712989404986","-0.01912921032280817","0.17679504363359344","0.9292098276423166","0.32353296809733084","-0.024010736869808584"
"0.053065904664813576","-0.03860133012851968","0.022388767914589477","0.009710010218953532","0.018215081225761744","-0.013372725511777688","0.9288586859143521","0.31493192683638777","-0.021264149163560692"
"0.036337904585398775","0.04557035247095349","0.06426634192349842","0.059353437343787646","-0.003218664974725474","-0.1291035135819086","0.9233808749581027","0.33096682443756437","-0.02276143489703014"
"-0.004075858201882081","0.25452448141213","-0.004888981575629813","-0.0774377553817818","0.1059875256326537","-0.03001029142574978","0.9162175837076231","0.3429999451677367","-0.0148701894960144"
"-0.0016368902513719968","0.27746766211064733","-0.12285658634878657","-0.1037558579699392","0.04578860986723748","0.09283852815541407","0.9143565325494105","0.32950784328667737","0.007689630463064099"
"0.03658690916673357","0.03464344034564221","0.02859130198066484","-0.07699528740940181","0.030767997278677663","0.01631520541067835","0.9235213316492891","0.3163909079872747","0.018493679712628764"
"-0.1297784786459732","0.2814249161458567","0.03933145850969094","-0.10458968819144557","0.1868727536950625","0.2312628459538894","0.9141458475126315","0.2972852024399456","0.04829194457836347"
"0.03268583739248837","-0.14266377219598064","-0.012245977777946481","-0.31918665479573494","0.03331653451149146","-0.030029508573457753","0.9208175403439604","0.2753449049423219","0.05016857844305209"
"0.009378370106265575","-0.11528535453103486","-0.2503587524075101","0.07931829159904837","0.18100152679043507","-0.2505558870962932","0.8985551547909989","0.29243582699556897","0.08685677049771512"
"-0.04655348588445717","-0.018829955234515434","-0.12867518130807834","-0.05293659574403576","0.18866084030195607","-0.3292821355399527","0.8553296080785444","0.33874805724229473","0.11421541133935458"
"-0.036082524002686064","-0.048372190513208","-0.005021222370159167","-0.0021462485983942234","0.11302340664905093","-0.35355979881102434","0.8075041047297523","0.3894928111760009","0.14404048526029914"
"-0.019673760566008173","-0.04023314162393748","-0.026616144116803474","0.019550148253946194","0.05966169561037709","-0.4290831893033552","0.7457382747807624","0.453201654764731","0.14914761027777326"
"-0.005126146756486579","0.015897616736155983","-0.04576901919113896","0.09702776959387982","0.04662442046509577","-0.3990403817198919","0.6790915748130627","0.5204259481741697","0.14921463291579784"
"0.007107001393192354","0.02466804772992059","-0.061642322561146344","0.13542565129424686","0.01984833734485532","-0.3765883474810778","0.6219608156732063","0.5863718961942598","0.14071616241427923"
"0.01420363196123416","0.04169090961059374","-0.05169781481253855","0.10485097991404496","0.007211840232153575","-0.3856844640628513","0.549660733885275","0.6515536159924568","0.11759335229579417"
"0.010645739577931157","0.04657745139115003","-0.007264907850673964","0.04250872198190549","0.01625469431939167","-0.3189048757776477","0.4824873213256284","0.7044382089474638","0.1074059113160558"
"0.015644985403191387","0.038696290967095405","-0.05094845031020552","-0.000571116412219663","-0.002044419593799977","-0.2840257526876781","0.41752610165215903","0.7476101559551376","0.10617269477640326"
"0.01184766553783568","0.0039865044078181856","-0.04413804939194353","0.010052956519734368","0.0335494653338454","-0.26071535251790784","0.35460150400088536","0.780652605258082","0.11150769676316095"
"0.006784572384028046","0.020612973932043113","-0.03652097962705246","0.046043086211129146","0.01118331075328841","-0.2534512706842943","0.28932425677224805","0.8165991218042206","0.1046445786294425"
"0.011953013629938846","0.03866738967357983","-0.0475145976789265","-0.006572004232157239","0.0426851492046981","-0.21251234035041075","0.23430034800017963","0.8472516210314264","0.10327731681374079"
"-0.002880316974832309","0.05622603707250323","-0.03250526749984426","0.014326605382445175","0.04793979452074158","-0.16153565319706312","0.17997872268404091","0.869761615930825","0.11082406585531011"
"0.004897883825452829","0.02715800532510851","0.016929427113769116","0.013888172072427325","0.01052767899742744","-0.09007028372906568","0.14044016411521615","0.884295847205375","0.11215111408819707"
"-0.02964990565153704","0.07707053922650499","-0.027753414949755962","0.11420601704436452","-0.09825512558579072","-0.03860676216711603","0.12951965637551385","0.8970237208645411","0.089028303969712"
"-0.05818966151221803","0.06980297549555024","0.024579997879940956","0.06500196465076609","-0.12057195363926099","0.15965334787808222","0.15104464429975012","0.8990246093000431","0.056214020392870497"
"-0.04347285228204584","7.126840702760408e-05","-0.07167058281295606","0.12029432254881482","-0.17695491446199638","0.2890488091117619","0.22854162366155867","0.875139003601237","0.013158677725871027"
"-0.05520479890262778","-0.03644707217339727","-0.01801167641942652","0.15171223836270137","-0.07009447425385226","0.4326777710811464","0.3336032286685965","0.83566314217581","-0.029040115627174144"
"-0.051246264532689934","-0.0067976797910546515","0.0036361416450295244","0.07424403123494605","-0.007723821115312444","0.4826103265423609","0.44421287297747625","0.7779291737764265","-0.061013935323187204"
"-0.04625021107385709","-0.008078651814957623","-0.008318426180424514","-0.07515682625972574","0.0075115673932707894","0.532703024901142","0.5540851196576303","0.7073005910149182","-0.05483578855008008"
"-0.022738432336282675","-0.04793200158120157","-0.020484579277125534","-0.07044434062076085","0.025674348266319976","0.6027815568762139","0.6653619332496431","0.6245416221131784","-0.035097621651837003"
"-0.00246052078963324","-0.052829659243879244","-0.016702492553585874","-0.0867443765637558","-0.001015070886191716","0.6054079003963035","0.7652266406828029","0.5328203404274188","-0.02408848312991712"
"0.022604344214856322","-0.06466140417387044","-0.031160819422129105","-0.09279099055713082","-0.013963626791782355","0.5498703435202638","0.8443037578204532","0.4407099971014228","-0.009159860736318932"
"0.046746615321836174","-0.07327843599436007","0.007894295228874882","-0.06260499165114719","-0.021637669752364006","0.39603707611794603","0.8971505878791403","0.3640231687990887","-0.00020563629623310243"
"0.05668764437666397","-0.04959271437013494","0.026581241903818588","-0.026069779074629002","-0.012652705825387408","0.15991277937213982","0.9206419694799785","0.32069837614703617","0.001322479850727636"
"0.056381177199636534","-0.03390375834402675","0.016610285996304923","0.019605288639561933","-0.04819555149931111","-0.029056160042048956","0.9304037095173967","0.3145567602547311","-0.0022565290197856984"
"0.03489814732665524","0.08680360561198064","-0.04700767463323061","0.09412415758060208","0.051865363968059616","-0.07891472948458779","0.9226083631565808","0.3278404362570923","-0.008744320380566458"
"-0.0046696383573727645","0.21757528924068065","-0.026338438448291823","-0.06250815975445613","0.13606985624901227","-0.04349432340084363","0.9105290877145952","0.33570503941330193","0.00915072397200027"
"0.003815671606574656","0.23073649367238824","-0.08276999350045357","-0.10430860671355068","0.05384185050479827","0.04019635486737545","0.9076497255452844","0.3295773185795768","0.024847425797360274"
"0.04850401304010294","0.031081911713953764","0.00941947239244682","-0.09479487286365412","0.024631640290959066","-0.03575621859043348","0.9028039696993718","0.3224769436452603","0.03452549472811173"
"-0.16117540245914963","0.34162853371522184","0.10359255020328759","-0.15359066257948356","0.07429180652616704","0.17591425769697805","0.9017856586882739","0.30491358960029735","0.06806362279561883"
"0.036867837412342064","-0.17847025168535272","-0.017557649691542387","-0.21749971439558255","0.032343705782836726","-0.004408886963394039","0.9045947925119915","0.2903793583257474","0.07173646335936663"
"0.012288212104812629","-0.08734669640717183","-0.21057631338659466","0.09663102779493728","0.1140133626440552","-0.22319707447604334","0.8806469266647993","0.30841514436242606","0.0972720884467371"
"-0.03989740188339232","-0.010124240906461473","-0.12898815118846452","-0.03522039331193408","0.14453415127896238","-0.29734003319135155","0.8453922971771438","0.3528237515837088","0.10972489459170674"
"-0.03402344765703291","-0.05175586503095445","0.0241991443916964","0.013920449371324346","0.07196249830262756","-0.33799390916756683","0.7937393489935368","0.4013869813203745","0.13830334744539385"
"-0.014454241457259471","-0.042462987577485234","-0.06269584089089689","0.09449669140537184","0.020784513723522","-0.38696560724338275","0.7503031172443033","0.4621361774315911","0.13707013090574133"
"-0.0006281024603233154","0.04999225037883632","-0.07469008095470975","0.09231662884236899","0.01585186101485013","-0.37316128947315597","0.7001951926637413","0.5270261009996107","0.12767355705469313"
"0.008179636512788413","0.024341240795552176","-0.06224181416301276","0.10150355504093321","0.026578667929576485","-0.3799513483299729","0.6274737408022523","0.5889424820315369","0.11771399304423844"
"0.012243518974829452","0.024665824553496314","-0.04713991542775998","0.07857187906205478","0.011553259706438796","-0.3591327716463362","0.5600896432058267","0.6477185798244111","0.10307624889966699"
"0.007231503683859747","0.03258255580033934","-0.01932526831175149","0.034399050634029295","0.004549920496105723","-0.31845647566446167","0.49182769128948933","0.7003252716078204","0.09594504021385014"
"0.014866047994913293","0.028480795297552097","-0.030799361250415526","-0.0024320371823782516","-0.009249860547057802","-0.26431216199724994","0.4387350620212269","0.7381059358865026","0.09357243882777948"
"0.012299385387308424","0.009665830901270924","-0.048427059161179065","0.017835416750042025","0.006689116063165154","-0.25154877306120504","0.3753890942963952","0.7764285074497997","0.09220517701207775"
"0.009949803696764669","0.0046132178418212865","-0.03002795661566094","0.01998185712669383","0.022097832507205886","-0.23760673239907118","0.32180486660898255","0.8053441243545213","0.09086472425158586"
"0.0019736761779826175","0.02861863223585714","-0.05135398874676222","0.008016662425568637","0.013775008697303082","-0.23928823282351874","0.2611626901894792","0.8377196108456316","0.09077089255835145"
"0.0007222685384538722","0.05188417351589429","-0.019730806748308193","0.013615159919256702","0.01623790959836911","-0.17842752603237066","0.20550672630707445","0.8649956108379278","0.09161537779746133"
"0.0045100113045274635","0.06865137010777582","0.02343170698077769","0.07118037761463726","-0.032139424387257205","-0.06477731448742288","0.17962758095607625","0.8813500947864413","0.07984620256034256"
"-0.029873371301452907","0.08229945017639961","0.022156024116217803","0.10855211018756988","-0.0854679085292129","0.09151254496356398","0.18496493522113955","0.8899650311059643","0.04827854005075854"
"-0.05515691340621726","0.1112474303968835","-0.016345442408356607","0.14395223775287622","-0.22092745808784411","0.22242295800822218","0.24420254472878425","0.8721237758894039","-0.0005809630691708348"
"-0.04158935608989798","0.009055568972807454","-0.05835834283033393","0.07216752500590444","-0.1718715418094484","0.46432200764027404","0.34494510648185606","0.8318420010663441","-0.04388294904410084"
"-0.07330551654581138","-0.05147796797792008","-0.05271166090393029","0.17148208393712594","-0.021696587548606476","0.5041655605548031","0.46478977823620743","0.7676329353687384","-0.07995587328169809"
