"AccX","AccY","AccZ","GyroX","GyroY","GyroZ","MagX","MagY","MagZ"
"-0.0070608814839294","-0.07779499608560385","-0.05068258310044372","-0.014765034787846824","-0.020401585133681413","0.41808184956411654","-0.2791724948140191","0.006918211990474252","-0.8456981380206439"
"0.08173609433301872","-0.03469757209111281","-0.01343989077632269","-0.039507699493194","0.06313668790311479","0.12625637689974226","-0.21608879418975033","0.009387878809675032","-0.8269685479472221"
"0.1175491222480015","-0.07902795364944808","0.07248699087605792","0.013836330312015189","-0.0028718808538479865","0.002202338495493031","-0.17521256238065006","0.007025072573997377","-0.8129458705624091"
"0.09559503135236519","-0.04293875600984921","0.04380063827903905","0.026639937234832777","-0.024431897374413137","-0.07112692033627105","-0.17081007797312622","0.0012480047314331873","-0.8149234276294981"
"0.08101879392983928","0.0026342431842289833","0.02870447104050997","-0.055050329026389504","-0.07536580597062954","-0.12945464086165273","-0.19747575884654722","0.005596306994299498","-0.826086001818108"
"0.08929778852959631","-0.007342949139269721","0.03018546336933086","-0.10011471227650198","-0.0817750554840972","-0.16859541961813754","-0.24175137735006452","0.043133395673102544","-0.8354998271953251"
"0.08316202976537944","-0.04073148151686776","-0.02854307987221894","-0.048593167463013495","-0.0645887893316658","-0.2806664775419788","-0.31447596155030394","0.09288557253512136","-0.8477247254282391"
"-0.0017557469584009776","-0.1345806380888053","-0.2518526009131014","0.3197596430268446","0.3756845302153937","-0.2242802638993593","-0.3574419802617097","0.09342647178505314","-0.854932185482671"
"-0.03679274249088361","0.07743508830457038","0.015577108692602771","0.10245743093953297","-0.1003925132754583","-0.42106169400171634","-0.3843305717380434","0.0726216396596279","-0.8703440558484972"
"-0.14875900274019396","0.19514981605332762","-0.1457027700432976","-0.2829697436962135","-0.029811789824496768","0.1927359994491215","-0.36451939190418525","0.09055047089517193","-0.8523662643295059"
"-0.14293394577477708","-0.014003205162327169","0.0711094676807943","-0.0014451052548550064","-0.11300279545860285","0.2652367202186668","-0.3643800727773649","0.13552426462730546","-0.835385423067477"
"-0.053536170693957885","-0.027604170908726765","0.047119498511105966","0.014971412089742982","-0.1313833168415124","0.37638798925679956","-0.31990940749629887","0.1123051748741359","-0.8328848757016538"
"0.010725280056921136","-0.05041648263336614","-0.04973669760804382","-0.043612863785162874","-0.08046352869792085","0.40534071064599","-0.2618133316121995","0.07817575146990315","-0.8232912724092465"
"0.08646421123220425","-0.04052477675258385","-0.0673057977911136","-0.09160496856714151","0.04597435472123405","0.1602109053956487","-0.20605781705868284","0.07799105416504837","-0.806833421445952"
"0.12193380149106073","-0.0964846384160581","0.10248684385116921","0.07151465881385756","-0.02589444120476418","0.05983014578963896","-0.16894320167373278","0.06648705060552344","-0.7977301215586083"
"0.09796104432520422","-0.049764168100852095","0.03551897709012288","0.10840722346400945","-0.02600884080399635","-0.005375362867927615","-0.16874815489618436","0.030986909345975724","-0.8098569591105097"
"0.08393517368988021","-0.02079849444848466","0.019271844819029462","0.03322225624613467","-0.028370546337935818","-0.17886599102794928","-0.18181628899193641","0.028831227945028053","-0.8129295271155735"
"0.09635841228882806","-0.006564949800331788","0.00915155158356556","-0.04038476437827459","-0.06297331381949602","-0.19789761224622518","-0.23105166841025931","0.0549170837228361","-0.8254649508383609"
"0.08488258791367694","0.09148997355846783","-0.029623206755461623","-0.07658222381763811","0.10960255022722784","-0.3070952399835785","-0.2932158627975136","0.09729192252237057","-0.8329175625953246"
"-0.07934935701508618","-0.4687671899132395","-0.357676121940549","0.653901146500963","0.04277930315272048","0.05683537142297836","-0.3353459667479973","0.06408598564241158","-0.8498657169636826"
"0.029079505004316476","0.3358960248999097","-0.028483187559381392","0.43680111182953163","0.40852056581090396","-0.7139380072663856","-0.36680422558403947","0.016159673565528405","-0.8689221759738134"
"-0.1651847005633364","0.09996902376374198","-0.07443917877528229","-0.5143473549271896","-0.7371746674199051","0.6141983135591276","-0.34208901248610374","0.05045796307705695","-0.8439657326560864"
"-0.10640458027594801","-0.05950214380518203","-0.018848786201203352","-0.037117192237809675","-0.18334179590700267","0.12058717680207678","-0.35613238046959805","0.11214686289854613","-0.834682654853553"
"-0.04997373916138888","-0.044438663947668135","-0.009625576549437584","0.08402655260804791","-0.06921263924205398","0.2784389670214494","-0.3117174428392604","0.08419160654231524","-0.8366928988143127"
"0.03167911720375871","-0.02818793009228233","-0.04160579982730492","-0.010758070955019782","0.019293879151354453","0.3778926570909402","-0.2391321777658415","0.05837356185654658","-0.8204148257662082"
"0.08999862472217927","-0.02303796918112843","0.03969285171924996","-0.003925244497946245","0.04155154176347144","0.11854859457517654","-0.17724662163222765","0.03371515239197315","-0.8023880039067106"
"0.11716880861141642","-0.09050162614331779","0.06747462386720515","-0.017282624990355884","-0.026554033873140464","0.032979105601038526","-0.14205461019739907","0.017631974938513484","-0.7947556142345571"
"0.09359870249067352","-0.02240539027937516","0.0228540247023649","-0.08051601868090848","-0.025882714049194355","0.000647191482400554","-0.14272334200613712","0.030109597147915605","-0.7913234903991133"
"0.09089308388265403","-0.0018409668983880956","0.02996406833704861","-0.10727756929626008","-0.023622962969800713","-0.06720750331669498","-0.15988745843040802","0.06276671917916331","-0.7893295898851889"
"0.10179556860131483","-0.038430722457124734","0.021830692253709545","-0.06205818336063939","-0.09530436373638725","-0.18308634161435347","-0.2138875519859881","0.11748989207470162","-0.7947065838940507"
"0.06637527469231445","0.028803377957794554","-0.07229131652179781","0.004492556624668657","0.1732953647537084","-0.23579097283053532","-0.2679433731922964","0.15142142550944715","-0.7991683448801277"
"-0.5504472285206762","-0.47345180542540255","0.3916386692221855","0.12078818331267731","-0.10807260352516619","-0.4040492399415131","-0.25891549377433576","0.10201489646079938","-0.8040060051434198"
"-0.04778813927519114","0.37495179945807566","-0.129197274726136","0.18852724512856162","0.5149983517908056","-0.6252596803962248","-0.3092096985564935","0.07586703515921867","-0.827654972714311"
"-0.06388647852507051","0.03384427354105996","-0.09457745265386623","-0.3337836675541211","-0.1052126135443619","0.45404826456728525","-0.33779798338003586","0.1450625611565905","-0.8188295114231697"
"-0.1298107182642594","-0.062221505980535184","-0.08235942083500637","-0.1309034444662686","-0.2545902492363277","0.33212163232982267","-0.29831494283913956","0.15235810469835342","-0.8017506094801282"
"-0.012818541096027402","-0.08532258114472696","0.010018565095714912","0.06487168657779159","0.01303445003353394","0.2739006946829929","-0.24364611747482176","0.11861126856846267","-0.7983838594320262"
"0.05124264323356125","-0.031015318878115518","0.009854088413150002","0.027464050891944727","0.010328349053370432","0.15787867025273067","-0.19076057693380474","0.09693572057729354","-0.7854398495383527"
"0.10082466158578982","-0.020936643863810087","0.04935616660776337","0.01067754887628585","-0.05381655928681219","-0.019064199833202452","-0.15969241165285958","0.08297788139612683","-0.7832007973218965"
"0.10972236388901409","-0.04453526466665508","0.02856609914533356","-0.017672538578124973","-0.07405906577856333","-0.02920493297022947","-0.16632400208950976","0.08441588184106745","-0.7908331869940499"
"0.09051171114480251","-0.009640592046787357","0.009694650945872114","-0.04111837957304014","-0.019241554051090758","-0.05133568455011446","-0.1673828274533448","0.0749039706410474","-0.7923858144434174"
"0.09186938268644455","-0.022247505233288955","0.026186722123949444","-0.025754821465338574","-0.10241245598993429","-0.11916465438301338","-0.20566772350358553","0.09084070951708655","-0.8066863304244329"
"0.08963227196592455","-0.06387202794258108","0.00613167790768803","0.007189699627471385","-0.11951735004249343","-0.2827293286049136","-0.28059354990758717","0.13425776882258714","-0.822751938663677"
"0.030328281679381872","0.04875921680916381","-0.10867279869235821","0.05593737029508257","0.18553707919037277","-0.13379148186102266","-0.347355275479914","0.15986473087423606","-0.8287990139927921"
"-0.31685763011079415","-0.18246551061889704","0.12531614130310922","0.025927502531254688","-0.30793684059375653","-0.3285488910381002","-0.35507355510576316","0.1206297462572325","-0.839258819967478"
"-0.1642122530368783","0.2550007131289","-0.06894560801156235","-0.005669650497153192","0.42407699666883514","-0.2641151313664316","-0.37271135656122356","0.10297796097897066","-0.8462047848725427"
"-0.085963925833667","0.07714632486501799","0.05638215447925783","-0.24217804316837074","-0.11123893552901896","0.28091438829697113","-0.3895132432557617","0.1814743155422428","-0.8250563646674749"
"-0.12853016855120084","-0.08933618521102357","-0.023514190846031686","-0.02175844787810526","-0.20456316089427595","0.33003451243085336","-0.3574419802617097","0.186672225407441","-0.8137957297978523"
"-0.0025452588115649237","-0.060674855759335476","-0.0027470476826534935","0.07853887989129775","-0.008687353367953692","0.29986834923993655","-0.29341090957506233","0.14313643212024799","-0.8155117917155742"
"0.057236193582275295","-0.020766294208822342","-0.011013219480318576","-0.009386152775832244","0.04457427594402023","0.2047927571910744","-0.21926527028125495","0.11590677231880368","-0.7989558800712667"
"0.10977724459100233","-0.05727097881180596","0.033746990730998176","0.030195371505527212","0.00992651447782479","0.0724911975488516","-0.16813515073817467","0.102714107686321","-0.7893132464383534"
"0.11270806664104016","-0.07873191918803644","0.050710972029192045","0.08010334799037126","-0.04089275518945394","0.01958513499358319","-0.1588286330665733","0.07866388006130498","-0.7951805438522785"
"0.09021265945993336","-0.015375350858905288","0.005949729191791891","-0.04068417950369727","0.019021043287076895","-0.0901415533693228","-0.16398344075892748","0.07722587961636437","-0.794575836319367"
"0.08382637510523688","-0.005952210401080139","0.04943671144226904","-0.03984466185299444","-0.06811172259672346","-0.11525251801424767","-0.19544169959496963","0.10124972191211538","-0.8008026895636723"
"0.08358374463328896","-0.011855137561628044","0.009277387398089415","-0.01866320791593829","-0.08726767222547446","-0.20463221424580638","-0.26192478691365606","0.12601235342728545","-0.8136322953294979"
"0.04611659310399441","0.035745126398545164","-0.07869772874324867","0.0346326844092994","0.10375811881875582","-0.08871697269409605","-0.32397752599945406","0.15850588641709035","-0.8193198148282332"
"-0.3497667949170665","-0.17976484535689619","0.05284850802184248","0.02176842426171773","-0.11261268803862703","-0.29039828079182406","-0.3456834459580695","0.12570892214073837","-0.8290768525889947"
"-0.1690070933158496","0.25091855371364485","-0.11928819482977196","0.014211802655792829","0.5160992684361361","-0.21307048853501137","-0.34431811851522975","0.11409937726415358","-0.8298776814839316"
"-0.06906644653729242","0.07258323928964504","0.13165233495088846","-0.30922392527266557","-0.2700509482120563","0.30467357877477286","-0.33846671518877375","0.19775406369872642","-0.7978608691332919"
"-0.14312650964140242","-0.1127052494665985","-0.018305624881331792","0.1395521730055651","-0.07861590337140964","0.3494010435864057","-0.308290192319479","0.16218663984955303","-0.8043655609737995"
"0.006808531009761509","-0.06233472617805753","-0.056576812784525206","0.024366885430578897","0.05464048335762926","0.3183126646261769","-0.23938295219411798","0.09227870996202714","-0.8089090391940537"
"0.07320455222218253","-0.05456615868017127","0.012529829120471644","0.007407377311902473","0.029350513376743232","0.06483437977995839","-0.17005775468829587","0.072925070946175","-0.7873356893712643"
"0.11536929927780253","-0.048712986083488695","0.09355669348187406","0.06207682449064673","-0.06726449543922998","-0.08633619987910898","-0.1440050779728845","0.06212027861217169","-0.785488879878859"
"0.09145825883119943","-0.010542198757332252","0.034259173268367554","-0.05362545961923332","-0.06389473318569655","-0.06780937045035124","-0.15570788462579654","0.06548440809345478","-0.7972234747067095"
"0.08470061505971599","0.017907232343029638","-0.017989641299809556","-0.08837783190985266","-0.024331139568394847","-0.1149176080769712","-0.17237045219351435","0.09479850890683136","-0.7947065838940507"
"0.09691522996556194","-0.020230316026056024","0.0117216339900331","-0.10765304164003772","-0.01653641038974927","-0.11857492166737438","-0.2102373908632943","0.14039235787669158","-0.7934154515940506"
"0.09249040115631131","-0.08743948722317224","0.0295632028914704","0.052265443322857125","-0.026685904540874616","-0.2288330975394365","-0.2653799012588014","0.1681893022573327","-0.8019303873953181"
"0.055111251314064545","0.12507793967849054","-0.11492638225346498","0.028297792045050976","0.19414098210333627","-0.04698913601633071","-0.31896203743392026","0.18537934427345765","-0.8035810755256982"
"-0.38635392957588327","-0.2874694534403065","0.24690579737199966","0.03023484423910384","-0.13629914899261864","-0.13465545242385185","-0.3157298336916874","0.1310783366461588","-0.8196139968712711"
"-0.08806287197988329","0.2769072632733606","-0.17099384807807752","-0.009598920437306244","0.3840850028786766","-0.2551599308696912","-0.3428691995962979","0.11341335870326445","-0.8304987324636787"
"-0.11993219190637891","0.03852888905322295","0.050004655788142345","-0.2290846486161248","-0.12186996104762365","0.2991888218309698","-0.36613549377530175","0.17973288381075503","-0.8098406156636743"
"-0.10178304747693959","-0.042676999222916824","-0.06889604195955885","-0.055611612042857105","-0.23456313947953258","0.31212411143737256","-0.33634906446110385","0.1816062421885676","-0.8053625112307619"
"-0.0018327725050511264","-0.057725937036712256","-0.0493050599051801","0.02574650560656187","-0.02168846096019059","0.3161284693830695","-0.2883954210095285","0.16122357533138182","-0.8044145913143059"
"0.06977980385425067","-0.02564618859377616","-0.007961809403853827","0.0022192159955349493","0.022010271308854752","0.15899260982671543","-0.21982254678853644","0.13330789696904838","-0.7936606032965822"
"0.09994252651277909","-0.029844684358779","0.042794860473801606","-0.008124373150819483","0.028831167915793834","0.05670189282478847","-0.17735807693368405","0.12391471975072067","-0.7803080072320222"
"0.1107265844534653","-0.05880931929373797","0.06771832362288897","0.028098502877969","-0.033988093185587535","-0.007697405099711137","-0.15751903327446146","0.09165865472430045","-0.7879730837978468"
"0.09168336599128446","-0.04753404182488448","0.02064379183344268","-0.01926588916518138","-0.02452715059720478","-0.11030895611401453","-0.17192463098768915","0.09374309573623275","-0.7944614321915191"
"0.08120846933846525","-0.009908581138170518","0.012287802219042946","-0.03366766042305252","-0.0986214734547092","-0.229832973584059","-0.21684111747458037","0.13615751252966465","-0.7960794334282282"
"0.08746746897732234","-0.0222163437110351","0.02078113110253568","-0.0022127055104804263","-0.07795296008715626","-0.32323401594653883","-0.29577933473100887","0.1682948435743925","-0.8137303560105105"
"0.03306076294679561","0.00018879078948722585","-0.12025266759167316","0.1343918351526211","0.19658693169361408","-0.23867411055143714","-0.3614822349395008","0.18194925146901214","-0.8229970903662087"
"-0.2565658834703967","-0.025637878854508467","0.0410063520973424","0.007252759726234038","-0.32401979680380233","-0.247733667043126","-0.38667113306862605","0.15569584885037152","-0.8380330614548195"
"-0.1426643563615016","0.07901497748284088","0.03875109673118368","-0.09973923993272434","0.08705051207733769","-0.08719046290752433","-0.4075968659170473","0.16933706408035865","-0.840288457118111"
"-0.09375313423866245","0.06934971199710327","0.09988049561665246","-0.07638100915135727","-0.08534824798731125","0.24307441915193695","-0.3896804262079462","0.20237149632009538","-0.815871347545954"
"-0.10887902596208376","-0.01901813281038103","-0.043410830221098616","-0.009001341760940133","-0.15949259075326658","0.3642050335674671","-0.34643576924289954","0.18423158245043167","-0.8102328583877249"
"-0.01758449679500483","-0.06418675931734502","-0.08077124191872793","0.02368814696298085","-0.10168968027930426","0.42749815794551294","-0.2934945010511543","0.14683037821734315","-0.8153810441408904"
"0.06960168227762221","-0.04440542499059736","-0.018406822237505584","-0.0383918727074548","0.09746614086098641","0.21794403943818447","-0.20834265073853708","0.13317597032272355","-0.791895511038354"
"0.11016237232425302","-0.052298638577499036","0.07390581911465777","0.03586885489496732","0.046632511411377295","0.08367913096076846","-0.14807319647603973","0.11640809357483806","-0.7701260398535393"
"0.10999580457962209","-0.06509355961493223","0.06889345210580501","0.0541514697881402","-0.09294457284009183","-0.01878025445159849","-0.13472642412664707","0.08821536925522246","-0.7835113228117698"
"0.08610411680161485","-0.009741347635408158","-0.008827769637398102","-0.023838949762473173","0.04085987891455727","-0.08040246946866719","-0.1484632900311367","0.09027342493788977","-0.7849168592396184"
"0.08900066248339339","-0.011522747990920248","0.02521460792903103","-0.06062753745588663","-0.03701082736613633","-0.11541026544847209","-0.16975125260929116","0.11198855092295631","-0.7823182511927822"
"0.10279199032916772","-0.05938996232506815","0.06773691089239028","-0.026363279212178237","-0.08943599935736458","-0.23637342489536398","-0.2526182692420543","0.1518567834423191","-0.799544244157343"
"0.06340497704961842","0.057159324491394874","-0.0383013963604057","-0.03232173648304958","0.13689810314025946","-0.2579751158496963","-0.33685061331765725","0.18502314232838063","-0.8173259143143087"
"-0.4425344376638294","-0.46687672422983895","0.054736148502308665","0.25078826172369006","0.18791840976016377","-0.5441774992048707","-0.3589187630060057","0.14502298316269305","-0.828684609864944"
"-0.06717932064436401","0.310613643177948","-0.028404707977042535","0.21881534752662476","0.34981298905012653","-0.5162926066011995","-0.4230891528194738","0.1378593662672549","-0.8569914597839373"
"-0.09795102653109508","0.08476531705608574","-0.005734228416730388","-0.3601726340744933","-0.23565448293664276","0.23175786090903713","-0.4286619178922891","0.20595990110013068","-0.8265926486700069"
"-0.1238508665922048","-0.04196651651552891","-0.05641985361984749","-0.07863480596362254","-0.0964387865404887","0.27307555425781893","-0.40634299377566385","0.22371722769545235","-0.8065719262965849"
"-0.05418125964715281","-0.04825698914117394","-0.032944132239695334","0.12708456569294854","-0.08830875644442832","0.3518521960258929","-0.34612926716389486","0.19353241101633198","-0.8058201277421544"
"0.028362204601137038","-0.03410861932051494","-0.019075963939552677","0.04596713544338703","0.06461813878020085","0.45099039122693485","-0.25788453223586494","0.15584096816132884","-0.7929251481889871"
"0.10545129732726381","-0.051865493418170434","0.01741642227236555","0.02190898570323449","0.07483512390827907","0.14502346780524183","-0.17783176196487338","0.1226218386167374","-0.7725939003256915"
"0.12162569930446017","-0.11475152276126839","0.12305469018045005","0.1623885935040412","-0.033727223806585306","0.023677103437364753","-0.14169238046766633","0.08722591940778626","-0.7735091333484766"
"0.08462744079039836","-0.03692769836708042","0.010723828058159544","-0.02357419362262996","0.028831167915793834","-0.03873287799738469","-0.12140751560261853","0.0405515912045257","-0.7836747572801243"
"0.07402294865534027","0.002902710085620036","0.02845230375094222","-0.007893890896715976","-0.04972162802559368","-0.20083414140640293","-0.1428905249583214","0.06056354418553873","-0.7889536906079736"
"0.09710644588512092","0.006674438416182234","0.023754268121878256","-0.02918894928650485","-0.08671003401164401","-0.18804931858341423","-0.20672654886742056","0.10506240199090289","-0.8002306689244317"
"0.0898332123607481","0.02626786876373915","-0.021769052765075538","-0.058448835112376876","0.07678805430521321","-0.29250966952682794","-0.2719836278700875","0.14491744184563318","-0.803058085226964"
"-0.006800920263985183","-0.22893772747348068","-0.23772627609210722","0.47025666040971886","0.22200135312136357","-0.09813328107549245","-0.31600847194532816","0.1306957493718168","-0.815871347545954"
"-0.048933894281611996","0.06556358704325979","0.006123623424237463","0.17670468004756307","-0.059883567321405366","-0.4504997921115973","-0.3718475779749374","0.10668509974069827","-0.8473815130446948"
"-0.21932403166505382","0.15827534805293156","-0.07084357475286258","-0.3538666241982278","-0.11781810913339634","0.0503094814132941","-0.35844507797481656","0.12233159999482275","-0.8329829363826664"
"-0.11913305185988371","0.0013135139993697283","0.029775304289001995","-0.07640026414334587","-0.11707379374927071","0.25351487241399034","-0.3704543867067336","0.17954818650590032","-0.8114586169003833"
"-0.09934711456412887","-0.007257774311775849","-0.05102541496013451","0.005104095170226498","-0.18038607404399576","0.35639046836434946","-0.33662770271474474","0.16594654926981064","-0.808075523405446"
"-0.0458143596422813","-0.04049257651292153","-0.05913979072353891","0.0013001752279192137","-0.12663501548426073","0.553550492308845","-0.2629836122774906","0.11908620449523201","-0.8058037842953188"
"0.06881794734045704","-0.03944554936519198","-0.012390742675582187","0.005104576545026213","0.057385595079790366","0.29511165737716927","-0.18039523389836834","0.09347924244358309","-0.7873520328180997"
"0.10453950741879278","-0.055797038809198576","0.09374256617688716","0.016577278421591974","0.048130715367848825","0.14446285769284425","-0.1125189553114781","0.07337362154367943","-0.759649890432018"
"0.10432710947390501","-0.09550097303024473","0.0788624243150066","0.05877555611420177","-0.10190268371720515","0.022492298862159157","-0.09557774949012002","0.035306187746650564","-0.7705346260244255"
"0.08825803993175273","-0.020489995378171488","0.007548853944554433","-0.06487615143817056","-0.029102416577375105","-0.06241440819987594","-0.11257468296220662","0.04161887777329354","-0.7789188142510094"
"0.09631588455888386","-0.031380947405894095","6.727144506123521e-05","-0.031562127049099435","-0.05641328659155917","-0.15354388750952402","-0.14350352911633124","0.06688283054449792","-0.7864694866889859"
"0.09877751511969571","-0.031666594693221105","0.023455013082907192","-0.0009220433974847681","-0.09440927063779243","-0.24224891009932292","-0.22152224013574523","0.10573522788715951","-0.8071112600421546"
"0.08088207358453527","0.01994207974620642","-0.016882666138398315","-0.006211967346512027","0.048456203767337856","-0.35262357638435077","-0.30689700105127515","0.13347940160927066","-0.8291749132700074"
"-0.05463378473372236","-0.09474374803947602","-0.24953951848627196","0.37174812139605656","0.32552102394120314","0.012032187842917763","-0.33228094595794894","0.11593315764806864","-0.8321167337003877"
"-0.02852212441932478","0.08553812280798137","0.10572515924873045","0.11916113648964087","0.032121951366510054","-0.4453790677083122","-0.388538009368019","0.08382221193260575","-0.8627770399636854"
"-0.17048983508886484","0.20355303988778406","-0.05540581480594279","-0.4843288224169669","-0.48554341505022974","0.25084530045019243","-0.3571912058334331","0.11689622216623989","-0.8361208781750721"
"-0.1766037378542197","-0.10908012571106661","-0.04264462166721136","0.039426214664860626","-0.05852656789118276","0.2300153584817581","-0.3632376559374377","0.1485058466256685","-0.8264292142016525"
"-0.030399622118921953","-0.06938346251187971","-0.0013344152005540764","0.05311747671835254","-0.08887118125236891","0.30331452395683933","-0.3277391424236044","0.11876958054405244","-0.8312178441244381"
"0.020975454677388573","-0.03871117615740944","-0.07260316959898643","-0.018812434103849918","0.06983552636024548","0.30904196926098765","-0.2595284979323452","0.08858476386493198","-0.8237162020269682"
"0.09457648403623706","-0.04281826479046764","0.02247133347585463","0.03495424277550897","0.0718889752334924","0.07435747103990673","-0.18685964138283404","0.059547709008837546","-0.8014237405434194"
"0.12455170725783238","-0.07667110384964812","0.08046919050078634","0.08537247654805083","0.008254317825449936","-0.11458512502329818","-0.15116608109145235","0.04031808104053076","-0.7965533933864561"
"0.09149109097045904","0.00728437327843104","0.04608274192336633","0.015646299558943307","0.004470036521979036","-0.0910589153714279","-0.1268688253739774","0.0132981846067429","-0.7941345632548101"
