"AccX","AccY","AccZ","GyroX","GyroY","GyroZ","MagX","MagY","MagZ"
"2.3155","0.8230000000000001","4.8245000000000005","-0.24000000000000002","-0.216","0.242","-14.313","29.679000000000002","1.221"
"-0.855","-0.542","-1.5594999999999999","-1.9665","-1.4889999999999999","-0.0385","-14.945","31.124000000000002","-0.518"
"-0.167","-0.6935","-1.738","-0.716","-0.87","0.064","-15.26","31.301","-1.192"
"0.9784999999999999","1.5345","-0.2955","0.1495","-0.2465","0.23249999999999998","-14.945","30.578","-1.477"
"0.40549999999999997","2.2055","0.36650000000000005","0.5269999999999999","-0.1585","0.4235","-14.629","29.127000000000002","-1.423"
"0.8260000000000001","2.911","1.9385","0.48750000000000004","-0.195","0.7115","-14.629","27.490000000000002","-1.6320000000000001"
"7.8935","3.63","4.656","-0.8985","-1.186","0.827","-14.155000000000001","25.8595","-2.5244999999999997"
"24.4345","6.9190000000000005","7.405","1.755","-1.9104999999999999","1.8860000000000001","-13.524000000000001","23.1405","-4.4990000000000006"
"25.6185","11.425","-5.1055","-0.4475","-0.368","-0.201","-13.208","22.5995","-4.452500000000001"
"17.902","11.219000000000001","-4.3185","1.1215","-0.126","1.2810000000000001","-12.418","21.157","-4.3934999999999995"
"27.680999999999997","-4.547","8.002","1.1239999999999999","1.47","-0.5745","-12.892","22.969","-2.841"
"12.5155","10.45","3.3985","-1.9195000000000002","1.109","-1.887","-14.313","27.859","-1.6155"
"0.3295","4.6605","1.2040000000000002","0.4255","1.738","-0.8220000000000001","-14.155000000000001","28.9535","0.603"
"0.788","3.957","3.799","0.6355","1.7065000000000001","-0.447","-13.839500000000001","28.9585","1.762"
"2.01","2.3115","3.934","0.48750000000000004","-0.156","0.398","-14.155000000000001","28.4075","1.458"
"-0.5875","-0.654","2.042","-0.7210000000000001","-1.1875","0.2975","-14.155000000000001","28.4075","-0.026000000000000002"
"-0.28200000000000003","-0.2465","0.241","-0.34850000000000003","-0.8865","0.321","-14.313","27.859","-0.823"
"1.208","0.0465","-0.4245","-0.134","-0.621","0.46950000000000003","-13.997","27.133499999999998","-1.4285"
"1.9335","1.3820000000000001","-0.128","0.16699999999999998","-0.5525","0.4925","-13.997","25.865","-1.543"
"1.552","2.383","-2.1055","-0.388","-0.969","0.4345","-13.839500000000001","24.951999999999998","-2.637"
"17.023500000000002","4.5649999999999995","7.11","0.623","-1.326","1.0314999999999999","-12.892","22.605","-3.611"
"31.8835","13.442","16.28","-0.44699999999999995","-1.1484999999999999","0.263","-12.892","22.241","-4.625"
"17.9405","12.0745","-12.0365","0.10999999999999999","-0.27049999999999996","0.31","-12.734","22.2435","-5.3195"
"25.732999999999997","-2.0855","5.885","1.437","2.7775","-1.4865","-13.682","25.14","-3.4675"
"11.369499999999999","9.649000000000001","4.668","-2.1189999999999998","1.5739999999999998","-1.9385000000000001","-14.786999999999999","29.3065","-1.7145000000000001"
"-0.7020000000000001","0.313","3.7605","1.0130000000000001","1.8239999999999998","-0.297","-14.155000000000001","29.317500000000003","0.9129999999999999"
"1.6284999999999998","5.288500000000001","4.390000000000001","0.41600000000000004","1.0435","0.186","-13.682","28.5945","2.112"
"0.7115","3.2085","2.42","-0.346","-0.5920000000000001","0.2665","-13.839500000000001","28.592","1.123"
"-1.81","-0.16649999999999998","1.6139999999999999","-0.351","-1.102","0.1095","-14.313","28.587","-0.049"
"0.29100000000000004","-0.2845","0.1335","0.3125","-0.4135","0.4585","-14.155000000000001","27.4975","-0.47050000000000003"
"2.1245000000000003","0.265","0.21749999999999997","0.473","-0.4595","0.694","-13.682","25.868","-0.5609999999999999"
"0.635","1.424","-0.44599999999999995","-0.016","-0.499","0.3675","-13.682","25.868","-1.363"
"1.6665","2.7265","0.28200000000000003","-0.8985000000000001","-1.0305","0.3865","-13.682","24.776","-1.995"
"19.4685","5.8205","7.752000000000001","0.16649999999999998","-1.463","1.155","-12.892","22.244","-3.2935"
"31.5015","13.5275","4.3505","-1.1305","-1.1280000000000001","0.7649999999999999","-12.2605","20.7955","-3.5730000000000004"
"15.3045","9.594","-4.364","2.1425","-0.33749999999999997","0.5525","-12.2605","20.613500000000002","-4.649"
"25.9625","1.484","5.907","-0.2645","2.4345","-1.28","-13.208","24.237499999999997","-2.091"
"10.262","8.19","3.7485","-1.5225","1.4765","-2.125","-14.471","28.402","-1.1855"
"-0.9695","2.471","1.175","0.5195000000000001","1.4905","-0.705","-14.313","29.1355","0.581"
"2.0484999999999998","3.3899999999999997","5.4255","0.2855","1.2665","-0.2955","-13.997","29.502","1.73"
"0.09999999999999998","3.1734999999999998","3.315","-0.3805","-0.23550000000000001","0.1955","-14.155000000000001","29.502","1.3980000000000001"
"-1.5425","0.3155","1.913","-0.3015","-0.6990000000000001","0.08549999999999999","-14.313","29.497","0.571"
"0.1385","0.905","1.2805","0.379","-0.5525","0.3395","-14.313","28.587","-0.1935"
"1.514","1.0110000000000001","0.20450000000000002","0.49250000000000005","-0.6585000000000001","0.6965","-13.997","26.772","-0.923"
"1.7045","-1.7785","-5.6465","0.039","-1.053","0.5985","-14.155000000000001","25.862499999999997","-2.0295"
"6.250500000000001","1.036","2.661","-0.376","-1.0","0.251","-13.839500000000001","25.498","-2.832"
"31.1575","8.0355","18.1205","-1.0855000000000001","-0.6225","0.4","-14.312999999999999","25.131999999999998","-2.816"
"25.389499999999998","14.168","-6.579000000000001","-2.5484999999999998","-2.294","-0.294","-13.839500000000001","24.591","-4.284"
"21.0345","9.1665","-3.0045","3.516","1.5805","0.9705","-13.366","24.053","-3.568"
"24.701999999999998","-1.23","9.5935","1.8165","3.2855","-1.5775","-14.155000000000001","27.133499999999998","-0.9455"
"7.4345","8.942","5.0305","-1.1455","1.5699999999999998","-1.4085","-14.313","29.497","0.5609999999999999"
"0.1765","1.9095","3.286","0.675","1.2280000000000002","-0.2925","-13.997","29.32","1.75"
"1.972","2.4595000000000002","4.541","0.5565","0.14750000000000002","0.48549999999999993","-13.839500000000001","28.41","2.1245000000000003"
"0.7115","0.6425","1.9255","-0.6965","-0.7","0.027499999999999997","-14.155000000000001","28.9535","1.0979999999999999"
"-1.275","0.129","-0.4835","-1.022","-0.9264999999999999","0.039","-14.471","29.494","0.243"
"-0.39649999999999996","0.981","0.9375","-0.6545","-0.5369999999999999","0.1585","-14.629","29.491","-0.091"
"1.399","1.4955","1.733","0.051000000000000004","-0.446","0.303","-14.313","28.587","-0.698"
"0.9404999999999999","2.3525","1.1945000000000001","0.719","-0.493","0.4505","-14.155000000000001","27.4975","-1.131"
"1.4369999999999998","1.2355","-3.3249999999999997","0.192","-1.009","0.5915","-14.155000000000001","25.8595","-2.6895"
"16.1065","3.239","4.12","-0.092","-1.5365000000000002","1.232","-13.05","23.148","-3.678"
"29.935499999999998","10.839","20.0045","-0.4125","-1.3225","-0.3185","-13.524000000000001","23.32","-5.179"
"19.124499999999998","12.405000000000001","-9.341999999999999","-0.9279999999999999","-1.3265","-0.1655","-13.839500000000001","24.045","-6.7285"
"21.6455","4.7705","3.9719999999999995","1.1484999999999999","1.932","-1.621","-14.629","26.944","-4.9005"
"14.158000000000001","10.533000000000001","3.976","-1.2189999999999999","2.3194999999999997","-1.7850000000000001","-15.418","30.934","-2.4935"
"0.8260000000000001","2.204","2.192","0.44799999999999995","1.65","-0.7095","-14.9445","31.121000000000002","-0.353"
"1.3225","0.008499999999999994","5.0489999999999995","1.0030000000000001","1.27","0.5105","-13.997","29.502","1.2349999999999999"
"2.6215","1.1935","5.383","0.776","0.522","0.1735","-13.997","29.1355","1.43"
"-1.4275","0.20350000000000001","0.18799999999999997","-1.002","-1.0865","0.185","-14.313","29.497","0.39599999999999996"
"-0.16749999999999998","1.0534999999999999","0.1145","-0.711","-0.6635","0.209","-14.629","29.491","-0.10300000000000001"
"1.5135","1.16","1.0995","-0.193","-0.728","0.534","-14.471","28.584000000000003","-0.845"
"0.444","2.168","-0.009000000000000008","0.0535","-0.8465","0.6515","-14.313","27.131","-1.607"
"3.8440000000000003","1.8615","-1.791","-0.4445","-0.8575","0.6759999999999999","-13.997","25.862000000000002","-2.5324999999999998"
"22.0275","4.0635","12.441500000000001","0.337","-1.317","0.9775","-13.839500000000001","24.4065","-3.427"
"27.6815","10.6725","2.3964999999999996","-2.5065","-1.915","0.105","-13.839500000000001","24.0425","-4.5415"
"17.902","11.256","-6.343500000000001","0.983","-0.8325","0.882","-13.682","23.137999999999998","-5.336"
"26.3065","2.6355","5.439500000000001","1.945","2.3565","-1.371","-14.313","25.857","-3.681"
"16.412","5.199","6.744","-0.7035","1.9665","-1.206","-14.786999999999999","28.579","-1.6945000000000001"
"3.5380000000000003","4.649","3.101","0.5025","1.7814999999999999","-1.115","-14.786999999999999","29.8525","-0.115"
"-0.587","3.213","3.3049999999999997","1.129","1.819","-0.325","-13.839500000000001","29.502000000000002","1.897"
"1.9335","3.6494999999999997","5.261","0.5025","0.485","0.28300000000000003","-13.682","28.779","2.609"
"-0.5875","0.34950000000000003","1.9929999999999999","-0.4225","-0.75","0.1055","-13.997","28.774","1.605"
"-0.702","-0.431","1.3275000000000001","-0.139","-0.6599999999999999","0.167","-14.313","28.769","0.953"
"1.0935","-0.32599999999999996","0.5545","0.009000000000000001","-0.5435000000000001","0.34199999999999997","-14.155000000000001","28.0435","0.314"
"1.437","-0.10350000000000001","-1.2114999999999998","-0.225","-0.6990000000000001","0.2625","-14.471","27.674500000000002","-0.65"
"1.5514999999999999","2.0549999999999997","-4.086","-0.151","-1.0145","0.1935","-14.629","27.308","-2.1145"
"14.540499999999998","2.2110000000000003","5.304","-0.605","-0.899","0.243","-14.313","26.4055","-2.39"
"33.068","14.513000000000002","18.5865","-1.229","-0.40149999999999997","0.13999999999999999","-14.945","27.299500000000002","-2.9480000000000004"
"22.4095","15.0765","-14.1975","-2.415","-1.7285","0.3885","-14.629","26.216","-3.903"
"25.351","3.457","4.379","3.4000000000000004","2.4945","-0.47650000000000003","-14.313","26.948999999999998","-1.5975000000000001"
"15.113","5.5095","8.579","0.0685","2.6135","-1.572","-14.629","29.855","0.7015"
"1.6284999999999998","1.3085","3.3810000000000002","0.028999999999999998","1.1715","-0.733","-14.629","30.95","1.639"
"1.2845","0.3055","4.4855","-0.277","0.09999999999999999","0.29300000000000004","-14.313","30.589","1.993"
"0.482","0.6435","-0.698","-0.5385","-0.6535","-0.01","-14.786999999999999","31.1265","0.639"
"-0.5875","-0.4685","-0.4335","-0.716","-1.0035","-0.0195","-15.26","31.665","-0.562"
"0.597","1.7585","0.15","-0.47150000000000003","-0.6194999999999999","0.131","-15.26","31.665","-1.387"
"1.399","3.8755","1.478","0.13949999999999999","-0.63","0.488","-15.1025","30.391","-2.099"
"-0.052500000000000005","4.5875","1.123","0.3565","-0.5955","0.9954999999999999","-14.786999999999999","28.397","-2.0140000000000002"
"6.7855","4.0424999999999995","2.4185","-0.055","-0.6890000000000001","1.4","-13.997","25.316","-2.5164999999999997"
"28.4455","2.2190000000000003","11.9155","2.263","-1.7000000000000002","1.705","-13.524000000000001","22.7765","-4.654"
"29.8975","5.561","-4.054","-1.367","-0.507","-0.14400000000000002","-13.208","22.5995","-4.625"
"17.2145","14.796","-2.878","-0.659","-0.6465","-0.47","-13.682","24.409","-4.9135"
"24.0905","3.945","3.034","0.46299999999999997","1.767","-1.2955","-14.313","26.767","-3.5665"
"13.05","9.3255","5.875500000000001","-0.5165","2.1","-1.8555000000000001","-14.945","29.85","-1.7570000000000001"
"0.329","0.8670000000000001","2.5995","1.1139999999999999","1.7925","-0.5715","-14.471","30.225","0.374"
"2.0865","1.3815","4.964","0.3645","1.036","-0.0335","-13.997","29.866","1.875"
"1.4755","2.7595","3.106","-0.886","-0.518","-0.012","-14.471","30.768","0.9929999999999999"
"-1.084","1.021","0.8165","-1.1600000000000001","-1.087","-0.075","-14.945","31.306","-0.20800000000000002"
"-0.167","0.9425","0.865","0.009000000000000001","-0.548","0.3375","-14.945","30.575499999999998","-0.84"
"0.8260000000000001","1.1995","-0.517","0.5589999999999999","-0.508","0.8105","-14.629","28.399500000000003","-1.1995"
"1.552","1.6440000000000001","-1.266","0.754","-0.389","0.8","-14.313","26.767000000000003","-1.587"
"7.9695","0.8775000000000001","4.11","-0.479","-0.9445","0.501","-13.997","25.862","-2.5345"
"30.9285","6.9635","15.9825","-0.3635","-1.8575","0.946","-13.839500000000001","24.77","-3.779"
"27.07","13.761","-9.202","-1.6485","-1.019","0.139","-13.682","24.0505","-4.5615000000000006"
"20.6905","7.899","0.353","2.2165","0.7315","-0.452","-13.839500000000001","24.955","-4.4495000000000005"
"21.493000000000002","3.21","5.590999999999999","0.026499999999999996","2.5605","-1.1985000000000001","-14.313","27.859","-1.8125"
"6.862","5.493","3.8674999999999997","0.0805","2.099","-1.389","-14.629","29.858","-0.111"
"-0.2435","0.7195","5.4015","0.22849999999999998","1.252","-0.405","-13.997","30.4095","2.162"
"0.864","4.6585","3.8275","-0.055","0.2095","0.295","-13.997","30.23","2.1845"
"-0.7785","0.6855","0.604","-0.563","-1.1975","0.3215","-14.629","29.855","0.7215"
"0.406","-1.2905","0.666","-0.008","-0.895","0.506","-14.313","28.951","-0.2235"
"1.4375","-1.1455000000000002","0.2285","-0.018000000000000002","-0.7035","0.5680000000000001","-14.313","28.041","-0.843"
"1.132","-0.9215","0.40449999999999997","-0.31899999999999995","-0.609","0.271","-14.313","27.677","-1.308"
"0.9405","5.843999999999999","0.9059999999999999","-0.612","-0.7825","0.06","-14.629","27.854","-2.4665"
"12.248000000000001","4.24","2.9475","-1.4925","-1.724","0.7310000000000001","-13.997","26.043999999999997","-3.6870000000000003"
"26.000500000000002","7.2855","13.811","0.483","-1.6735000000000002","1.246","-13.839500000000001","24.773","-4.936"
