"AccX","AccY","AccZ","GyroX","GyroY","GyroZ","MagX","MagY","MagZ"
"0.002679961709313976","-0.00875456609736939","-0.012049976068058207","0.0023942438727112964","-0.0102135588999695","0.0008459532495233285","1.1986690748458646","-0.6963392037738918","0.013127112356500024"
"0.002537464448011223","-0.00891141242604713","-0.011746383999536841","0.001206884791734461","-0.005152453617620704","2.4453149754596637e-05","1.1996721725589716","-0.6956136072191054","0.016809290928526118"
"0.002318904459391446","-0.008521893397873934","-0.012376285910414505","0.0007775947453486906","-0.004305944449243739","0.00024627031111017146","1.1973873388791176","-0.6969460663469861","0.016318987523462718"
"0.00238726463204344","-0.007741816624119076","-0.012529114570758596","-0.0001658998620925634","-0.002196731754613771","0.0004787657603209381","1.1967464708957436","-0.6963260111092594","0.01866754083371638"
"0.0022447673707406877","-0.008131335652292274","-0.012999992064791733","0.002034849447244133","-9.374163232697469e-05","0.0037040940693095488","1.201344002080816","-0.6965107084141142","0.023742181076122526"
"0.0022418789127412967","-0.00758704773025826","-0.01269226949193674","0.0017352417719015633","-0.0022022363378404234","-0.0016617455779243248","1.1970529729747483","-0.6971307636518408","0.022764842955362824"
"0.0025326503513455833","-0.008207162023109992","-0.013297388376812663","0.0005345967464525963","-0.0038875961240181427","-0.0012491753653373692","1.1994771257814234","-0.6955212585666779","0.01960075164802038"
"0.0025345759900118323","-0.00867562357432629","-0.01298553529962405","-0.000581326314246544","-0.004305226460127219","-0.0008259268648952222","1.1981396621639473","-0.6972758829627982","0.021504763204349898"
"0.002318904459391446","-0.008367124504013116","-0.0120664980853927","0.0006835341094843942","-0.004726207412113388","0.0011007760278858598","1.199504989606787","-0.6955344512313105","0.019816485146248276"
"0.0026761104319814604","-0.008051354411840711","-0.012981404795290422","0.0010230958932033025","-0.006838531392914943","0.0013007512368103605","1.1988362577980491","-0.6962468551214644","0.021091273999413095"
"0.002243804551407563","-0.008053431846657634","-0.012999992064791733","0.0009727440891531213","-0.0038861601457851024","-0.0025327541032034917","1.1992263513531463","-0.6959038458410199","0.021099445722830824"
"0.0023083134467270423","-0.00806174158592533","-0.012062367581059077","-0.0003454526623862305","-0.0060121259198005345","0.0004763388767174856","1.2036288357606704","-0.6987534614016362","0.0197184244652356"
"0.00252494779668057","-0.008371279373646965","-0.012671616970268623","0.00043639628731075144","-0.007703708278321425","-0.0008225292278503884","1.1985576195444083","-0.6963523964385244","0.02000280044017237"
"0.0025259106160136946","-0.008603952073142422","-0.012826510882779524","0.0005104317315069069","-0.006860549725821553","0.0006814105412092368","1.1988641216234133","-0.6968141397006612","0.018721474208273352"
"0.0023083134467270423","-0.008060702868516869","-0.012372155406080882","0.00043543353771132153","-0.00727961604016367","-0.0008176754606434828","1.1981675259893116","-0.6953365612618232","0.020203824836248357"
"0.0022370648160756745","-0.008217549197194609","-0.012374220658247694","0.0005447056172466097","-0.005595213572807977","-0.0033760961554032973","1.2014275935569085","-0.6987930393955337","0.021380553008400503"
"0.00252494779668057","-0.008216510479786146","-0.012052041320225018","-0.0010265017290229071","-0.001377984832075575","0.0005081310519227155","1.2004802234945295","-0.6960093871580798","0.019839365971817898"
"0.002533613170678708","-0.008365047069196193","-0.012522918814258155","0.0010471646331890489","-0.006838292063209436","-0.001484340386511934","1.2007867255735345","-0.6972626902981657","0.02071700906688138"
"0.002533613170678708","-0.008365047069196193","-0.012522918814258155","0.0006996120277948726","-0.00641563580328472","-0.0008390320363538667","1.1982789812907677","-0.6958378825178575","0.01892249860434935"
"0.0022447673707406877","-0.008131335652292274","-0.012999992064791733","-0.00012584947875628148","-0.005147667023510572","-0.004255356084934203","1.1970529729747483","-0.6983049108041318","0.011152823978778086"
"0.002243804551407563","-0.007975528041022997","-0.012999992064791733","0.0005273761244568723","-0.002197928403141304","-0.000379137593499584","1.1985854833697727","-0.696972451676251","0.011620246558271858"
"0.002533613170678708","-0.00836400835178773","-0.012677812726769058","0.0012050555674955445","-0.007680732626592789","8.678406332154234e-06","1.1984183004175881","-0.6985687640967815","0.019365406013589943"
"0.0023891902707096893","-0.008208200740518453","-0.012993796308291297","7.796461144301787e-05","-0.004725010763585855","0.0019574659399046557","1.2006474064467143","-0.696866910359191","0.01899114108105823"
"0.0021013072901047932","-0.008211316892743839","-0.012541506083759466","0.00034262447632628395","-0.005776146830170993","0.0008796869316113208","1.1983068451161318","-0.6980146721822172","0.018069370679539044"
"0.0023891902707096893","-0.008287143263561555","-0.012529114570758596","0.0015540522972888654","-0.008101952908284466","-0.0008501957009297488","1.1982232536400397","-0.6968009470360287","0.02279589550435017"
"0.002533613170678708","-0.008365047069196193","-0.012368024901747258","-0.0003116601514462428","-0.009784201408290599","-0.003004297587354347","1.1993935343053306","-0.6976584702371401","0.022831851087388152"
"0.0023911159093759553","-0.008521893397873934","-0.012372155406080882","0.0006834378345244511","-0.0034632645561548793","0.00132283587760178","1.1987526663219572","-0.6958642678471225","0.020010972163590088"
"0.0025326503513455833","-0.008208200740518453","-0.012987600551790863","0.0008573104121814822","-0.004940646828247333","0.0008850260755389166","1.1970808368001125","-0.6946373500363017","0.018886543021311368"
"0.00252494779668057","-0.008371279373646965","-0.012671616970268623","-0.0005082536196498183","-0.001801598410822317","7.566039378744802e-05","1.2008145893988988","-0.695824689853225","0.019201971545235483"
"0.00252494779668057","-0.008371279373646965","-0.012671616970268623","0.00036332359271402573","-0.005597606869863044","-0.0020925174175371757","1.1979167515610347","-0.6985819567614139","0.02085102533093204"
"0.002381487716044676","-0.008371279373646965","-0.012987600551790863","-0.00035007386046349387","-0.005170403345533702","0.0013366691141414601","1.1974709303552098","-0.696866910359191","0.020618948385868696"
"0.002526873435346819","-0.008528125702324705","-0.012052041320225018","0.0008477791911471268","-0.004332988705965988","0.0013424936347897468","1.1989477130995054","-0.6980278648468496","0.019371943392324127"
"0.002381487716044676","-0.008371279373646965","-0.012677812726769058","0.0005384477448503156","-0.0026471502603772562","-0.0022854546640116635","1.198111798338583","-0.6983312961333967","0.018059564611437776"
"0.0023805248967115515","-0.008060702868516869","-0.012368024901747258","0.0005091801570276482","-0.0005381768954527957","0.0011573224158463072","1.1996443087336073","-0.6963128184446268","0.018741086344475896"
"0.002533613170678708","-0.00836400835178773","-0.01283270663927996","0.0008416175937107757","-0.006624809965897518","0.002585786104838554","1.1969415176732923","-0.6970779929933109","0.021040609314223215"
"0.002099381651438544","-0.00774285534152754","-0.012696399996270369","0.0008629906348181184","-0.005146231045277532","2.9792293682192398e-05","1.1974987941805737","-0.698172984157807","0.017618291546880722"
"0.002533613170678708","-0.00836400835178773","-0.01314249446430176","0.00010549924998671167","-0.0005154405734296643","-0.0007977750150951711","1.1959662837855496","-0.6961545064690372","0.018644660008146758"
"0.002535538809344957","-0.00867666229173475","-0.012365959649580446","0.0005262208249375565","-0.005150778309682158","-0.0004031637411737654","1.1998950831618844","-0.6982125621517045","0.01854333063776699"
"0.0025345759900118323","-0.008366085786604655","-0.012058237076725454","0.0010415806855123557","-0.005995133510709564","-0.0008356343993090329","1.1968579261971997","-0.6992152046637732","0.01867734690181765"
"0.0023891902707096893","-0.008209239457926915","-0.012529114570758596","-0.0004812003559058396","-0.007254007761674459","-0.002985610583607761","1.1937929054071514","-0.696866910359191","0.02030842289599522"
"0.0025239849773474455","-0.008059664151108406","-0.012516723057757721","9.230958047452271e-05","-0.006016912513910667","-0.0005948875458465272","1.2008145893988988","-0.6975133509261828","0.01877704192751388"
"0.0023805248967115515","-0.008215471762377686","-0.012987600551790863","-0.0005228874135611521","-0.006855045142594901","0.001325505449565578","1.1978888877356708","-0.6982257548163369","0.020419558334476253"
"0.002381487716044676","-0.008371279373646965","-0.012987600551790863","0.0008638571094576051","-0.00896760845310196","-0.0008312660088228179","1.2021520530163743","-0.6984236447858241","0.02053723115169146"
"0.002383413354710942","-0.008606029507959346","-0.012365959649580446","-0.0003246572710385458","-0.005172078653472249","-0.0016619882662846702","1.2001179937647968","-0.6965239010787466","0.02004529340194453"
"0.002381487716044676","-0.008294414285420788","-0.012522918814258155","0.00033761817840924867","-0.007489986851304001","0.0006787409692454388","1.194768139294894","-0.6971835343103708","0.0203296693768813"
"0.002381487716044676","-0.008371279373646965","-0.012987600551790863","-0.0001329738257920625","-0.0026461929415552295","-0.003784783354224729","1.197415202704481","-0.6958378825178575","0.02039994619827372"
"0.00252494779668057","-0.008371279373646965","-0.012671616970268623","0.0008733883304919608","-0.005177583236698901","-0.001661017512843289","1.1985576195444083","-0.6966822130543364","0.019788701286628022"
"0.0025239849773474455","-0.008058625433699946","-0.012981404795290422","0.00032067378545928333","-0.0028558457635790417","0.0030677651884842565","1.1976381133073941","-0.6959434238349174","0.0180383181305517"
"0.002379562077378427","-0.007903856539839127","-0.012677812726769058","0.0007581472034402076","-0.003909375127219246","0.0017766631114474309","1.198641211020501","-0.6988985807125935","0.020012606508273637"
"0.002309276266060167","-0.008216510479786146","-0.012681943231102681","0.0007594950528794094","-0.003065977245013867","0.0017810315019336459","1.199421398130695","-0.6983972594565592","0.020246317798020518"
"0.0022341763580762835","-0.00767118384034367","-0.012686073735436305","0.0008507637149053592","-0.003486958197000036","0.00092434158991485","1.1956319178811803","-0.6975661215847127","0.021431217693590392"
"0.0023805248967115515","-0.008601874638325499","-0.014381645764388969","0.00033665542880981887","-0.005805345054242802","0.0013303592167724831","1.1979724792117628","-0.6982653328102343","0.02171232497916007"
"0.0026067874399963416","-0.010242009426286775","-0.012043780311557771","0.0014809796026921398","-0.008973591695739629","-0.002553139925472494","1.20184555093737","-0.6981334061639095","0.02203429088181837"
"0.00223610199674255","-0.00798383778029069","-0.012374220658247694","0.0010279096412004517","-0.006015955195088641","4.8479297428778195e-05","1.1962727858645545","-0.6968405250299262","0.019940695342197667"
"0.00252494779668057","-0.008215471762377686","-0.012516723057757721","-0.0001830368049624147","-0.004329398760383389","0.0017718093442405257","1.1977774324342143","-0.6993603239747304","0.012888498032702504"
"0.002379562077378427","-0.008059664151108406","-0.01283270663927996","-6.85362826675198e-06","-0.007699639673327813","0.0008923067263492747","1.1957433731826366","-0.6986215347553113","0.011540163668778169"
"0.002379562077378427","-0.00790593397465605","-0.012058237076725454","-0.0010169705079885517","-0.007697246376272746","-0.0012482046118959885","1.1930963097730496","-0.6989645440357559","0.017922279658020023"
"0.002306387808060793","-0.007903856539839127","-0.013146624968635383","0.0011960057212609039","-0.006438850784718863","0.00047366930475368737","1.1993656704799667","-0.6997165259198074","0.018958454187387338"
"0.002526873435346819","-0.008682894596185521","-0.012359763893080007","0.0012081363662137198","-0.00602098111890428","-0.0008116082516348514","1.1962727858645545","-0.698529186102884","0.01930003222624817"
"0.00252494779668057","-0.008216510479786146","-0.012052041320225018","-0.0005279899864381303","-0.0017999231028837707","0.0022183559272758186","1.2000344022887048","-0.7006795904379787","0.022421630571818455"
"0.0021648533660911648","-0.008060702868516869","-0.012533245075092219","0.00026348645925315016","-0.0034850435593559827","-0.0003623920966357606","1.1973594750537533","-0.6968273323652938","0.019110448242956993"
"0.0022370648160756745","-0.008217549197194609","-0.012374220658247694","0.001909788274278195","-0.0064419620708904505","-0.002953575720042186","1.1977217047834863","-0.6993207459808329","0.017405826738019922"
"0.0025259106160136946","-0.008371279373646965","-0.012516723057757721","0.00085788806194114","-0.006019305810965734","4.62951021856707e-05","1.1986969386712287","-0.6977376262249351","0.02108473662067892"
"0.0023805248967115515","-0.008215471762377686","-0.012677812726769058","0.0005150529295841703","-0.006437654136191331","4.386821858221812e-05","1.1993656704799667","-0.69771124089567","0.01981321645688118"
"0.00252494779668057","-0.008215471762377686","-0.012671616970268623","0.0013795057949122335","-0.004757320273829252","-0.0008006872754193143","1.1944616372158896","-0.6992283973284056","0.015163505832196653"
"0.0022332135387431594","-0.007592241317300568","-0.01299586156045811","0.0005019595350319243","-0.0026428423256781367","0.0017868560225819323","1.194071543660792","-0.6975529289200803","0.015792728535361348"
"0.002304462169394544","-0.007203761006535834","-0.012374220658247694","0.0017699970324409808","-0.0013822927667746945","0.003511399511195406","1.1956040540558162","-0.6990568926881834","0.020359087581185098"
"0.002671296335315838","-0.00883766349004634","-0.012663355961601376","0.0013846083677892115","-0.007498363390996733","-0.0014656533827653482","1.1944616372158896","-0.7009038657367308","0.019687371916248243"
"0.0020907162774404064","-0.0077501263633867725","-0.012537375579425842","-0.00015386549209969028","-0.00306214796972576","-0.0016428158858173938","1.198613347195137","-0.6993867093039954","0.019151306860045604"
"0.0026674450579833226","-0.008057586716291483","-0.01313010295130089","0.0003305901063334108","-0.004754448317363171","0.001769382460637073","1.195018913723171","-0.7001386911880468","0.022496810427261503"
"0.002668407877316447","-0.008214433044969223","-0.012975209038789987","-0.00016551476225279134","-0.0064393294441298776","-0.0003849621141478704","1.1913130249497488","-0.7008642877428335","0.024549547349793584"
"0.0025952336079988134","-0.008058625433699946","-0.012979339543123612","-0.0012563100584068127","-0.006225847346817959","-0.0029523622782404602","1.1975823856566659","-0.7002838104990042","0.02084775664156495"
"0.002306387808060793","-0.007749087645978311","-0.012681943231102681","-0.00034314206334759887","-0.002852255817996442","0.0004998796476709766","1.1984183004175881","-0.7003101958282691","0.0217319371153626"
"0.0025259106160136946","-0.008371279373646965","-0.012361829145246823","0.001039847736233382","-0.006020502459493267","-0.0012384970774821777","1.19836257276686","-0.700442122474594","0.020653269624223144"
"0.0022370648160756745","-0.008294414285420788","-0.012529114570758596","-0.00034237186366805505","-0.0034836075811229433","0.0004928416852209638","1.1978052962595787","-0.6980278648468496","0.013746528991563442"
"0.002379562077378427","-0.007903856539839127","-0.012677812726769058","0.0004223401431590756","-0.010229115330827432","0.0004469735851157081","1.1989198492741415","-0.6980146721822172","0.013347748888778545"
"0.0025259106160136946","-0.008371279373646965","-0.012361829145246823","-0.0004995888732549496","-0.004540966220051254","-0.0012283041663476762","1.1942944542637048","-0.6986479200845763","0.01838479920346316"
"0.0022370648160756745","-0.008217549197194609","-0.012374220658247694","0.001013179572329175","-0.006857677769355474","0.0017545784706560117","1.197944615386399","-0.6994262872978929","0.020854294020299122"
"0.0023073506273939177","-0.007904895257247588","-0.012681943231102681","0.00017895704442320927","-0.004329398760383389","-0.0005820250627482282","1.1971922921015687","-0.6997692965783374","0.02083468188409659"
"0.002523022158014321","-0.007748048928569849","-0.012361829145246823","0.002498798479209378","-0.0034970100446313143","-0.0016457281461415374","1.1962449220391904","-0.6998484525661323","0.023820629620932666"
"0.0022370648160756745","-0.008215471762377686","-0.012993796308291297","0.000852978038984048","-0.008122295933252529","0.0004603214449346978","1.1978331600849423","-0.7007191684318762","0.024083759114983345"
"0.0023083134467270423","-0.008060702868516869","-0.012681943231102681","0.0008756026545706494","-0.006228479973578532","-0.0020951869895009735","1.1955761902304525","-0.7003893518160642","0.01950105662232416"
"0.0025971592466650798","-0.008370240656238502","-0.012977274290956799","0.0007830824180654407","-0.00475660228471273","-0.0010159518510455667","1.1970529729747483","-0.6980278648468496","0.019535377860678597"
"0.0023054249887276687","-0.00759328003470903","-0.012681943231102681","-0.00017514225824708988","-0.006855523802005914","0.00047221317459161593","1.1983068451161318","-0.6990832780174483","0.02043263309194461"
"0.0023785992580453025","-0.007903856539839127","-0.012987600551790863","-0.000872172968234302","-0.005168010048478636","0.0021955432214033634","1.1945452286919813","-0.6992811679869355","0.016457906821564016"
"0.0025259106160136946","-0.008527086984916244","-0.012516723057757721","0.001006440325133166","-0.004753969657952158","0.0028384246879579783","1.1946288201680735","-0.6992943606515679","0.017319206469792046"
"0.0023785992580453025","-0.007902817822430665","-0.013299453628979474","-0.00016801791121130903","-0.004329159430677883","5.988565036500561e-05","1.196523560292831","-0.6998088745722348","0.016944941537260335"
"0.0026674450579833226","-0.00813445180451766","-0.013594784688833591","-0.0005202879896426914","-0.00412022459777059","0.001344677830032854","1.1971087006254768","-0.6982257548163369","0.020398311853590173"
"0.002168704643423663","-0.008687049465819371","-0.011137134610327296","0.001445935517272893","-0.0043301167494999085","0.001342736323150092","1.1966628794196514","-0.6991888193345082","0.01888163998726073"
"0.002658779683985185","-0.00696173985036422","-0.01561253605580893","0.004191023450127227","-0.0035039506060910077","0.0009260404084372669","1.1918981652823943","-0.7012864530110728","0.021553793544856238"
"0.0019549587514695256","-0.008692243052861679","-0.009286049093213691","0.002562243677811805","-0.011072273883327304","1.1590666656297414e-05","1.1923718503135838","-0.7003233884929018","0.02328456456473002"
"0.002521096519348055","-0.0075912025998921065","-0.012983470047457235","0.0005284351490162451","-0.006861746374349087","-0.0016695116054553734","1.1938764968832438","-0.699650562596645","0.02310968968359075"
"0.0023805248967115515","-0.008137567956743044","-0.012987600551790863","-0.0003311076933547257","-0.003486240207883516","-0.0007917078060865393","1.189167510396715","-0.7005740491209188","0.02126124584650175"
"0.002238027635408799","-0.008373356808463888","-0.012374220658247694","-0.0005025733970131823","-0.00348384691082845","-0.0007924358711675754","1.1937929054071514","-0.7002706178343716","0.021387090387134676"
"0.002523022158014321","-0.007903856539839127","-0.012671616970268623","0.0005128386055054815","-0.003278980682914771","0.0004959966339054522","1.192511169440404","-0.6998880305600298","0.02565436435586976"
"0.002304462169394544","-0.00728062609476201","-0.012993796308291297","0.0018831201103739884","-0.0030700458500074784","0.00028655657892748607","1.1956319178811803","-0.700415737145329","0.025958352467009064"
"0.0023054249887276687","-0.00759328003470903","-0.012681943231102681","5.9479819133964784e-05","-0.006854566483183887","0.0030420402222876577","1.1912851611243844","-0.7010225997184233","0.024118080353337797"
"0.002309276266060167","-0.008216510479786146","-0.012681943231102681","0.0007814457437464099","-0.008545191522882753","-0.0012557279510666916","1.192455441789676","-0.7001782691819444","0.024363232055869488"
"0.002596196427331938","-0.008058625433699946","-0.01266955171810181","0.00017038857298828363","-0.003910811105452286","0.0004906574899778563","1.190254199585914","-0.7002310398404742","0.026239459752578752"
"0.00223610199674255","-0.008060702868516869","-0.012684008483269494","9.596802895235614e-05","-0.0011683320100517628","-0.0005604257986774992","1.1933192203759624","-0.7002310398404742","0.02589297867966729"
"0.0023054249887276687","-0.007592241317300568","-0.012991731056124486","0.0012162234628489306","-0.002437258108647938","-0.0016379621186104886","1.194071543660792","-0.701233682352543","0.025056194201692424"
"0.0025220593386811796","-0.007669106405526747","-0.012828576134946337","-0.0005137412923665685","-0.004750619042075066","0.0002722379656671152","1.1954647349289957","-0.7001782691819444","0.023369550488274334"
"0.0023785992580453025","-0.007749087645978311","-0.012213130989236355","-0.0003959970163562976","-0.002644517633616684","-0.003353283449530843","1.192956990646229","-0.6987402687370037","0.02695530272397131"
"0.0023083134467270423","-0.008060702868516869","-0.012681943231102681","0.00028062340212300154","-0.005594974243102471","-0.0025189208666638115","1.195018913723171","-0.6984764154443541","0.02356894053966679"
"0.002668407877316447","-0.008215471762377686","-0.012355633388746384","0.0018131282144954381","-0.006446270005589569","-0.0016690262287346828","1.1939043607086082","-0.7006663977733463","0.02311295837295783"
"0.002306387808060793","-0.007748048928569849","-0.012991731056124486","0.0012250807591636854","-0.0034912661316991557","-0.002716711880345205","1.1952696881514475","-0.6999144158892947","0.02616101120776861"
"0.002523022158014321","-0.007980721628065304","-0.012981404795290422","0.0008559625627422804","-0.0030695671905964657","0.0004969673873468332","1.1967464708957436","-0.6992283973284056","0.025770402828401436"
"0.0023073506273939177","-0.007903856539839127","-0.012836837143613583","0.0031796549959261693","-0.00518189117139802","-0.0012300029848700933","1.1912851611243844","-0.6990041220296535","0.024972842622831653"
"0.002523022158014321","-0.007902817822430665","-0.012981404795290422","8.26154044429668e-06","-0.006859592406999527","-0.0008145205119589945","1.1938207692325153","-0.7002838104990042","0.027412919235363806"
"0.002379562077378427","-0.008059664151108406","-0.012677812726769058","0.0008636645595377193","-0.007492619478064575","-0.0008191315908055546","1.1952418243260836","-0.7005740491209188","0.02551707940245201"
"0.00252494779668057","-0.008215471762377686","-0.012671616970268623","0.00035417747151944215","-0.0074930981374755875","-0.0012484473002563334","1.1942944542637048","-0.6991624340052431","0.023980795399920044"
"0.0025239849773474455","-0.008058625433699946","-0.012981404795290422","0.00050956525686742","-0.003911050435157792","0.0009190024459872542","1.1948517307709865","-0.700415737145329","0.02572137248789509"
"0.002379562077378427","-0.007981760345473767","-0.012987600551790863","0.0006803570358062756","-0.004120463927476096","0.000918031692545873","1.1963285135152821","-0.7014051869927652","0.024474367494350533"
"0.002306387808060793","-0.007747010211161387","-0.013301518881146286","-0.00019083507671779643","-0.004747747085608985","0.0026275285028179406","1.1908672037439234","-0.6996637552612776","0.02431747040473024"
"0.002668407877316447","-0.008059664151108406","-0.012355633388746384","-0.0013677964620207894","-0.0051708820049447156","5.3333064635683564e-05","1.1903377910620059","-0.6984236447858241","0.01719989930789328"
"0.002091679096773531","-0.00798279906288223","-0.012690204239769928","-0.0005836369132851757","-0.0068531305049508474","-0.0016709677356174448","1.1949353222470784","-0.6990964706820807","0.0162519793914374"
"0.00252494779668057","-0.008215471762377686","-0.012361829145246823","-0.0005200954397228054","-0.006856959780238954","0.0008974031819165253","1.198613347195137","-0.6992152046637732","0.024745668711818936"
"0.002669370696649589","-0.008292336850603864","-0.012510527301257285","-0.00033996498966948037","-0.005174471950527315","5.236231119430236e-05","1.1959941476109135","-0.6990700853528159","0.020584627147514255"
"0.002379562077378427","-0.008059664151108406","-0.012677812726769058","0.0005437428676471797","-0.0018049490266994108","-0.002920570103035229","1.1934306756774185","-0.6979355161944223","0.023093346236755297"
"0.0023805248967115515","-0.008137567956743044","-0.012987600551790863","0.0006979753534758419","-0.003278980682914771","-0.001004060121388649","1.1915916632033894","-0.6999671865478246","0.0176689562320706"
"0.0025971592466650798","-0.008292336850603864","-0.012667486465935","0.0007191558446632986","-0.0018082996425765028","-0.0033501285008463535","1.1974709303552098","-0.6993867093039954","0.019334353464602598"
"0.00223610199674255","-0.00806174158592533","-0.012374220658247694","0.0008492233155462715","-0.00643621815795829","0.0009017715724027402","1.196412104991375","-0.6984236447858241","0.021455732863843554"
"0.002379562077378427","-0.008059664151108406","-0.012987600551790863","0.0004977234367944329","-0.010228636671416418","0.0017307950113421753","1.1942665904383407","-0.7004817004684915","0.022692931789286854"
"0.00252494779668057","-0.008292336850603864","-0.012826510882779524","0.0012092916657330357","-0.003914161721329378","-0.0007951054431313731","1.1949353222470784","-0.6980938281700121","0.022272905205615878"
"0.002523022158014321","-0.007902817822430665","-0.012981404795290422","0.0001578728281956955","-0.0009596365068499784","0.002225393889725831","1.1926504885672244","-0.6989249660418585","0.022212434452324733"
