"AccX","AccY","AccZ","GyroX","GyroY","GyroZ","MagX","MagY","MagZ"
"0.001919334436143833","-0.006799699934644169","-0.0042030504602559625","0.0004889624154396213","-0.007966731624673217","0.00012128580553235855","0.8824146569635976","0.9703428899061789","0.39592986151506204"
"0.0016304886362058127","-0.006954468828504987","-0.00359731199973","0.0009204667859040805","-0.00579840449278311","0.0010148643483236352","0.882553976090418","0.9700130732903669","0.3941974561505047"
"0.0017749115361748314","-0.006954468828504987","-0.003746216680957147","-4.045358928685373e-05","-0.007296369119549135","0.0016674533492920605","0.8819409719324085","0.9693006694002129","0.39506365883278344"
"0.0016304886362058127","-0.006797622499827248","-0.004059308909445847","0.00013149348917131768","-0.007070202547845365","0.0021084181000394124","0.8831112525976994","0.9699998806257344","0.3955049318973405"
"0.001847122986159341","-0.006955507545913449","-0.0032809153677743996","0.00014266138452470383","-0.006039648835933798","0.00013754592567549154","0.8835292099781605","0.9693138620648453","0.3957500835998722"
"0.0016314514555389372","-0.006954468828504987","-0.003288763326008286","0.00013544076252898","-0.00795093586410978","0.0010051568139098244","0.8837799844064376","0.9689708527844009","0.394900224364429"
"0.001919334436143833","-0.007110276439774265","-0.003741879651406841","0.0004795274693652087","-0.00664036639675545","0.0021062339047963046","0.8826654313918747","0.9689444674551357","0.39769495377329034"
"0.0016314514555389372","-0.006642853605966429","-0.003904208471718265","-0.00020835711942741972","-0.0053795775081465005","0.0010243291943771004","0.8809100103939375","0.971028908467068","0.3960932959834165"
"0.0015582771862213034","-0.006953430111096525","-0.003908545501268569","0.00013544076252898","-0.007516552448615238","0.0012284301054274708","0.8839750311839858","0.9699998806257344","0.39661628628215084"
"0.0017749115361748314","-0.006953430111096525","-0.004209246216756398","0.00021313465520296897","-0.008773272732230573","0.002753483761837134","0.881773788980224","0.9689444674551357","0.3965999428353153"
"0.0017749115361748314","-0.006954468828504987","-0.003746216680957147","0.0004922357640776828","-0.0066877536784457625","-0.00030730183883738443","0.8788759511423602","0.9696304860160249","0.39717196347455597"
"0.0016304886362058127","-0.007187141528000444","-0.003598551151030086","0.0003168227870615639","-0.00495931454527685","0.00036591567276038844","0.883919303533258","0.9693138620648453","0.39597889185556845"
"0.0016314514555389372","-0.006642853605966429","-0.003904208471718265","0.0002189111527995481","-0.009442438588827125","0.001433259081558877","0.886204137213112","0.9693138620648453","0.3964528518137964"
"0.0014870285555699185","-0.006953430111096525","-0.0036024751301470294","0.0016088327494964238","-0.007489508191892987","0.0018788349111527887","0.8808542827432095","0.9703428899061789","0.3954559015568341"
"0.0017749115361748314","-0.006876565022870347","-0.0039002844926013212","0.0013563998045259171","-0.006876584816090498","0.0005641920631624725","0.8805199168388407","0.9696304860160249","0.39851212611506265"
"0.001919334436143833","-0.006799699934644169","-0.0042030504602559625","0.0008381516951528283","-0.010555321719432973","-0.0007764184393847873","0.8847552182941805","0.9686146508393236","0.3966653166226572"
"0.0016304886362058127","-0.006798661217235707","-0.003905034572584988","0.0006572510454199592","-0.0062208214230023194","0.001452431462026153","0.8820245634085004","0.9693006694002129","0.3957173967062013"
"0.0016314514555389372","-0.006642853605966429","-0.004058482808579122","0.0005754173294684219","-0.004085282460766622","0.0010282122081426248","0.8801855509344714","0.971028908467068","0.39607695253658104"
"0.0016304886362058127","-0.007109237722365806","-0.0035981381005967257","0.00013919548596675642","-0.00516202680584097","0.0010240865060167552","0.8823310654875054","0.9689444674551357","0.39790741858215106"
"0.0017749115361748314","-0.007420852944904362","-0.0032858719729747464","0.0006725587640508938","-0.0028343060900834437","-0.0007206001165053758","0.8836685291049808","0.9699998806257344","0.39704121589987246"
"0.0017749115361748314","-0.006954468828504987","-0.003746216680957147","0.0009184450117452778","-0.005790506612501392","0.001452188773665808","0.8820802910592289","0.9708574038268457","0.396550912494809"
"0.001847122986159341","-0.006954468828504987","-0.004206561388939543","-0.00022799721125578863","-0.006597526379469762","0.004526079545798971","0.8831391164230636","0.9701713852659567","0.3959462049618974"
"0.0017749115361748314","-0.006954468828504987","-0.003900491017818004","0.00012176971821707614","-0.01026692942429748","0.0031830421596482587","0.8822753378367771","0.9686014581746912","0.3974824889644295"
"0.0017749115361748314","-0.006954468828504987","-0.0035919423440962904","-0.0009031735053359432","-0.004958117896749318","0.001030153715025387","0.8818573804563161","0.9686014581746912","0.39704121589987246"
"0.001486065736236794","-0.00710716028754888","-0.0042203985784571825","-0.0004702250104723392","-0.006667649983183206","0.0010192327388098498","0.8839750311839858","0.9698283759855121","0.39661628628215084"
"0.0017749115361748314","-0.006798661217235707","-0.0038998714421679586","0.0006638940176560251","-0.006677462501108978","0.00013075065158582399","0.8815787422026754","0.968429953534469","0.3948675374707581"
"0.0017749115361748314","-0.006876565022870347","-0.0037458036305237845","0.0009244140592617428","-0.010553646411494427","-0.000775204997583061","0.8836685291049808","0.9693006694002129","0.39684509453784705"
"0.0016314514555389372","-0.006642853605966429","-0.004212757145439979","-3.0248443532897373e-05","-0.007978219450537536","-0.0003114275409632541","0.8834456185020686","0.9693138620648453","0.3950963457264543"
"0.001919334436143833","-0.006877603740278809","-0.0035863661632458957","0.00014054333540595821","-0.007108016641315413","0.00034892748753621996","0.8841700779615347","0.9703560825708115","0.39530881053531514"
"0.0014870285555699185","-0.006642853605966429","-0.0036008229284135804","0.00023922516934751792","-0.007796089544646987","-0.0020663070746198865","0.8819409719324085","0.9696568713452899","0.39506365883278344"
"0.0017749115361748314","-0.006876565022870347","-0.0037458036305237845","-5.1814034560125976e-05","-0.007037893037601969","0.0038642683871374255","0.8775384875248841","0.9694589813758027","0.39542321466316327"
"0.0016304886362058127","-0.006953430111096525","-0.0037515863365908566","0.0006546516215014986","-0.009228477832104193","0.0012126553620050284","0.8805199168388407","0.971213605771923","0.3958644877277202"
"0.0017749115361748314","-0.006642853605966429","-0.004207594015022949","0.0006807421356460476","-0.004585002885864474","-0.0024895555750620336","0.881439423075855","0.9692874767355802","0.39679606419734076"
"0.0017749115361748314","-0.006799699934644169","-0.003745390580090419","-0.0008950864087007323","-0.005203430844893617","-0.0005082478012032665","0.8805756444895688","0.9679022469491696","0.3955049318973405"
"0.0017739487168417069","-0.0074198142274959","-0.003748901508774002","0.0005014781602322093","-0.008876902494714947","-0.0025167366714207036","0.8805199168388407","0.9679154396138022","0.3950800022796188"
"0.001847122986159341","-0.006799699934644169","-0.003897186614351104","-2.841921929398058e-05","-0.004324612166273257","0.00015016572041344527","0.8771483939697873","0.9683903755405715","0.3980381661568347"
"0.0016304886362058127","-0.006798661217235707","-0.003905034572584988","-0.00012199848035856215","-0.008824010629797981","0.0003421322134465524","0.8836406652796173","0.9703428899061789","0.39702487245303697"
"0.001775874355507956","-0.0066438923233748904","-0.0038988388160845528","-0.00030010715625308456","-0.00751774909714277","0.001447820383179593","0.8815230145519475","0.9687729628149137","0.397466145517594"
"0.0017749115361748314","-0.0072650453336350835","-0.0039023497447681333","0.0004950277379160294","-0.006481930131710057","-0.0007446262641795573","0.883584937628889","0.9705275872110337","0.3965999428353153"
"0.0017749115361748314","-0.006954468828504987","-0.003900491017818004","0.00030517351690846276","-0.010086235496639971","0.0014269491841899","0.8827211590426025","0.9689576601197682","0.39530881053531514"
"0.0016314514555389372","-0.006798661217235707","-0.0037507602357241313","0.0010152976214479208","-0.007119983126590745","-0.0007509361615485343","0.877427032223428","0.9687729628149137","0.39434454717202383"
"0.0016314514555389372","-0.006954468828504987","-0.003288763326008286","-2.841921929398058e-05","-0.007558674476784406","-0.0007472958361433554","0.8803248700612918","0.9696304860160249","0.39699218555936605"
"0.001919334436143833","-0.0066438923233748904","-0.00404795002252838","0.0003112388393848708","-0.006230394611222585","0.0012315850541119594","0.8807985550924814","0.9680869442540244","0.39442626440620104"
"0.0016314514555389372","-0.006954468828504987","-0.003288763326008286","-0.00020306199663055558","-0.006264379429404527","-0.0002983223695046098","0.8836406652796173","0.9686278435039563","0.39359274861759325"
"0.001559240005554428","-0.006798661217235707","-0.0032904155277417354","-1.6866224100822423e-05","-0.003723655275746097","-0.002037669848099145","0.8802134147598356","0.9699866879611019","0.39610963943025196"
"0.0017036629055234467","-0.006721796129009531","-0.0037476623574739134","-0.0012545771091278387","-0.006239010480620824","0.0014633524382416901","0.8833341632006122","0.9703560825708115","0.39442626440620104"
"0.0016304886362058127","-0.006876565022870347","-0.0035968989492966372","-0.00012180593043867607","-0.005379098848735487","0.0010240865060167552","0.8801298232837435","0.9691291647599907","0.39525978019480873"
"0.0015582771862213034","-0.006953430111096525","-0.0037540646391910314","-0.00038088184764524904","-0.0071099312789594665","0.0003562081383465779","0.8842536694376266","0.9705143945464013","0.3987736212644298"
"0.0017749115361748314","-0.007109237722365806","-0.004210072317623124","-0.001429123611504471","-0.004511528666273938","0.002134143066236011","0.8824703846143258","0.9694721740404351","0.39615866977075825"
"0.0016304886362058127","-0.007186102810591982","-0.003907099824751802","0.0009947910549800648","-0.008765374851948856","0.002750571501512991","0.8827768866933308","0.9682452562296142","0.3983650350935436"
"0.001847122986159341","-0.007109237722365806","-0.0038988388160845528","0.000658406344939275","-0.006441244081773929","0.0012294008588688518","0.8780679002068019","0.9704880092171363","0.3969268117720243"
"0.0017749115361748314","-0.006876565022870347","-0.0039002844926013212","-2.716764481472186e-05","-0.0071302743039275305","-0.0007460823943416287","0.8806035083149325","0.9692742840709478","0.3991822074353159"
"0.0017749115361748314","-0.006876565022870347","-0.004208833166323037","0.00048549651688167383","-0.004936338893548214","0.0014606828662778921","0.88249824843969","0.9699734952964695","0.39962348049987295"
"0.001847122986159341","-0.007109237722365806","-0.0038988388160845528","-0.00048235565542515524","-0.004901636086249752","0.0036613809178887816","0.8826375675665104","0.9692742840709478","0.4005223700758225"
"0.0017749115361748314","-0.007187141528000444","-0.0035931814953963762","0.0006645679423756261","-0.005819465506867694","0.00013681786059445566","0.8809378742193017","0.9705143945464013","0.39610963943025196"
"0.002063757336112852","-0.00695654626332191","-0.003581616083262229","0.0013374336374171489","-0.007885359524800961","0.0038467948251925664","0.8820245634085004","0.9682452562296142","0.3983486916467081"
"0.001559240005554428","-0.006798661217235707","-0.003598964201463449","-0.0002087422192671917","-0.005379338178440993","0.0010252999478184816","0.8827490228679665","0.9694589813758027","0.39856115645556894"
"0.002063757336112852","-0.006722834846417993","-0.00419747427940557","-0.0002248201375776701","-0.007903787912124972","0.003636626705133564","0.8842536694376266","0.971385110412145","0.39896974262645507"
"0.0016304886362058127","-0.006954468828504987","-0.00359731199973","0.00029997466907154155","-0.006188990572169937","0.0032111940094483094","0.883584937628889","0.9684431461991014","0.3959952353024038"
"0.0016314514555389372","-0.006798661217235707","-0.0037507602357241313","0.0011797352530305393","-0.007083126351942723","0.0010044287488287884","0.8823589293128696","0.968073751589392","0.39792376202898655"
"0.0016314514555389372","-0.006565988517740251","-0.003749521084424045","-2.8996869053638485e-05","-0.008416432141320183","-0.0007533630451519874","0.8832227078991561","0.9673877330285029","0.3960115787492393"
"0.0016314514555389372","-0.006642853605966429","-0.003904208471718265","-0.000723235605202504","-0.007779097135556016","-0.0007448689525399025","0.8834456185020686","0.9682584488942466","0.397940105475822"
"0.0016314514555389372","-0.0063321732290954865","-0.00421110494370653","-2.591607033546297e-05","-0.006271080661158713","-0.0007392871202519612","0.8830276611216076","0.970316504576914","0.4009309562467087"
"0.0017749115361748314","-0.007110276439774265","-0.0032842197712412997","0.00014102471020567312","-0.009265334606752215","-0.00032234851717879135","0.8841143503108062","0.9693006694002129","0.3974988324112649"
"0.0019183716168107085","-0.007188180245408906","-0.0038965670387010607","0.0011858005755069473","-0.0053822101349070735","0.000354509319824161","0.8856468607058305","0.9698283759855121","0.39795644892265747"
"0.0016304886362058127","-0.006953430111096525","-0.0037515863365908566","-3.255904257152899e-05","-0.009480013352591667","-0.00032113507537706506","0.8851453118492772","0.9679154396138022","0.3964691952606318"
"0.001775874355507956","-0.0066438923233748904","-0.0038988388160845528","0.0011991827949390222","-0.006725567771915812","-0.0025072718253672382","0.882553976090418","0.9701713852659567","0.39700852900620154"
"0.0017749115361748314","-0.007109237722365806","-0.004210072317623124","0.0002207403770384648","-0.008370720167568416","0.0014393262905675085","0.8832227078991561","0.969115972095358","0.3992312377758223"
"0.0017749115361748314","-0.006798661217235707","-0.004054145779028816","0.00022642059967510093","-0.005376466221974914","0.0010202034922512308","0.888043149687141","0.9694853667050677","0.3993129550099995"
"0.001847122986159341","-0.007109237722365806","-0.004207387489806268","-2.8708044173809576e-05","-0.008846507622115604","-0.0007584595007192376","0.885005992722457","0.9677307423089474","0.39843040888088543"
"0.0016304886362058127","-0.006954468828504987","-0.00359731199973","-4.0838689126625634e-05","-0.008372395475506963","0.0014424812392519971","0.8845044438659033","0.9684563388637338","0.39449163819354277"
"0.001775874355507956","-0.006644931040783352","-0.0032817414686411228","0.00013861783620709852","-0.009256718737353975","0.00011643203832545318","0.8842536694376266","0.9703560825708115","0.395962548408733"
"0.001919334436143833","-0.006644931040783352","-0.0038936756856675233","0.0001367886119681818","-0.003644915802634415","0.0019086855794752567","0.8875416008305881","0.9677439349735799","0.39782570134797385"
"0.0016304886362058127","-0.007109237722365806","-0.0035981381005967257","0.0006678412910136876","-0.006908654996628387","-0.0007470531477830099","0.8841143503108062","0.968786155479546","0.3973027110492396"
"0.0017749115361748314","-0.006642853605966429","-0.004207594015022949","-0.0002085496693473057","-0.0049471087302960124","0.0012451756022912942","0.8837521205810737","0.9682716415588792","0.39447529474670734"
"0.001775874355507956","-0.006567027235148713","-0.0034356027550686194","0.0009271097581401464","-0.007979894758476082","-0.0007579741239985475","0.8874301455291314","0.9696700640099223","0.3973353979429104"
"0.0014870285555699185","-0.006876565022870347","-0.003293513405991953","-0.0008881546115848375","-0.007600796504953573","-0.0024965935375120467","0.887290826402311","0.9689708527844009","0.39604426564291023"
"0.0017036629055234467","-0.0066438923233748904","-0.0039015236439014097","-0.0011727433931763014","-0.006649460925564702","0.002338001288926036","0.883891439707894","0.9692874767355802","0.39857749990240443"
"0.0016304886362058127","-0.007187141528000444","-0.003598551151030086","-0.0010627973889214125","-0.00673633760866361","-0.0020519884613595155","0.8863434563399324","0.9682716415588792","0.397351741389746"
"0.0017749115361748314","-0.007110276439774265","-0.0035927684449630136","-0.0012683444283996858","-0.007911446462701184","0.003646819616268065","0.8826654313918747","0.969115972095358","0.39769495377329034"
"0.0017749115361748314","-0.006954468828504987","-0.003746216680957147","0.00022873119871373262","-0.007110409938370479","0.00013050796322547868","0.8869285966725781","0.9684563388637338","0.39604426564291023"
"0.0014870285555699185","-0.0067197186941926074","-0.0037555103157078003","-4.372693792491524e-05","-0.007929156860908676","0.0021052631513549234","0.8834456185020686","0.9689444674551357","0.39792376202898655"
"0.001847122986159341","-0.006954468828504987","-0.003898012715217829","-0.00019670784927431855","-0.00757901750175247","-0.0016267984540346066","0.8869564604979424","0.9696700640099223","0.3966816600694925"
"0.0019183716168107085","-0.007109237722365806","-0.004204702661989414","-3.246276761158599e-05","-0.007108973960137439","0.00035014092933794626","0.8869285966725781","0.9686146508393236","0.3990841467543032"
"0.0016304886362058127","-0.006797622499827248","-0.004059308909445847","-3.4869641610160605e-05","-0.005806781032475843","0.0010204461806115762","0.882553976090418","0.9679022469491696","0.3966326297289862"
"0.0017749115361748314","-0.006954468828504987","-0.0035919423440962904","0.00014035078548607223","-0.006244515063847476","0.0005760837928193906","0.882804750518695","0.9665038244981266","0.3981852571783537"
"0.001847122986159341","-0.006876565022870347","-0.0038975996647844665","0.00030960216506584003","-0.006440047433246397","0.0014507326435037361","0.8848388097702723","0.9693006694002129","0.3973027110492396"
"0.0020627945167797273","-0.007110276439774265","-0.004199539531572382","-3.929828976753792e-05","-0.007946149269999645","0.001440539732369235","0.8819131081070443","0.9673745403638704","0.3972863676024041"
"0.0017027000861903222","-0.007109237722365806","-0.0035954532727798683","0.0004894437902393362","-0.004953809962050197","0.000583607131990094","0.8872629625769474","0.9679154396138022","0.3986755605834171"
"0.0016314514555389372","-0.006564949800331788","-0.004212344095006618","0.0009963314543391527","-0.0076926991118681206","0.0027571240872423133","0.8876809199574085","0.9674141183577678","0.39588083117455575"
"0.0017749115361748314","-0.006954468828504987","-0.003900491017818004","-0.000381074397565135","-0.007540485419165902","0.00035086899441898195","0.8842536694376266","0.9693138620648453","0.3957664270467076"
"0.002063757336112852","-0.006955507545913449","-0.0038901647569839428","-0.0003739500505293542","-0.0067066607251807875","-0.0007443835758192122","0.8850617203731849","0.9706990918512559","0.39640382147329"
"0.0016304886362058127","-0.006953430111096525","-0.0037515863365908566","-0.0012594871320849312","-0.00837454944285652","0.00188902782228729","0.888043149687141","0.9679418249430671","0.3960932959834165"
"0.0015582771862213034","-0.007108199004957342","-0.003909371602135294","-0.00046223418879707146","-0.007561785762955992","-0.0007436555107381762","0.8845601715166316","0.9680869442540244","0.39776032756063207"
"0.0016304886362058127","-0.007109237722365806","-0.0035981381005967257","0.0006613908686975076","-0.00839249917076952","0.00012104311717201325","0.8807428274417528","0.9689444674551357","0.3972209938150624"
"0.0017749115361748314","-0.007109237722365806","-0.003747249307040553","0.00048010511912486664","-0.007072835174605938","0.001885387496882111","0.886510639292117","0.9698415686501445","0.3960115787492393"
"0.0016304886362058127","-0.006875526305461886","-0.0039054476230183507","0.0013863413170681854","-0.006342161583694184","-0.00491862337375782","0.8838357120571655","0.9679022469491696","0.39795644892265747"
"0.0016304886362058127","-0.007109237722365806","-0.0037524124374575824","0.00015190378067923046","-0.006501794497267108","-0.0016190324265035578","0.8853403586268256","0.9693006694002129","0.3983977219872144"
"0.001847122986159341","-0.006954468828504987","-0.004206561388939543","0.000632893480554384","-0.00742105989611809","0.005832228301177203","0.8869843243233063","0.9682848342235116","0.3964855387074673"
"0.0016304886362058127","-0.006797622499827248","-0.004213583246306704","0.00013861783620709852","-0.010112801093951207","0.00011230633619958371","0.8871515072754906","0.9693138620648453","0.3979891358163283"
"0.0017749115361748314","-0.006798661217235707","-0.0038998714421679586","0.00030613626650789256","-0.009228238502398687","0.0014325310164778411","0.8845880353419958","0.9679154396138022","0.39797279236949284"
"0.0016314514555389372","-0.006642853605966429","-0.003904208471718265","0.001336855987657491","-0.009388110745677117","0.003621822715152503","0.8832227078991561","0.9694721740404351","0.3963874780264546"
"0.001919334436143833","-0.007110276439774265","-0.003587605314545984","0.0009060255419126327","-0.005314240498543189","0.0038686367776236408","0.8836963929303451","0.967559237668725","0.3966653166226572"
"0.0014870285555699185","-0.006797622499827248","-0.003601649029280306","0.0015194895866693335","-0.0074816103116112686","0.002318343531738069","0.8831391164230636","0.9693138620648453","0.3957500835998722"
"0.0017749115361748314","-0.006799699934644169","-0.0035911162432295625","0.00013919548596675642","-0.010118784336588872","-0.00010878276007495566","0.8831669802484279","0.9696568713452899","0.3959462049618974"
"0.0016314514555389372","-0.006798661217235707","-0.003596485898863274","-0.0007215026559235304","-0.006063342476778954","-0.0007329772228829846","0.8831112525976994","0.9689576601197682","0.39530881053531514"
"0.0016314514555389372","-0.006564949800331788","-0.004212344095006618","-0.0012584281075255581","-0.006868447606103272","0.002118125634453223","0.88461589916736","0.9691423574246231","0.3955539622378468"
"0.0017749115361748314","-0.006954468828504987","-0.0035919423440962904","-0.001776579941938704","-0.006673393896115366","0.001463109749881345","0.8847273544688162","0.9681001369186568","0.3962403870049356"
"0.0017749115361748314","-0.007187141528000444","-0.0035931814953963762","-0.0008946050339010177","-0.003697568337845875","-0.0002781792355959524","0.8841422141361704","0.9673877330285029","0.3973353979429104"
"0.0017749115361748314","-0.007110276439774265","-0.0035927684449630136","-0.0002048912208694723","-0.004317192945402551","0.0005913731595211425","0.8833620270259764","0.968429953534469","0.3972863676024041"
"0.0017749115361748314","-0.006876565022870347","-0.004208833166323037","-0.00020469867094958646","-0.0066851210516851904","0.00013608979551341975","0.8831391164230636","0.9687729628149137","0.39857749990240443"
"0.0016304886362058127","-0.006954468828504987","-0.00359731199973","0.0002411506685463777","-0.00629549229112039","-0.002057327605287111","0.8859533627848355","0.9694853667050677","0.3975315193049358"
"0.0017749115361748314","-0.006954468828504987","-0.003900491017818004","0.0004916581143180248","-0.00927059986027336","-0.0007637986446468333","0.8843929885644469","0.9686278435039563","0.3936090920644287"
"0.001847122986159341","-0.007187141528000444","-0.0038992518665179154","0.0005648270838746936","-0.007063501316091179","0.002323197298944974","0.8838635758825297","0.9689444674551357","0.398381378540379"
"0.001847122986159341","-0.0066438923233748904","-0.004204909187206094","0.0006647604922955121","-0.006248583668841089","0.0001324494701082409","0.8850338565478212","0.9682716415588792","0.39579911394037853"
"0.001919334436143833","-0.006799699934644169","-0.003894501786534249","0.00013871411116704151","-0.006021938437726307","0.0010146216599632896","0.8829440696455154","0.9686014581746912","0.39684509453784705"
"0.0017749115361748314","-0.006954468828504987","-0.0035919423440962904","0.0006539776967818977","-0.008796248383959213","0.0014335017699192221","0.8833620270259764","0.9689444674551357","0.3972863676024041"
"0.001919334436143833","-0.006955507545913449","-0.0037410535505401155","0.0006403066524699938","-0.00572804155936416","0.004745469823551093","0.8863155925145682","0.9696568713452899","0.39731905449607496"
"0.001919334436143833","-0.006877603740278809","-0.0038949148369676117","0.00014208373476504602","-0.007112085246309026","0.0001292945214237524","0.88461589916736","0.9710552937963329","0.3959462049618974"
"0.0017749115361748314","-0.006642853605966429","-0.004207594015022949","0.0010022042268956748","-0.008792658438376613","0.0014310748863157695","0.8860648180862917","0.9686278435039563","0.39516171951379614"
"0.0016304886362058127","-0.006954468828504987","-0.00359731199973","-0.00038790991972108697","-0.007946627929410659","0.0014473350064589025","0.8847552182941805","0.9682716415588792","0.3964528518137964"
"0.001775874355507956","-0.006565988517740251","-0.0038984257656511923","-0.0007210212811238153","-0.006064060465895475","-0.0007349187297657466","0.8835013461527969","0.9691423574246231","0.39553761879101135"
"0.001559240005554428","-0.006798661217235707","-0.003598964201463449","-0.0018490749867757718","-0.004357161006222159","-0.0007135621540553631","0.8877366476081364","0.968429953534469","0.39954176326569574"
"0.0016304886362058127","-0.007109237722365806","-0.0035981381005967257","-0.0004640634130359882","-0.008849379578581684","-0.0007531203567916418","0.8857583160072867","0.9682584488942466","0.39864287368974616"
"0.0019183716168107085","-0.007188180245408906","-0.0038965670387010607","-4.545988720388895e-05","-0.006846429273196662","0.002766831621656124","0.8810493295207579","0.9696172933513925","0.3998196018618983"
