"AccX","AccY","AccZ","GyroX","GyroY","GyroZ","MagX","MagY","MagZ"
"-13.881499999999999","-2.6159999999999997","-4.5165","-3.4930000000000003","1.533","0.12300000000000003","-15.733999999999998","14.376000000000001","-25.323999999999998"
"1.8195","7.519","4.3155","1.3235000000000001","1.572","-3.3495","-19.3655","19.5845","-25.387999999999998"
"13.471","9.779","1.9335","2.019","0.6165","-2.2670000000000003","-20.313","22.668","-26.198999999999998"
"-0.5874999999999999","-5.3774999999999995","1.3845","-0.642","-0.8520000000000001","0.20099999999999998","-19.839","22.3065","-26.6475"
"30.967","1.915","-0.9059999999999999","-1.5025","-0.07250000000000001","-0.52","-19.2075","21.0435","-26.45"
"-11.093","-1.4480000000000002","-11.8155","1.597","0.137","-0.7355","-20.4705","23.933999999999997","-26.261499999999998"
"27.796","-13.368500000000001","-2.458","2.332","2.7904999999999998","-2.583","-23.1545","28.256500000000003","-24.2305"
"19.735999999999997","-4.069","1.1235","-0.12150000000000002","2.42","-2.0645000000000002","-25.049","30.5905","-20.5935"
"20.92","9.534500000000001","0.41100000000000003","0.33199999999999996","3.3505000000000003","-3.5490000000000004","-26.628","36.57","-15.5045"
"10.262","11.688500000000001","3.0705","1.06","2.3125","-2.951","-27.26","40.745000000000005","-12.2805"
"17.061500000000002","-5.737500000000001","11.504999999999999","-1.355","1.0350000000000001","-0.4105","-27.575","40.922","-11.14"
"-1.3895000000000002","17.0895","1.15","-3.1500000000000004","-1.1525","0.235","-27.26","39.471000000000004","-13.662"
"0.826","11.796","-8.842","0.6035","-0.757","2.2575000000000003","-26.944","36.019000000000005","-14.953"
"19.506","6.862","-0.47050000000000003","2.759","-0.7324999999999999","3.191","-26.628","31.292","-16.8615"
"26.726","-2.7344999999999997","-5.7765","2.2215","-3.067","4.7355","-24.102","26.057000000000002","-22.1435"
"31.2725","-3.2605","-3.2475","1.5505","-2.444","2.4525","-21.259999999999998","24.1025","-25.9525"
"16.221","-13.088000000000001","-0.4325","0.8575","-3.1109999999999998","1.9895","-17.471","22.3465","-30.0885"
"-0.05249999999999999","-6.3835","-5.532500000000001","-2.3535","-2.468","1.1485","-15.1025","18.200499999999998","-30.485"
"-8.724","-0.8465","-5.4864999999999995","-4.1215","1.2315","-0.1285","-16.997","16.354","-26.1215"
"-1.5805","5.968999999999999","1.3570000000000002","1.2025000000000001","1.3775","-3.1260000000000003","-20.155","22.1195","-26.6715"
"12.363","13.878499999999999","2.845","1.5405","0.158","-1.3115","-19.997","24.67","-27.782"
"2.0485","-6.168","-3.621","0.9684999999999999","-0.835","-0.4445","-19.681","26.133499999999998","-28.681"
"32.533","2.076","-4.4704999999999995","-0.223","0.576","-1.557","-19.997","25.759","-27.667499999999997"
"-10.596","3.5865","-14.588000000000001","0.5","-0.183","0.19449999999999995","-20.628","27.570999999999998","-27.29"
"25.542499999999997","-13.651499999999999","1.7655","3.6814999999999998","2.6745","-2.3520000000000003","-23.47","34.075","-24.0625"
"20.576","-2.3249999999999997","3.314","0.30300000000000005","2.623","-2.076","-25.049","36.959999999999994","-20.121000000000002"
"17.176000000000002","11.668","-0.5815","-0.4345","2.9604999999999997","-2.9325","-25.9965","41.494","-15.931999999999999"
"9.4215","12.252","2.4175","0.2905","2.199","-2.4365","-25.839","44.2265","-12.617"
"11.942499999999999","-1.517","10.250499999999999","-0.17850000000000002","1.2195","-0.7415","-25.9965","45.134","-12.0095"
"2.66","12.536999999999999","5.041","-2.6765","-0.49950000000000006","0.17049999999999998","-25.680999999999997","43.683499999999995","-12.945"
"1.361","13.0625","-4.85","-0.758","-0.9319999999999999","1.3935","-26.1545","41.673500000000004","-14.2945"
"19.6975","5.188000000000001","-3.2385","1.7995","-0.8385","2.6845","-25.839","37.129000000000005","-16.0185"
"20.0795","0.09950000000000003","-6.7755","1.8885","-2.402","4.545999999999999","-24.7335","31.323999999999998","-19.64"
"28.674500000000002","5.973999999999999","-5.3774999999999995","1.481","-1.9925000000000002","3.5005","-22.839","28.08","-22.566499999999998"
"23.212","-15.168","-2.8345000000000002","2.13","-2.3165","1.517","-20.6285","27.570999999999998","-26.4655"
"-1.3894999999999997","-7.0115","-5.761","-1.4335","-2.2285","0.736","-18.102","24.52","-28.239"
"-10.4435","-3.6325000000000003","-3.058","-2.8739999999999997","1.53","-0.2045","-19.3655","22.6785","-24.404"
"2.1245","9.7495","4.5665","0.36649999999999994","1.0554999999999999","-3.02","-21.102","27.927","-24.262999999999998"
"17.176000000000002","15.414","2.2840000000000003","1.1285","0.509","-1.8519999999999999","-21.259999999999998","30.2905","-24.810000000000002"
"2.0484999999999998","-8.612","-0.3035000000000001","0.49250000000000005","-1.023","0.299","-20.6285","30.301000000000002","-25.9565"
"21.302","-3.0355","-12.9375","-1.3695","-1.1965","0.11049999999999999","-19.3655","29.23","-26.707"
"3.4619999999999997","-2.4004999999999996","-6.4385","1.5034999999999998","1.5675","-0.9734999999999999","-20.944000000000003","32.1155","-24.9065"
"22.7155","-12.826","1.485","1.4369999999999998","2.2699999999999996","-1.9955","-22.681","35.362","-21.6475"
"21.111","9.0845","1.691","-0.4225","2.824","-2.6835","-23.786","39.8935","-17.296"
"12.363","13.471","0.23349999999999999","1.326","3.1915","-3.435","-24.102","44.617000000000004","-12.7805"
"14.1965","-0.22299999999999998","11.386","-0.06000000000000001","1.7685","-0.876","-24.575499999999998","45.703500000000005","-10.532"
"3.7295000000000003","6.5825","9.6015","-2.627","-0.507","0.091","-24.418","44.799","-11.4715"
"0.826","8.7865","-6.409000000000001","-0.6985","-1.071","1.4169999999999998","-24.418","41.8815","-12.98"
"11.866","10.616","-2.9475","1.829","-1.081","2.5655","-24.575499999999998","38.2445","-14.245"
"21.9135","2.382","-6.3745","2.0095","-2.7344999999999997","4.47","-23.628","32.2525","-17.531"
"29.439","2.2155","-5.422499999999999","1.8535","-2.3194999999999997","3.508","-22.049500000000002","28.639000000000003","-20.772"
"23.7085","-16.2855","-2.096","2.2705","-1.976","1.7189999999999999","-19.997","27.758499999999998","-24.161499999999997"
"2.2775","-12.7515","-5.176500000000001","-1.2435","-2.657","0.696","-17.944499999999998","25.067999999999998","-25.8215"
"-10.901499999999999","-3.4065","-7.9830000000000005","-3.372","-0.06899999999999998","0.757","-18.734","23.058500000000002","-23.524500000000003"
"-3.4905","13.3395","5.548","1.5185","1.4875","-2.237","-20.155","26.846","-22.995"
"12.5155","12.1265","1.821","2.7169999999999996","0.657","-2.88","-20.944000000000003","31.0235","-23.197000000000003"
"4.99","-6.1785","-1.6495000000000002","1.9695","-0.8795","-0.4485","-20.155","32.6695","-24.749000000000002"
"22.1045","-8.813500000000001","6.594","-1.4015","-0.752","-0.495","-19.3655","31.418999999999997","-25.3335"
"-8.0745","3.893","-23.336","-2.4715000000000003","-0.647","1.133","-19.049500000000002","30.691499999999998","-25.2665"
"21.5695","-13.154","-2.877","2.8845","2.238","-2.4985","-21.259999999999998","35.75","-22.473"
"17.9785","-5.8485","2.2095000000000002","-0.334","2.499","-1.991","-22.365499999999997","38.278999999999996","-19.0"
"17.978","13.3005","-0.11800000000000001","0.7955","3.4655","-3.27","-22.996499999999997","43.364000000000004","-14.1775"
"10.2235","11.4305","4.9079999999999995","2.081","2.4625","-2.4195","-23.4705","46.45","-10.3965"
"14.6935","-0.37350000000000005","12.174","-0.797","1.5485","-0.6495","-23.628","46.811499999999995","-9.594000000000001"
"2.927","8.743500000000001","6.871","-2.0945","-0.975","0.338","-23.786","45.899","-12.012"
"3.08","7.031000000000001","-4.633","0.275","-1.0655000000000001","1.7149999999999999","-24.102","43.158500000000004","-13.540500000000002"
"19.621","4.4835","-7.4535","1.7505","-2.317","3.17","-24.102","38.791","-17.573999999999998"
"25.16","9.0505","-5.148","1.1284999999999998","-2.294","4.061999999999999","-23.1545","33.3605","-21.0485"
"27.223","-7.074999999999999","-4.328","2.6875","-1.6600000000000001","2.5505","-22.2075","32.2765","-23.944"
"10.3","-15.6435","-2.8655","0.4555","-2.1405","1.1400000000000001","-20.4705","30.657","-26.945"
"-4.4835","-4.132","-5.606999999999999","-1.9809999999999999","-1.2485","1.0815000000000001","-19.681","27.7715","-26.9595"
"-9.794","-5.531499999999999","-2.056","-2.2520000000000002","1.9135","-0.7424999999999999","-21.576","28.1015","-23.907"
"6.135999999999999","10.7765","7.8135","3.0424999999999995","0.6085","-2.5515","-22.2075","34.096000000000004","-24.5395"
"14.655000000000001","10.557500000000001","-0.657","0.17700000000000002","-0.274","-0.7474999999999999","-21.8915","34.644999999999996","-25.055999999999997"
"18.628","-5.600499999999999","3.126","-0.637","-0.8434999999999999","0.63","-21.26","33.2125","-26.311"
"4.913500000000001","-7.2865","-9.5445","0.1545","-1.576","-0.046","-20.628","32.8645","-26.922"
"14.082","-6.6935","-3.5395000000000003","1.306","1.895","-1.251","-22.2075","36.098","-23.826"
"22.372","-8.471","1.692","-0.208","2.293","-1.5575","-23.786","38.435","-20.5165"
"19.5445","10.4695","1.9224999999999999","-0.479","2.887","-3.012","-24.418","43.3455","-16.172"
"10.6055","13.3255","1.926","1.274","2.735","-2.879","-24.259500000000003","48.431","-10.8475"
"11.561","2.6135","11.5225","-0.257","1.4085","-0.6739999999999999","-24.102","48.6155","-10.020499999999998"
"3.271","9.076","8.8565","-2.8985000000000003","-0.6995","0.3225","-24.575499999999998","47.159499999999994","-12.266"
"1.017","8.0055","-6.022","-0.044999999999999984","-1.18","2.1395","-24.8915","44.06","-13.748999999999999"
"22.983","3.7135","-5.623","1.745","-1.2805","2.7565","-24.891","39.869","-16.161"
"17.673000000000002","7.7235","-3.5245","2.172","-2.3965","3.5615","-24.418","35.876000000000005","-19.5315"
"28.751","0.12949999999999995","-5.785500000000001","2.559","-1.7985","2.865","-23.3125","33.714","-22.060499999999998"
"15.9915","-16.808","-2.2635","1.8685","-1.989","1.2475","-21.8915","32.83","-24.7925"
"-0.8165","-5.6","-6.03","-2.038","-2.016","0.9279999999999999","-20.4705","29.942","-26.591500000000003"
"-7.807499999999999","-2.974","-3.7520000000000002","-2.526","1.407","-0.2345","-21.576","28.834","-23.7365"
"0.9785","6.741","6.313000000000001","1.1485","1.62","-2.727","-22.680999999999997","34.088","-22.381500000000003"
"11.254999999999999","12.21","2.9695","1.6515","0.14350000000000002","-1.4365","-22.523","36.2745","-22.527"
"0.8644999999999999","-1.292","-2.287","-0.0675","-0.713","0.357","-22.2075","35.731","-23.317"
"41.930499999999995","-2.812","4.025","-0.901","-0.20750000000000002","-1.013","-20.944","34.845","-25.0575"
"-19.115000000000002","-2.7664999999999997","-19.525","-0.7625000000000001","-1.4235","0.7929999999999999","-20.786","35.0325","-25.3935"
"28.942","-13.9235","-1.745","1.94","2.2279999999999998","-2.3499999999999996","-22.207","39.3685","-21.866500000000002"
"20.079500000000003","-4.7065","-0.1605","-1.276","2.4775","-2.353","-22.997","42.093","-18.887999999999998"
"18.093","15.495000000000001","0.633","-0.62","3.077","-3.7095000000000002","-22.680999999999997","47.191500000000005","-14.5495"
"8.886","16.457","2.968","1.4715","1.963","-3.0235","-22.365000000000002","50.841499999999996","-11.278500000000001"
"9.6505","1.3535","11.286999999999999","1.2595","1.169","-0.5045000000000001","-22.049500000000002","51.0235","-10.461500000000001"
"4.9135","7.2475","4.768","-1.6505","-0.622","0.6679999999999999","-22.523","49.3775","-12.359"
"1.9335","9.6385","-5.477","0.7909999999999999","-1.025","2.3265000000000002","-22.680999999999997","45.912","-13.7025"
"26.1535","2.7025","-6.76","1.8385","-1.7440000000000002","3.9935","-23.4705","40.442","-15.839500000000001"
"20.7675","6.7755","-7.291","2.3125","-2.047","3.5655","-23.3125","37.364000000000004","-17.6435"
"24.893","-13.463000000000001","-1.4985","2.83","-1.1275","1.6225","-22.523","36.4565","-19.7265"
"6.365499999999999","-13.472999999999999","-4.0105","-1.086","-2.1870000000000003","1.1915","-21.26","33.933","-22.3445"
"-6.0120000000000005","-2.0484999999999998","-5.3325","-3.372","0.225","0.4625","-21.26","32.469","-21.116999999999997"
"-4.4455","3.301","5.4505","-0.785","1.2355","-1.982","-21.576","35.3755","-20.156"
"7.7785","10.659500000000001","1.5274999999999999","2.9435000000000002","-0.477","-2.529","-21.26","39.751000000000005","-20.2205"
"7.8934999999999995","2.142","-2.457","-0.5680000000000001","-0.9790000000000001","0.045","-20.4705","39.0415","-21.151"
"17.252499999999998","-7.701499999999999","3.8869999999999996","-0.758","-0.7725","-0.599","-19.839","39.6005","-22.680999999999997"
"-11.551","-3.331","-22.0285","-1.0095","-0.8734999999999999","0.22749999999999998","-19.3655","39.9675","-23.009"
"32.189499999999995","-14.232499999999998","-0.5175000000000001","1.42","2.917","-2.4725","-19.997","44.683","-18.3345"
"22.639","7.37","0.7919999999999999","-0.9305","2.806","-2.6725","-20.155","48.1435","-14.5655"
"13.5855","15.622499999999999","-1.0695000000000001","1.5234999999999999","3.1550000000000002","-3.504","-18.892000000000003","53.2605","-9.881499999999999"
"7.931000000000001","5.415","3.3899999999999997","1.5379999999999998","1.893","-1.7719999999999998","-18.259999999999998","54.908500000000004","-6.827"
"10.988","-4.3405000000000005","13.313500000000001","-0.9875","0.47950000000000004","-0.324","-17.944499999999998","55.278","-7.34"
"1.7045","13.8415","-0.32299999999999995","-1.616","-0.653","0.0335","-18.1025","54.911500000000004","-8.956"
"2.2395","12.6875","-6.8629999999999995","0.7314999999999999","-0.8474999999999999","1.85","-19.207500000000003","52.891000000000005","-9.041"
"13.8145","9.262","0.12250000000000005","2.49","-0.6890000000000001","2.94","-21.102","48.4915","-8.523"
"32.724","-3.3970000000000002","-8.8475","3.0250000000000004","-3.1765","5.072","-22.997","42.454499999999996","-11.488"
"29.3245","-5.1105","-2.4465","2.468","-2.549","2.277","-23.155","40.45","-14.503499999999999"
"22.5625","-11.1865","-0.8315","0.3745","-2.8905000000000003","1.5554999999999999","-22.365000000000002","38.822500000000005","-17.7135"
"3.6149999999999998","-13.054","-7.336","-2.649","-3.2035","1.1484999999999999","-21.102","35.570499999999996","-21.908"
"-10.8255","0.6869999999999998","-4.1375","-4.028","0.063","0.328","-21.418","33.569","-20.8495"
"5.7155000000000005","10.5555","1.25","2.4135","0.44099999999999995","-2.6775","-21.734","39.748000000000005","-19.917"
