"AccX","AccY","AccZ","GyroX","GyroY","GyroZ","MagX","MagY","MagZ"
"1.4215","9.605500000000001","7.2645","1.8285","0.1895","0.786","-43.785","9.461","25.719"
"10.574","1.1635","0.3065000000000002","0.602","-1.0150000000000001","1.959","-46.4855","6.107","23.627000000000002"
"22.0915","7.2105","-3.721","0.8305","-2.916","1.9625","-50.343","2.9444999999999997","18.792499999999997"
"18.3925","3.2824999999999998","-4.803","1.72","-2.331","2.1574999999999998","-51.8855","-1.0415","16.709"
"27.545","3.3369999999999997","-11.9655","0.886","-1.926","2.016","-55.7435","-5.0794999999999995","14.163"
"18.087","4.5925","-13.535","0.9045000000000001","-1.274","3.1710000000000003","-56.322","-10.149000000000001","11.613"
"5.7305","-5.3469999999999995","-8.943999999999999","3.1125","-0.8485","1.6525","-54.2","-14.062999999999999","7.8835"
"-10.973","-15.245999999999999","-1.0905","1.237","-0.742","-0.05","-54.9715","-14.299","8.285"
"-6.702","-3.9755000000000003","5.398","-2.463","1.3975","-2.7430000000000003","-56.708","-9.497499999999999","11.4455"
"10.269","15.506999999999998","7.1739999999999995","-0.36300000000000004","0.8635","-1.7235","-56.7075","-8.61","11.886500000000002"
"22.7775","8.846","-6.6665","-5.1465","0.9895","1.7305","-54.393","-8.582","14.2425"
"0.4675","-12.117","-5.298","-0.9225","0.01050000000000001","1.513","-53.622","-9.649000000000001","13.779"
"10.802999999999999","-4.046","-11.915","-0.4325","1.167","-2.824","-52.849999999999994","-4.140000000000001","17.1915"
"17.4005","4.4830000000000005","-12.368500000000001","0.27649999999999997","1.5314999999999999","-2.2045","-49.957","-0.7815000000000001","20.116500000000002"
"16.371","4.104","-3.7925","-0.075","1.9104999999999999","-2.282","-45.13549999999999","4.3759999999999994","23.567"
"16.8285","7.366999999999999","3.161","-0.7024999999999999","1.3815","-2.3825000000000003","-42.435","7.95","25.0245"
"4.548500000000001","11.585","1.9535","-0.5065","-0.076","-1.422","-42.435","10.149000000000001","25.102"
"-1.401","17.6265","1.3685","-0.488","0.61","-0.9915","-42.821","10.581","26.17"
"4.7395","6.5655","6.443","1.946","0.026499999999999996","1.1815","-43.5925","7.486000000000001","26.253"
"13.4345","2.319","-7.4215","0.191","-1.5625","2.0075000000000003","-46.6785","4.343999999999999","23.3355"
"20.680500000000002","5.15","-1.37","1.4500000000000002","-2.982","1.8955000000000002","-49.763999999999996","0.7615000000000001","18.7125"
"21.8245","2.976","-6.2204999999999995","1.759","-1.977","2.185","-52.4645","-3.4725","15.9615"
"24.875500000000002","0.5345","-12.8265","-0.077","-2.388","2.089","-56.129000000000005","-7.0665","13.0165"
"12.594999999999999","7.0725","-13.8825","1.7334999999999998","-1.1139999999999999","2.7744999999999997","-55.3575","-11.4485","10.724499999999999"
"4.1290000000000004","-7.5169999999999995","-8.0155","3.4565","-1.0379999999999998","0.9564999999999999","-54.393","-14.286999999999999","7.029"
"-14.024000000000001","-14.565999999999999","-2.3415","-0.2685","-0.637","-0.5385","-55.936","-12.9995","8.120000000000001"
"-10.286999999999999","-7.1899999999999995","4.6225000000000005","-2.5389999999999997","1.283","-2.099","-56.322","-10.149000000000001","10.9975"
"8.1335","11.4665","9.008000000000001","-0.41400000000000003","0.7290000000000001","-1.7654999999999998","-56.7075","-8.626","11.666"
"10.498000000000001","5.9935","-4.441","-6.031","1.4184999999999999","1.3944999999999999","-54.0075","-7.4825","15.1425"
"12.824000000000002","-9.216000000000001","-4.5225","-0.137","0.827","0.753","-52.2715","-8.082","16.3885"
"7.79","-2.879","-15.566500000000001","-0.34049999999999997","0.5535","-2.903","-51.5","-3.2325","17.881"
"16.79","3.3225","-10.459","0.895","1.9845","-2.0445","-46.6785","0.8254999999999999","22.547"
"20.337","2.7535","1.799","-0.5549999999999999","1.9140000000000001","-2.146","-42.435","5.7509999999999994","24.9265"
"14.197500000000002","10.7805","1.88","-1.4304999999999999","0.8285","-1.8895","-41.8565","9.0655","25.0975"
"1.8785","13.7625","1.028","-0.749","-0.0695","-1.7185000000000001","-42.628","11.244","24.957"
"-3.117","19.503","3.9865000000000004","0.4795","0.756","-0.9610000000000001","-42.049","10.161","27.0135"
"7.256","2.8155","5.981","2.124","-0.249","1.2785000000000002","-43.5925","7.486000000000001","26.463500000000003"
"18.4685","5.303","-6.1530000000000005","0.6805","-1.927","2.0949999999999998","-47.257","3.8920000000000003","22.886499999999998"
"17.0955","2.609","-0.7075","1.7845","-2.8425000000000002","2.0975","-49.763999999999996","-0.7775000000000001","18.644"
"23.616999999999997","2.8955","-8.212","0.371","-2.0060000000000002","1.9809999999999999","-53.4285","-3.932","15.718499999999999"
"21.672","4.886","-13.7945","0.653","-1.959","2.6905","-55.936","-8.386000000000001","13.1685"
"12.1755","0.821","-13.203","4.221","-1.0995","1.736","-54.586","-13.627500000000001","8.1115"
"-4.6045","-14.3505","-2.7305","3.4015","-1.4375","0.21550000000000002","-54.393","-14.942499999999999","5.948"
"-13.4525","-10.854","1.9785","-2.248","1.5470000000000002","-1.5205","-56.322","-11.9085","10.2705"
"5.4254999999999995","6.564500000000001","5.7405","-1.8045","1.9165","-2.8285","-56.322","-7.95","12.114999999999998"
"9.6585","7.156000000000001","5.5365","-2.83","0.998","0.6545000000000001","-55.164500000000004","-6.827","14.3325"
"22.740000000000002","5.372","-13.6495","-3.539","0.808","0.691","-54.2","-7.027","15.1425"
"-0.028000000000000025","-10.845500000000001","-7.907","-1.07","0.1875","1.03","-53.622","-6.135","15.8285"
"22.206","2.4125","-15.241499999999998","-0.913","1.564","-3.3325","-51.885999999999996","-1.2535","19.022"
"14.8455","1.2655","-8.4185","1.0779999999999998","1.937","-2.377","-47.257","2.3525","22.607"
"19.307499999999997","6.050000000000001","2.0220000000000002","-0.5875","1.849","-2.582","-42.821","7.502000000000001","25.421"
"11.07","11.7225","3.501","-0.604","0.596","-1.782","-41.8565","9.721","25.921"
"0.3155","15.526","3.5795000000000003","-0.1765","0.1105","-1.2774999999999999","-42.435","10.8125","26.4155"
"-1.0195","13.994","3.1500000000000004","0.5075000000000001","0.462","0.10599999999999998","-42.628","9.2655","27.2285"
"6.7605","1.204","3.325","1.6065","-0.764","1.6760000000000002","-44.7495","5.702999999999999","25.948500000000003"
"23.0445","7.58","-8.708","0.8815","-2.1239999999999997","1.9895","-48.0285","2.117","22.166"
"21.367","2.7145","-1.9005","1.9969999999999999","-2.591","1.7600000000000002","-50.150000000000006","-2.325","18.5705"
"25.981","1.7309999999999999","-10.866","0.891","-1.866","2.1025","-53.814499999999995","-6.138999999999999","16.037"
"17.6295","7.7055","-14.8875","0.424","-1.588","3.0125","-54.778999999999996","-10.996500000000001","13.702"
"7.0275","-2.278","-9.583","3.9185","-0.6910000000000001","1.6985000000000001","-53.236","-14.9225","10.3865"
"-13.7955","-17.294999999999998","-3.4225","2.295","-0.6925","-0.255","-53.814499999999995","-14.9345","10.378499999999999"
"1.116","-0.5069999999999999","6.626","-2.939","2.149","-3.2555","-55.165","-8.366","15.078"
"12.557","13.928999999999998","7.667","0.2995","0.859","-1.15","-54.393","-7.69","16.381999999999998"
"20.299","1.2215","-5.7165","-6.6754999999999995","0.7615000000000001","1.7349999999999999","-52.2715","-5.4395","18.6075"
"2.0695","-11.4025","-7.689","-0.072","0.3035","1.1105","-51.114000000000004","-6.531000000000001","19.1925"
"11.5275","-1.6125","-15.234","0.355","0.6515","-3.1109999999999998","-48.607","-1.6335000000000002","21.992"
"18.087","1.4089999999999998","-10.496500000000001","0.895","2.194","-2.3225","-43.5925","2.209","26.019"
"20.4515","3.0149999999999997","2.801","-0.6890000000000001","1.8215","-2.484","-39.156499999999994","6.699","28.592"
"14.235","10.0315","2.3970000000000002","-1.5325","0.6605","-1.834","-38.771","9.561","28.3005"
"1.459","14.55","1.3535","-0.9475","-0.4495","-1.2400000000000002","-40.699","11.059999999999999","27.289"
"-1.3245","15.567","1.488","-0.1805","0.294","-0.46299999999999997","-40.892","10.8445","28.1415"
"3.786","6.1555","3.395","1.879","0.0085","0.8765000000000001","-41.664","8.626000000000001","28.4575"
"8.286","1.4275000000000002","1.394","1.1795","-1.2745000000000002","1.6235","-44.364000000000004","5.931","25.964"
"22.6255","8.9665","-7.324","0.7775000000000001","-2.2945","1.8855","-48.028499999999994","2.5564999999999998","21.3425"
"21.5955","4.3629999999999995","-8.068999999999999","2.0755","-1.1804999999999999","2.2595","-50.150000000000006","-2.765","19.183"
"22.816000000000003","0.837","-14.021","0.48450000000000004","-1.8485","2.2350000000000003","-53.622","-7.022500000000001","17.049"
"12.786","5.427","-13.8255","2.5860000000000003","-0.3935","2.38","-52.849999999999994","-10.9565","15.414"
"2.26","-11.821","-5.651","3.1565000000000003","-0.4365","0.6525","-52.2715","-13.583","13.408"
"-14.1005","-16.131","3.2560000000000002","-0.899","0.097","-1.433","-54.2","-10.773","15.4"
"8.858","3.785","6.8415","0.40099999999999997","1.6365","-3.245","-54.0075","-7.682","16.387"
"13.815999999999999","18.5345","9.620000000000001","-2.075","0.34650000000000003","0.9235","-54.2","-7.4665","17.6585"
"8.515","-15.2715","-15.842","-5.768","0.72","3.3354999999999997","-51.114000000000004","-8.494","18.7105"
"1.154","-6.022","-12.9865","0.632","0.888","-1.873","-49.763999999999996","-5.3955","20.9675"
"24.0745","1.7705","-11.1085","1.385","1.964","-3.1455","-46.2925","-1.1455","24.5715"
"16.447","1.5605","-4.3825","0.5509999999999999","2.174","-1.92","-40.891999999999996","2.9245","28.403"
"15.875","8.0805","2.98","-1.206","1.326","-2.136","-38.578","7.1545000000000005","29.692999999999998"
"4.396","9.448","1.4329999999999998","-0.7055","0.14150000000000001","-1.5499999999999998","-38.385000000000005","9.357","29.776"
"0.201","13.2045","2.352","-0.368","0.365","-1.2135","-38.578","10.229","30.241"
"2.6420000000000003","6.906499999999999","5.527","1.087","0.018500000000000003","0.5775","-40.5065","8.21","30.328"
"8.285499999999999","4.6115","-0.4644999999999999","0.482","-1.5585","1.4685","-44.7495","6.143000000000001","27.4435"
"24.0745","13.122","-11.293000000000001","1.02","-2.296","1.826","-48.221","2.3285","23.0135"
"20.528","1.7785000000000002","-5.6285","3.7385","-1.6524999999999999","1.987","-50.150000000000006","-3.4245","20.207"
"24.761000000000003","-0.8885000000000001","-10.6325","0.8654999999999999","-2.362","1.9965","-54.200500000000005","-7.6865000000000006","17.017000000000003"
"16.981","6.17","-15.883","1.11","-1.1635","2.4405","-54.586","-12.312000000000001","14.6995"
"8.858","-0.8960000000000001","-12.715","3.489","-0.623","2.1100000000000003","-52.464","-15.79","12.041"
"-9.753","-16.477999999999998","-3.317","1.5375","-0.32","0.34199999999999997","-53.043","-16.889499999999998","12.198"
"-9.829","-9.8505","9.910499999999999","-0.9735","1.4300000000000002","-3.1959999999999997","-55.165","-12.108","14.9095"
"10.04","9.4415","7.1565","1.191","0.87","-2.5620000000000003","-55.164500000000004","-10.785","14.971"
"13.015","4.902","-4.103000000000001","-6.491","0.579","2.0625","-50.921499999999995","-8.494","20.633499999999998"
"9.5825","-6.0665000000000004","-4.953","-0.19049999999999995","0.847","2.3855","-48.221","-11.076","20.929000000000002"
"-0.4475","-10.277999999999999","-14.187999999999999","-0.2825","0.21250000000000002","-2.0345","-48.028499999999994","-7.118500000000001","22.599"
"25.447499999999998","4.506","-14.3225","0.7985","2.1845","-2.9699999999999998","-43.7855","-3.292","26.4045"
"16.104","1.0385","-1.3725","0.7775","2.253","-1.846","-38.771","0.55","29.588500000000003"
"18.583","8.6745","4.404","-1.1880000000000002","1.161","-2.0305","-37.421","4.316","30.606"
"5.54","11.246","1.0434999999999999","-1.2389999999999999","-0.0965","-1.3155000000000001","-38.385","6.051","30.259500000000003"
"-1.134","15.940999999999999","1.9015","-0.5385","-0.0020000000000000018","-1.0865","-38.771","6.915","30.7145"
"1.6504999999999999","7.77","4.878","1.8075","0.716","0.1255","-37.998999999999995","4.52","31.688"
"7.714","1.991","3.1740000000000004","1.006","-1.2465000000000002","1.2269999999999999","-40.6995","1.8290000000000002","29.4105"
"22.32","10.689","-12.7485","-0.16899999999999998","-2.6310000000000002","1.987","-45.714","-1.573","24.1385"
"20.490000000000002","7.0265","-5.933999999999999","2.7545","-1.6055","2.203","-46.870999999999995","-7.3145","21.3405"
"25.752499999999998","-0.4425","-13.3255","0.713","-1.976","2.5655","-48.993","-13.0755","18.740000000000002"
"13.129000000000001","9.283999999999999","-13.36","3.1310000000000002","-0.045500000000000006","2.758","-45.714","-18.2845","16.022"
"3.137","-7.515000000000001","-6.7175","5.129","-0.828","0.4655","-45.714","-21.359","10.821"
"-15.1685","-21.867","-1.7435","0.15200000000000002","-0.03949999999999998","-0.7929999999999999","-47.835499999999996","-19.8675","12.764"
"-0.14250000000000007","-1.703","3.888","-3.1975","1.2145000000000001","-2.833","-49.957","-15.0745","16.320999999999998"
"10.0405","12.960999999999999","6.114","-0.7955","0.825","-1.123","-49.185500000000005","-13.739","18.076"
"10.344999999999999","4.6335","-3.2875","-6.8975","1.21","1.7875","-46.870999999999995","-10.3885","21.797"
"24.265500000000003","7.578","-7.644","-0.6125","0.49350000000000005","0.1665","-45.328","-12.779499999999999","22.1715"
"-2.1635","-10.425","-11.061","-1.089","0.0050000000000000044","0.07350000000000001","-44.557","-10.5725","23.538"
"24.8755","5.816","-16.763","0.101","1.9415","-2.877","-41.8565","-6.111","26.514499999999998"
"17.82","2.982","-3.246","0.877","2.1545","-2.289","-37.034499999999994","-2.0525","29.9165"
"19.155","7.475","4.524","-0.869","1.5205","-2.674","-34.913","2.173","31.6155"
"4.3195","12.5595","0.02250000000000002","-1.0539999999999998","-0.03300000000000001","-1.5305","-36.4565","5.2115","31.4865"
"-2.6595","18.8655","0.5785","0.026999999999999996","0.35000000000000003","-0.8775","-35.685","4.5600000000000005","32.123999999999995"
"4.396","4.6185","5.867","2.466","0.6499999999999999","0.6719999999999999","-34.7205","1.074","32.426500000000004"
