"AccX","AccY","AccZ","GyroX","GyroY","GyroZ","MagX","MagY","MagZ"
"20.0795","7.715","-6.695500000000001","1.2445","-0.647","1.6665","-21.8915","43.0185","19.965"
"11.6365","-0.576","-6.353999999999999","1.9275","-1.7530000000000001","3.1020000000000003","-24.259999999999998","36.7915","17.8365"
"28.636499999999998","7.9785","-4.8315","1.0205","-2.3235","4.404","-26.628","29.1085","14.1035"
"28.14","-5.739000000000001","-6.2855","2.754","-2.4535","2.7465","-28.207","23.0765","9.3005"
"11.6365","-18.2885","-3.3215","1.0075","-2.4165","1.0150000000000001","-28.839","20.700000000000003","4.6615"
"-13.079","-6.781499999999999","-6.7955000000000005","-1.727","-1.3645","1.2135","-27.891","19.9905","5.355"
"-11.475","-8.273","0.8534999999999999","-3.6115","1.9605","-0.5025","-27.4175","23.0895","9.619"
"5.945","18.694000000000003","5.7265","2.2535","0.661","-2.5454999999999997","-27.891","25.081000000000003","9.679"
"16.336","12.043","1.3285","-0.6839999999999999","-0.4135","-0.2895","-28.523","25.255","8.681000000000001"
"11.3695","-11.482","-3.993","-0.5974999999999999","-2.0460000000000003","1.5895","-28.839","23.794","5.468"
"4.455","-19.075","-5.692500000000001","2.3615","1.397","-1.8065","-28.8385","26.5235","7.616499999999999"
"22.7915","-5.311","-5.1345","-1.917","2.4815","-1.575","-27.732999999999997","30.363500000000002","12.2035"
"22.295","8.6335","0.63","-2.021","2.1145","-2.241","-25.680999999999997","35.676","15.5685"
"12.325","11.685","0.5715","1.0175","3.3609999999999998","-3.887","-21.418","40.479","20.973"
"5.7925","3.7875","5.074","1.417","1.638","-1.8235","-19.2075","41.6075","23.582"
"10.4145","-1.2165","11.036999999999999","-1.0190000000000001","0.504","-0.35550000000000004","-19.05","43.976","23.122999999999998"
"1.361","13.657","1.017","-2.6125","-0.762","0.08850000000000001","-19.839","45.965","21.058"
"24.433999999999997","4.677","-10.0485","1.851","-0.47950000000000004","1.968","-22.2075","40.465500000000006","20.467"
"12.3245","0.9454999999999999","-5.6135","2.359","-2.0220000000000002","3.1745","-24.259999999999998","33.8795","18.1625"
"31.081000000000003","8.614","-8.0915","1.6244999999999998","-2.58","3.9295","-26.47","26.563499999999998","14.0815"
"26.421","-11.386","-6.5705","3.0475000000000003","-2.6574999999999998","2.057","-27.891","22.171999999999997","9.3555"
"12.21","-20.6045","-3.074","0.7240000000000001","-2.762","0.9115","-28.523","20.887","5.953"
"-5.859","-7.256","-5.176","-1.51","-1.6265","1.1705","-28.207","20.347","5.513"
"-12.5825","-7.083","-0.1439999999999999","-3.0685000000000002","1.396","0.01100000000000001","-27.4175","22.364","9.1665"
"3.4235","14.282499999999999","6.6305","2.707","0.2905","-2.4524999999999997","-28.207","24.35","8.395499999999998"
"9.7265","9.6435","-1.0565","-0.9035","-0.45549999999999996","-0.28800000000000003","-28.523","25.075499999999998","7.866"
"27.032","-0.7295","0.5135","0.4405","-1.331","0.1445","-29.154","24.516","4.930999999999999"
"-13.499500000000001","-11.914","-10.946","1.802","0.27849999999999997","-0.255","-28.839","24.704","5.737500000000001"
"28.979999999999997","-14.7735","-2.4749999999999996","-0.1535","2.6494999999999997","-2.0555","-28.049","28.3565","10.3305"
"22.295499999999997","-1.1105","-0.4945","-2.1465","2.367","-2.0355","-26.628","33.476","14.027000000000001"
"15.9155","17.024","-1.284","-0.9505","3.6485000000000003","-3.511","-22.839","38.998999999999995","19.22"
"5.601","11.225","-0.746","1.121","2.113","-3.117","-20.786","40.8565","21.951"
"10.4145","-2.702","11.99","0.5095000000000001","1.486","-0.2195","-19.681","41.7845","23.2375"
"0.40599999999999997","14.702","2.835","-2.277","-1.002","0.492","-20.944000000000003","44.129","20.593"
"2.392","9.451","-5.4855","0.5195000000000001","-0.7484999999999999","2.1115","-22.680999999999997","40.457499999999996","19.773000000000003"
"27.987000000000002","-4.2490000000000006","-8.333","1.819","-1.8365","4.1045","-25.049","32.4105","17.4075"
"22.83","8.003499999999999","-3.8445","1.0645","-2.5115","4.004","-26.628","25.651","13.6345"
"32.0745","-3.0029999999999997","-6.7295","2.67","-1.7675","2.6875","-27.102","20.365000000000002","9.6315"
"9.1535","-18.5775","-2.391","1.2395","-3.191","0.5435","-28.207","18.706","3.4370000000000003"
"-9.603","-5.232","-6.0425","-1.113","-1.3705","0.37","-28.049","18.8935","4.421"
"-8.3805","-7.131499999999999","-0.22950000000000004","-3.5445","2.314","-1.1925","-27.575499999999998","23.087","8.593"
"7.778499999999999","20.0265","8.589","3.1385","0.3295","-2.6345","-28.207","24.168","8.078"
"8.772","10.9905","-1.0539999999999998","-0.6765","-0.389","0.023499999999999997","-28.365000000000002","24.527","7.5785"
"23.9375","-12.304499999999999","4.023","-0.030500000000000006","-1.17","-0.3855","-29.154","25.061999999999998","4.7095"
"2.812499999999999","-2.4515000000000002","-17.991500000000002","-1.2785","-2.0875","0.828","-29.154","24.516","4.096"
"18.703999999999997","-8.6495","-3.6535","0.875","2.002","-1.5014999999999998","-28.996499999999997","26.7025","7.109500000000001"
"21.3405","-6.8309999999999995","0.976","-0.78","2.1915","-1.932","-27.732999999999997","31.2735","11.3285"
"19.239","12.2605","1.4655","-0.8150000000000001","2.9935","-2.694","-25.207","35.684","16.235"
"9.4975","11.139","0.36799999999999994","1.0645","2.8005","-3.2085","-22.523","38.822500000000005","19.729"
"8.0845","0.35650000000000004","6.7490000000000006","0.6185","1.935","-0.9525","-20.944","39.7615","22.154"
"10.0705","0.2749999999999999","14.173","-2.6445","0.0955","-0.1215","-21.102","43.396","20.816000000000003"
"-1.313","14.334499999999998","-5.0855","-3.133","-1.0715","0.8955","-22.2075","43.923500000000004","18.82"
"12.9355","8.596","-5.4495000000000005","1.173","-0.6445000000000001","2.4945","-24.102","38.796","18.058"
"17.826","-2.7375","-8.7385","2.3815","-2.1995","3.8615","-26.1545","31.3005","15.1435"
"26.7265","9.099499999999999","-5.170999999999999","1.242","-2.187","3.8615","-27.26","24.366","11.717500000000001"
"28.713","-9.3855","-5.526","3.0995","-1.88","2.529","-27.732999999999997","19.444499999999998","7.364"
"9.421","-18.244","-3.0675","1.3925","-2.583","0.723","-28.365000000000002","18.16","2.6425"
"-11.7805","-5.412000000000001","-3.4755000000000003","-2.129","0.0645","0.5545","-27.575","18.901","4.922499999999999"
"-3.4524999999999997","1.7725","1.3905","-2.139","2.1959999999999997","-2.2235","-27.891","23.264","8.0175"
"10.9495","16.521","6.943","2.902","0.503","-2.1805","-28.207","24.896","8.21"
"3.9965","1.7235","-4.7255","-0.716","-0.44699999999999995","0.3415","-28.523","24.709","7.3915"
"20.194","-1.7925","-5.2335","1.1265","-1.79","-0.3765","-28.996499999999997","24.519","4.920999999999999"
"-0.2054999999999998","-10.660499999999999","-5.671","1.61","1.605","-0.47450000000000003","-28.680999999999997","25.252499999999998","7.359"
"29.133000000000003","-11.8065","-0.5655","-0.9969999999999999","2.4515000000000002","-1.698","-27.732999999999997","28.726","11.3045"
"19.735500000000002","8.795","-1.4264999999999999","-2.2995","1.934","-1.9675","-25.9965","33.6685","15.015"
"14.0815","11.4185","-2.042","0.855","3.49","-3.61","-22.839","37.9075","19.61"
"6.136","8.7685","4.3105","1.267","2.1085000000000003","-2.199","-20.786","38.8515","22.392"
"12.1335","-3.3785","11.296","0.036500000000000005","1.4725000000000001","-0.3125","-20.313","39.954","23.0075"
"3.462","11.530000000000001","8.192","-3.424","-0.9915","0.1625","-21.102","43.2085","20.826"
"9.88","8.6435","-4.8045","-0.045499999999999985","-0.691","2.108","-22.996499999999997","39.724500000000006","19.646"
"14.1205","-1.7275","-10.221","1.6985000000000001","-2.121","3.567","-25.365000000000002","32.5875","16.7335"
"22.0655","9.196","-1.675","0.8575","-1.9455","4.0715","-26.312","25.656","13.6395"
"32.876999999999995","-4.01","-5.9239999999999995","2.707","-1.957","3.2960000000000003","-27.102","19.6375","9.341999999999999"
"15.151499999999999","-18.6065","-1.9989999999999999","2.1915","-2.5195","1.011","-27.732999999999997","17.442500000000003","4.8355"
"-5.1715","-9.192499999999999","-5.054","-1.064","-1.7325","0.741","-27.4175","17.448","4.18"
"-11.2075","-4.9685","-2.415","-2.9945","1.2675","-0.754","-27.102","20.365000000000002","8.1475"
"2.7359999999999998","11.904","4.8085","0.3345","1.3225","-2.6485","-27.575","23.448500000000003","8.814499999999999"
"12.3625","18.5185","3.144","-0.2425","0.6214999999999999","-0.5915","-27.891","23.991999999999997","9.09"
"3.8055","-9.999","-0.6745000000000001","0.023999999999999997","-0.869","0.343","-28.680999999999997","24.3425","7.244"
"0.5584999999999996","-1.8725","-15.975000000000001","-0.864","-1.8265","0.7355","-28.839","23.9755","5.6129999999999995"
"10.4145","-8.7385","-3.7785","1.4420000000000002","1.9295","-1.217","-28.365000000000002","25.616500000000002","7.9990000000000006"
"21.875","-5.3435","1.009","-1.2955","1.931","-1.7355","-27.575499999999998","30.1845","12.216000000000001"
"18.5895","11.219000000000001","0.705","-1.1475","2.497","-2.6145","-25.049","35.1405","16.597"
"8.160499999999999","9.4925","-0.15999999999999998","1.057","2.5285","-3.077","-21.8915","38.650999999999996","20.902"
"7.893000000000001","-0.3494999999999999","7.2805","0.40099999999999997","1.874","-1.058","-20.155","39.954","22.9695"
"10.567","2.1325000000000003","11.134","-3.0765000000000002","0.16500000000000004","-0.312","-20.155","43.957499999999996","21.7885"
"-0.6635","17.4575","-5.74","-2.136","-0.722","0.6759999999999999","-20.944000000000003","44.308499999999995","20.438000000000002"
"19.5445","6.6015","-4.1295","1.6045","-0.531","2.4219999999999997","-22.839","38.089","19.93"
"17.7875","-3.9099999999999997","-7.0455","2.8449999999999998","-2.0605","3.7005","-25.049","30.409","16.8585"
"25.4655","9.48","-5.0355","0.978","-2.717","3.7365","-26.628","24.377","13.0535"
"29.286","-2.1734999999999998","-5.678","1.8094999999999999","-2.121","2.816","-27.102","20.729","10.106"
"15.992","-16.6605","-1.8159999999999998","1.5775000000000001","-2.7255000000000003","0.848","-28.207","19.255000000000003","5.2235"
"0.062000000000000055","-6.3095","-6.6945","-1.3005","-2.1995","0.8845000000000001","-28.049","18.709","3.4415"
"-11.513","-7.9855","-3.0585","-3.934","1.8435000000000001","-0.186","-27.4175","21.451500000000003","8.412500000000001"
"-1.3135000000000001","7.715999999999999","4.0745000000000005","-0.23250000000000004","1.3119999999999998","-2.564","-28.207","23.985999999999997","8.591000000000001"
"13.8525","17.436500000000002","4.250500000000001","-0.07250000000000001","0.364","-0.644","-28.207","24.896","8.375"
"6.7855","-0.5979999999999999","0.6970000000000001","-1.2585000000000002","-1.5685","0.38","-29.311999999999998","25.2445","6.196"
"8.9245","-8.8025","-12.238","0.3515","-1.9234999999999998","-0.548","-29.47","25.967","4.3515"
"9.918","-4.83","-6.3445","-0.292","0.9570000000000001","-0.755","-29.154","27.792","6.552"
"23.709","-4.869","-1.8285","-0.114","1.8555000000000001","-2.103","-28.680999999999997","31.6215","9.646"
"21.378500000000003","8.0085","1.287","0.3885","2.2815000000000003","-2.7535","-26.786","35.657","13.574"
"13.318000000000001","8.217500000000001","-1.2229999999999999","1.3900000000000001","3.287","-3.2615","-23.786","38.9835","18.217"
"6.1745","7.6899999999999995","2.1485","1.3235000000000001","2.0795000000000003","-1.816","-21.8915","39.925","21.1615"
"12.363","-7.0615000000000006","14.184000000000001","0.1545","1.9634999999999998","-0.5805","-19.997","41.231","22.6095"
"2.7745","11.457999999999998","7.5504999999999995","-3.552","-0.591","-0.46599999999999997","-20.155","45.5955","20.7085"
"1.896","15.143","-5.4695","-0.383","-0.7284999999999999","1.764","-22.049500000000002","43.562","19.394"
"27.5285","-5.9875","-8.971","2.364","-1.806","4.2695","-25.207","34.591499999999996","17.2845"
"20.8435","6.857","-2.945","1.696","-2.2270000000000003","4.1145","-26.47","27.4735","14.031"
"32.304","2.4975","-6.191","1.908","-1.8695","3.2945","-27.102","21.639000000000003","10.386"
"18.9335","-19.679499999999997","-2.2865","3.0425","-2.888","1.1905000000000001","-28.207","18.887999999999998","4.582"
"-2.727","-10.54","-4.6434999999999995","-0.3975","-2.428","0.8855","-28.049","17.8015","2.347"
"-10.787500000000001","-6.8705","-5.415","-4.1615","1.3695","0.024499999999999994","-27.26","19.998","7.5055"
"-1.1605","7.1555","2.6555","-0.7335","1.6605","-2.7575000000000003","-28.049","23.625","8.932500000000001"
"10.529","20.7845","6.105","2.5495","0.44999999999999996","-2.1535","-28.049","24.899","8.7275"
"0.02400000000000002","4.2524999999999995","-1.6895","0.16699999999999998","-1.004","-0.10850000000000001","-28.523","24.891","7.381"
"26.6885","-4.99","1.311","0.3395","-1.538","-1.103","-28.996499999999997","25.975","5.5"
"-11.7805","-3.4524999999999997","-14.699","0.5445","-0.19699999999999998","1.145","-29.154","25.247","5.8785"
"28.4835","-15.485999999999999","-2.3819999999999997","1.9525000000000001","2.1125","-2.412","-28.523","28.164","9.0125"
"20.614","3.8825","-0.057499999999999996","-1.596","2.205","-2.032","-26.786","33.4735","13.53"
"17.137999999999998","12.4865","-1.0125","1.306","3.202","-3.4465","-23.786","37.3455","18.308"
"7.1675","7.8004999999999995","2.1870000000000003","1.9055","2.0244999999999997","-2.4005","-22.049500000000002","38.466499999999996","21.075"
"10.3765","-2.9275","11.379999999999999","0.028999999999999998","1.6960000000000002","-0.515","-20.4705","39.4025","22.722"
"5.7155000000000005","7.765499999999999","11.328","-2.8075","-0.28600000000000003","-0.27049999999999996","-20.786","42.673500000000004","21.685499999999998"
"0.7495","14.886500000000002","-4.046","-1.9785","-0.69","0.998","-21.734","41.929500000000004","20.375"
"20.4615","-1.43","-9.7085","2.1475","-1.7530000000000001","3.4939999999999998","-24.575499999999998","34.420500000000004","18.128"
