"AccX","AccY","AccZ","GyroX","GyroY","GyroZ","MagX","MagY","MagZ"
"-1.8585","-0.4635","6.4670000000000005","-2.0265","1.1595","-2.823","-39.735","-19.92","17.926000000000002"
"9.849499999999999","13.149999999999999","9.2315","-1.8599999999999999","0.7835","0.6725","-37.2275","-18.1085","22.880000000000003"
"22.015","-2.6125","-16.038","-5.461","2.005","2.2755","-30.477","-16.865000000000002","27.859"
"1.307","-7.361","-8.9635","-0.4465","0.3315","-1.413","-32.213","-14.71","28.781"
"22.015","1.544","-15.385","-0.139","1.803","-2.8369999999999997","-30.863","-11.379999999999999","31.688000000000002"
"13.7015","6.7755","-9.112","-0.2385","1.6795","-2.0140000000000002","-27.0055","-7.781499999999999","33.793"
"17.362000000000002","3.845","3.4315","-1.3315000000000001","1.725","-2.1704999999999997","-24.691000000000003","-3.12","35.923"
"11.5655","8.9875","1.7785000000000002","-1.708","0.5559999999999999","-1.6709999999999998","-25.2695","-0.04949999999999999","36.04"
"1.4975","14.100999999999999","1.754","-1.25","-0.5655","-1.3719999999999999","-28.549","2.513","35.278999999999996"
"-1.782","17.853","2.5395","-0.197","0.46049999999999996","-0.2835","-28.934","1.6335","35.450500000000005"
"6.0355","1.7690000000000001","6.4655000000000005","1.5005","-0.544","1.4095","-29.512999999999998","-1.237","33.841"
"21.7485","8.0305","-8.2815","0.21400000000000002","-1.828","2.0415","-33.177","-3.7315","30.102"
"19.727","4.288","-2.1335","1.8565","-2.457","2.0625","-35.685","-8.8415","25.8395"
"27.049","1.5775000000000001","-11.062000000000001","0.519","-1.995","2.1165000000000003","-38.5775","-13.082999999999998","23.7405"
"14.0445","9.134","-15.078","0.9415","-1.046","2.9255","-36.842","-18.1005","20.989"
"6.646","-5.7235000000000005","-8.553","4.2165","-0.47","1.287","-34.913","-22.666","16.182499999999997"
"-10.7065","-16.746","-4.109","1.611","-0.974","-0.3145","-37.227999999999994","-22.726","14.878499999999999"
"-9.791","-5.281","5.884","-1.971","1.053","-2.257","-39.927499999999995","-19.276","18.1625"
"7.79","10.3825","10.768","0.024500000000000022","0.3365","-1.595","-40.5065","-18.176499999999997","19.0425"
"20.6805","8.751000000000001","-6.8375","-5.6665","1.1520000000000001","1.358","-36.649","-15.238","26.1755"
"15.608","-8.998999999999999","-7.274000000000001","-2.7560000000000002","1.644","1.924","-33.756","-15.618","27.249000000000002"
"0.39149999999999996","-5.0745000000000005","-10.564","-0.95","0.41900000000000004","-1.6755","-34.913","-12.3475","28.641"
"23.387999999999998","1.9545000000000001","-14.837499999999999","0.1795","1.9034999999999997","-3.165","-34.141999999999996","-9.029","31.119"
"15.6465","6.959","-5.9735","0.0335","1.5185","-2.1065","-29.706","-5.199","33.241"
"16.180500000000002","5.346","2.031","-1.031","1.6645","-2.142","-27.1985","-0.749","34.945499999999996"
"6.303","10.9075","0.9804999999999999","-1.1764999999999999","0.12250000000000001","-1.6495000000000002","-29.127000000000002","2.2889999999999997","34.426"
"-1.592","17.927500000000002","-0.36950000000000005","-0.5780000000000001","0.2475","-1.4225","-29.32","3.1609999999999996","35.09"
"1.993","10.5785","8.062","2.23","0.5825","0.3575","-27.97","0.1185","34.977000000000004"
"12.099499999999999","0.598","-0.6384999999999998","0.8375","-0.9235","1.8119999999999998","-30.4775","-2.3565","32.304"
"21.71","7.654999999999999","-1.821","0.877","-3.091","1.9575","-33.563","-5.718500000000001","27.901"
"21.976999999999997","2.2975","-5.803","1.4475","-2.2889999999999997","2.175","-36.4565","-9.9565","24.7265"
"26.096","0.982","-11.1995","-0.5640000000000001","-2.4585","2.1814999999999998","-40.313500000000005","-12.8995","22.6485"
"15.188500000000001","6.548","-14.938","0.9095000000000001","-1.1935","3.0175","-38.7705","-17.700499999999998","20.139499999999998"
"5.1585","-5.8705","-9.174","3.122","-0.69","1.4605000000000001","-37.035","-21.391","16.0015"
"-12.27","-15.6195","-4.2875","0.579","-1.035","-0.161","-38.771","-21.219","15.7575"
"-1.0955000000000001","7.813","4.927","-0.9335","1.351","-2.518","-41.471000000000004","-18.2085","18.6065"
"11.5655","16.9665","14.791","-0.435","1.0505","0.6245","-39.542","-17.717","21.3935"
"19.765","-18.286","-16.0985","-4.5785","0.794","2.2095000000000002","-35.299","-17.409","24.633000000000003"
"-6.244","-6.71","-8.2555","-1.063","-0.13","-0.668","-35.878","-14.7865","25.992"
"26.935000000000002","-3.971","-14.131","-0.2755","2.2785","-3.4905","-34.5275","-10.576","29.991500000000002"
"15.3415","8.2365","-11.5615","0.015500000000000002","1.565","-2.2424999999999997","-32.0205","-6.786","31.6665"
"16.3325","5.3454999999999995","0.9715","-0.7075","1.8025","-2.225","-28.741500000000002","-2.3205","33.802499999999995"
"12.2905","8.0125","1.818","-1.0935","1.224","-2.1045","-27.1985","0.1265","34.1395"
"4.968","9.748999999999999","1.399","-0.756","0.032","-1.4455","-29.899","1.8335","33.546"
"-2.087","13.0975","0.0095","-0.659","0.2175","-1.1065","-30.67","2.917","34.2215"
"1.383","8.632","5.7005","1.1215","0.378","0.36850000000000005","-29.512999999999998","0.746","33.9315"
"15.150500000000001","4.1114999999999995","-5.346500000000001","0.193","-1.0110000000000001","1.8585","-32.599000000000004","-1.3010000000000002","31.0595"
"20.4895","3.3155","-2.256","1.3664999999999998","-2.247","2.3465","-35.299","-5.9745","26.393"
"26.706","4.9505","-7.054","0.766","-2.085","2.347","-37.2275","-9.972999999999999","23.8735"
"23.311500000000002","3.0865","-12.116","0.004","-1.937","2.4325","-39.542","-13.543","22.208"
"15.913","5.4185","-15.4515","2.2880000000000003","-0.9585","2.7359999999999998","-37.6135","-18.3365","18.8615"
"3.2515","-9.312999999999999","-7.0035","3.8259999999999996","-0.6765","1.4965","-35.492","-22.466","15.125499999999999"
"-12.5365","-15.7685","-3.43","0.31100000000000005","-0.9415","-0.32499999999999996","-37.998999999999995","-22.0825","15.318999999999999"
"-8.456","-1.9495000000000002","3.702","-2.031","1.046","-2.2775","-41.085","-18.628","18.184"
"8.247499999999999","11.504999999999999","10.5525","0.357","0.6295","-1.2095","-40.313500000000005","-17.512999999999998","20.3385"
"22.3965","7.289","-5.0755","-4.197","1.444","1.358","-36.2635","-15.241500000000002","25.1175"
"-4.3755","-14.241500000000002","-5.181","-0.987","-0.6605","0.448","-36.263","-14.5745","25.575499999999998"
"22.816","-1.821","-16.2855","0.1215","2.1355","-3.1935000000000002","-35.106","-10.368500000000001","29.1505"
"16.409","6.212","-11.1615","0.6990000000000001","1.653","-2.4335","-31.8275","-7.4415","31.2185"
"16.981","4.7844999999999995","3.6319999999999997","-0.5640000000000001","1.8915","-2.457","-27.777","-2.52","33.806"
"11.07","9.326","2.672","-0.8574999999999999","0.8460000000000001","-1.87","-28.5485","0.10250000000000001","33.498000000000005"
"2.642","13.761","3.9815","-0.726","-0.104","-1.4365","-30.2845","1.606","33.7395"
"-1.973","16.654","2.357","-0.08900000000000002","0.276","-0.2845","-31.055999999999997","1.154","33.718999999999994"
"6.4935","1.843","5.836","1.796","-0.734","1.3175","-32.9845","-1.9685","31.4465"
"16.676000000000002","5.532","-9.0015","0.4405","-2.1475","1.7885","-35.8775","-4.8870000000000005","27.909"
"21.8245","3.1625","-2.4305000000000003","1.847","-3.1470000000000002","1.6085","-37.6135","-9.100999999999999","23.486"
"24.112499999999997","3.2715","-7.048","2.094","-1.6135","2.1769999999999996","-39.3495","-12.2155","21.64"
"22.816","-0.175","-12.961500000000001","-0.271","-2.1155","2.6955","-39.735","-16.4015","19.974"
"10.307","5.6935","-13.527000000000001","2.4955","-0.5589999999999999","2.2079999999999997","-36.4565","-21.171","15.1685"
"-1.5915","-13.5365","-5.1335","3.5745","-0.5940000000000001","-0.04450000000000001","-37.6135","-22.945999999999998","12.762"
"-15.8545","-12.756499999999999","2.0460000000000003","-3.1235","0.8165","-2.0225","-40.313500000000005","-19.052","18.374499999999998"
"11.108","14.3825","9.515","-0.20850000000000002","1.443","-2.6135","-41.471000000000004","-17.313000000000002","19.289"
"6.7605","7.161","4.519","-1.9569999999999999","0.4985","1.5265","-38.963499999999996","-16.1655","22.312"
"20.528","1.643","-17.102","-4.247999999999999","2.1515","0.8089999999999999","-32.7915","-14.498000000000001","27.311999999999998"
"2.222","-13.139","-3.4625000000000004","0.6435","0.2585","0.9375","-32.406","-14.49","27.9485"
"21.252499999999998","-3.3915","-13.914","0.0015000000000000013","1.5154999999999998","-3.1855","-32.599000000000004","-10.096499999999999","29.826500000000003"
"17.857999999999997","5.342499999999999","-11.614","-0.121","1.7545","-1.9815","-29.32","-7.3895","32.338"
"17.553","5.83","0.237","-1.2065000000000001","1.5070000000000001","-2.1715","-26.62","-2.936","34.2235"
"12.633500000000002","8.761000000000001","1.7965","-1.35","0.8275","-1.915","-27.391","0.562","34.158500000000004"
"1.726","13.763","2.362","-0.6865","-0.167","-1.5285","-29.706","2.277","33.783500000000004"
"-0.4475","15.9405","4.9885","0.833","0.39","0.006499999999999978","-28.549","0.7665","34.3675"
"8.9725","1.347","2.8724999999999996","1.468","-0.5845","1.6484999999999999","-29.899","-2.564","32.513"
"20.642","7.73","-3.9835","0.9279999999999999","-2.614","2.1355","-33.3705","-5.715","28.115000000000002"
"18.8495","2.194","-3.7800000000000002","1.399","-2.2705","2.1639999999999997","-34.9135","-10.1445","25.1595"
"26.171999999999997","2.854","-9.368","-0.014499999999999999","-2.2835","2.0175","-38.578","-13.082999999999998","22.4515"
"17.9345","5.154999999999999","-14.784500000000001","0.23900000000000002","-1.7094999999999998","2.875","-38.771","-17.041","20.1685"
"9.201","1.2759999999999998","-13.325","2.9210000000000003","-0.8645","2.099","-35.492","-21.147","16.027"
"-4.795","-15.065999999999999","-5.245","2.1585","-0.852","0.321","-36.2635","-22.706000000000003","14.470500000000001"
"-16.5035","-12.869","0.244","-2.234","0.306","-1.6965","-38.771","-19.9","18.356"
"7.6755","5.661","5.218","-1.5785","1.7365","-2.5244999999999997","-39.542","-17.500999999999998","19.503999999999998"
"8.896","7.532","6.759500000000001","-1.855","0.139","1.0235","-38.7705","-16.381500000000003","22.305"
"20.108","11.0315","-13.116","-6.458500000000001","1.0699999999999998","1.1484999999999999","-34.334500000000006","-13.866499999999998","27.299500000000002"
"2.5275","-7.8965","-4.119000000000001","0.473","0.4315","1.0070000000000001","-32.7915","-14.498000000000001","27.7325"
"20.680500000000002","1.289","-14.8045","0.923","1.6549999999999998","-3.0275","-32.406000000000006","-10.972","29.158"
"16.942999999999998","3.7335","-8.057","0.7455","2.261","-2.3970000000000002","-29.127000000000002","-7.605499999999999","31.877499999999998"
"17.515","5.755","2.7395","-0.6245","1.795","-2.5854999999999997","-26.234","-3.8075","33.768"
"11.5655","8.3505","4.1485","-0.747","0.677","-2.0465","-27.005499999999998","-1.185","33.6885"
"1.4595","14.475000000000001","2.6665","-1.2850000000000001","0.006000000000000001","-1.608","-30.2845","0.942","33.7145"
"-1.477","15.9415","2.8760000000000003","0.653","0.14250000000000002","0.24000000000000002","-30.4775","-1.029","33.4215"
"7.409","0.45399999999999996","5.026","1.459","-1.143","1.9209999999999998","-32.019999999999996","-3.9275","30.529"
"19.383499999999998","5.898","-6.434","0.299","-2.3920000000000003","1.9785","-35.6845","-6.422499999999999","26.368499999999997"
"20.299","4.175000000000001","-2.4610000000000003","1.6524999999999999","-2.3920000000000003","2.028","-37.227999999999994","-10.852","23.201999999999998"
"25.829","4.466","-9.129","0.9205000000000001","-1.7695","2.1029999999999998","-39.156499999999994","-14.4145","20.6995"
"19.269","5.527","-14.923","0.3895","-1.5724999999999998","3.237","-37.998999999999995","-19.003999999999998","18.195"
"5.9975000000000005","-5.0855","-7.4045000000000005","3.482","-0.5195000000000001","1.3755","-34.335","-23.326","12.781500000000001"
"-12.918500000000002","-14.2685","-2.923","-0.044499999999999984","-0.4555","-0.7649999999999999","-36.842","-22.718","14.4625"
"-4.3759999999999994","3.736","4.079","-3.8485","1.8455","-2.303","-38.963499999999996","-18.804000000000002","19.6665"
"9.125","15.6205","10.0055","0.988","1.2705","-0.525","-37.227999999999994","-18.560000000000002","21.165"
"25.867","4.737","-14.5985","-4.2295","1.5055","0.766","-32.5985","-15.61","27.7055"
"3.519","-14.101","0.14599999999999996","-0.703","0.705","1.9685","-30.2845","-15.9815","28.333"
"10.993500000000001","-5.8065","-14.374500000000001","-0.652","0.9195","-3.168","-31.055999999999997","-11.8275","30.399"
"22.93","4.872999999999999","-16.5565","-0.1945","1.8379999999999999","-2.7055","-28.9345","-9.5805","32.424"
"12.366499999999998","5.205","-5.2965","0.161","1.9260000000000002","-1.8864999999999998","-25.4625","-6.21","34.3035"
"16.485","3.6595","3.774","-0.98","1.6675","-2.2305","-22.183999999999997","-2.62","36.1925"
"9.3915","9.403500000000001","0.8955","-1.4535","0.39549999999999996","-1.4020000000000001","-23.148","0.2145","35.8585"
"0.08650000000000001","15.077","2.6795","-1.1995","-0.023500000000000007","-1.0125","-25.848","2.138","35.931"
"1.4209999999999998","11.029","4.414","0.2905","-0.08549999999999999","0.63","-26.62","0.5820000000000001","35.0115"
"16.5995","5.119999999999999","-6.6425","0.20500000000000002","-1.4849999999999999","2.2045000000000003","-30.2845","-2.3525","31.674500000000002"
"18.4685","3.169","-0.6205","1.3435000000000001","-2.7045","2.1189999999999998","-32.599000000000004","-6.5785","27.6645"
"24.0745","3.0835","-5.807499999999999","0.909","-2.02","2.2394999999999996","-35.685","-10.160499999999999","24.9385"
"24.6085","3.268","-13.224","-0.0055","-2.187","2.651","-37.998999999999995","-14.1705","23.043"
"13.7395","8.868500000000001","-13.6085","2.041","-1.172","3.1734999999999998","-35.299","-18.948","19.285"
"5.54","-8.1935","-6.827500000000001","4.42","-0.7195","1.124","-34.5275","-23.33","14.0435"
"-9.791","-15.098","-4.1865000000000006","1.066","-0.858","-0.332","-35.8775","-23.137999999999998","14.8775"
"-11.0875","-2.207","2.4844999999999997","-3.6035000000000004","1.147","-1.8690000000000002","-38.385000000000005","-19.024","19.446"
