"AccX","AccY","AccZ","GyroX","GyroY","GyroZ","MagX","MagY","MagZ"
"-9.6334","-0.96477","-1.4765","-0.019238","-0.005475","-0.03299","0.53397","-0.097559","0.4778"
"-9.5805","-1.0845","-1.4903","0.021835","-0.010842","-0.04011","0.53529","-0.09545","0.47786"
"-9.6486","-0.9644","-1.5818","-0.001379","0.021792","-0.032803","0.5358","-0.096301","0.47698"
"-9.626","-0.96462","-1.5063","-0.026381","0.015657","-0.029315","0.53385","-0.096589","0.47869"
"-9.5887","-0.96441","-1.5206","0.025105","0.013814","-0.025796","0.53627","-0.095623","0.4788"
"-9.6413","-0.90463","-1.5217","0.030461","0.013833","-0.027547","0.53422","-0.094587","0.47857"
"-9.6115","-0.88945","-1.5361","0.007026","0.005054","-0.01349","0.53545","-0.094123","0.47914"
"-9.6264","-0.90451","-1.5364","0.007245","0.018259","-0.022224","0.53418","-0.094173","0.47755"
"-9.6334","-0.99458","-1.5214","0.003475","0.015632","-0.011672","0.53394","-0.093456","0.47856"
"-9.6114","-0.91939","-1.5511","0.012544","0.015604","-0.020482","0.53341","-0.093342","0.47905"
"-9.6261","-0.9645","-1.5363","0.013209","0.003293","-0.010869","0.53451","-0.093497","0.47948"
"-9.6034","-1.002","-1.5208","0.02369","0.013837","-0.001096","0.53308","-0.093644","0.48057"
"-9.6487","-0.93453","-1.5518","0.008833","0.01211","-0.013449","0.53301","-0.09099","0.47992"
"-9.6037","-0.96441","-1.5359","0.004414","0.013854","-0.014327","0.53462","-0.092117","0.47935"
"-9.6115","-0.88202","-1.5211","0.000112","0.0121","-0.022263","0.53406","-0.09011","0.47945"
"-9.6334","-1.0094","-1.5589","-0.017547","0.011247","-0.025827","0.53415","-0.090693","0.48163"
"-9.6036","-0.97941","-1.5359","-0.005125","0.027944","-0.023938","0.53432","-0.091219","0.48228"
"-9.6261","-0.96447","-1.5438","-0.012467","0.006844","-0.015259","0.53415","-0.090563","0.48151"
"-9.6264","-0.89704","-1.5289","-0.021529","-0.012505","-0.010086","0.53414","-0.090924","0.48112"
"-9.6339","-0.90444","-1.5591","-0.035432","-0.010733","-0.024195","0.53348","-0.092417","0.48109"
"-9.6111","-0.94969","-1.476","-0.044406","0.01392","-0.018735","0.53369","-0.092363","0.47957"
"-9.6258","-1.0393","-1.5812","-0.03008","0.04031","-0.018573","0.53389","-0.092914","0.48086"
"-9.5808","-1.0915","-1.6103","-0.025663","0.011233","-0.018789","0.53376","-0.094405","0.4806"
"-9.5732","-1.0991","-1.5801","-0.008607","0.022647","-0.025768","0.53329","-0.093104","0.47942"
"-9.5956","-1.0844","-1.5281","0.016372","0.018224","-0.031085","0.53224","-0.094104","0.47976"
"-9.6262","-0.97168","-1.6113","0.003856","0.013854","-0.028449","0.53281","-0.09179","0.48132"
"-9.6033","-1.0541","-1.5958","-0.005041","-0.00023","-0.028565","0.53377","-0.091573","0.48188"
"-9.5959","-1.0392","-1.5656","0.007353","0.010316","-0.025839","0.53309","-0.092546","0.48133"
"-9.611","-1.0242","-1.5885","0.010818","0.022645","-0.020456","0.53295","-0.091301","0.48158"
"-9.6257","-1.0543","-1.5887","0.017136","0.006796","-0.025866","0.53175","-0.091057","0.48217"
"-9.6113","-0.97906","-1.626","-0.00691","0.008581","-0.024078","0.53232","-0.090843","0.48296"
"-9.5811","-1.039","-1.6104","-0.019491","0.012107","-0.017007","0.53316","-0.090017","0.48402"
"-9.6108","-1.0393","-1.5659","-0.0228","0.029726","-0.02747","0.53313","-0.090609","0.48312"
"-9.5958","-1.084","-1.6181","0.003821","0.029684","-0.023951","0.53236","-0.092731","0.48322"
"-9.6109","-1.0392","-1.596","-0.032053","0.013902","-0.0117","0.53155","-0.091857","0.48357"
"-9.5809","-1.0765","-1.6103","-0.030181","0.015642","-0.015226","0.53248","-0.090739","0.48348"
"-9.581","-1.0836","-1.7003","-0.010267","0.027927","-0.029263","0.5314","-0.089866","0.48394"
"-9.5808","-1.0989","-1.6253","0.007401","0.018227","-0.0258","0.53115","-0.090868","0.48406"
"-9.5884","-1.0913","-1.6555","-0.008733","0.026177","-0.018686","0.53176","-0.091059","0.48562"
"-9.6109","-1.054","-1.6259","-0.000184","0.017385","-0.004619","0.53035","-0.090736","0.48415"
"-9.5818","-1.0844","-1.655","-0.01438","0.013759","-0.008077","0.53225","-0.090817","0.48522"
"-9.6041","-1.0994","-1.6705","-0.023502","0.007625","0.002465","0.53172","-0.090077","0.48571"
"-9.5813","-1.1596","-1.6099","-0.00032","0.004063","-0.001097","0.53118","-0.091062","0.48543"
"-9.5893","-1.0695","-1.6552","-0.011189","0.026093","0.009661","0.53066","-0.09156","0.48554"
"-9.5965","-1.1221","-1.6253","-0.012561","0.014644","-0.009841","0.53202","-0.091218","0.48598"
"-9.612","-1.0246","-1.6482","-0.018183","0.02523","0.003488","0.5327","-0.091734","0.48614"
"-9.6117","-1.0695","-1.6557","-0.001181","0.004078","-0.002845","0.52977","-0.092832","0.4864"
"-9.6044","-1.0545","-1.6705","-0.03416","-0.002044","0.000642","0.53141","-0.093862","0.4866"
"-9.5818","-1.0844","-1.655","-0.002339","0.001431","0.009486","0.53115","-0.093868","0.48685"
"-9.5667","-1.1218","-1.6697","0.008483","0.015489","0.004282","0.53115","-0.093502","0.4871"
"-9.6116","-1.0995","-1.6556","0.026258","0.029574","0.00527","0.53088","-0.093618","0.48696"
"-9.6117","-1.077","-1.6556","0.023582","0.017254","0.004306","0.52938","-0.092845","0.48689"
"-9.5747","-1.0019","-1.655","0.028014","-0.000374","0.002433","0.53089","-0.092886","0.48747"
"-9.5825","-0.94952","-1.6402","0.022903","0.017236","-0.007139","0.53208","-0.093501","0.48676"
"-9.6124","-0.94213","-1.6408","0.014107","0.017259","-0.011549","0.53115","-0.09264","0.48748"
"-9.6124","-0.93463","-1.6408","-0.007394","0.01113","-0.004533","0.53235","-0.090913","0.48779"
"-9.597","-1.0171","-1.6404","-0.016143","0.013769","-0.009826","0.5321","-0.091174","0.48816"
"-9.6113","-1.1223","-1.5956","0.00535","0.007583","-0.016946","0.53217","-0.091974","0.48945"
"-9.7002","-1.3096","-1.7172","0.14904","-0.01104","0.000541","0.53182","-0.090544","0.48815"
"-9.5231","-0.90404","-1.6991","0.19177","0.001147","-0.006352","0.53173","-0.086382","0.48737"
"-9.5983","-0.79936","-1.7007","0.084425","0.013639","-0.016838","0.5321","-0.084752","0.49058"
"-9.5828","-0.90428","-1.7003","0.007078","0.01637","-0.015081","0.53176","-0.08406","0.4889"
"-9.5675","-0.96433","-1.6699","-0.0072","0.003178","-0.013421","0.53205","-0.083712","0.48955"
"-9.5971","-1.0094","-1.6704","-0.025719","-0.005591","-0.020551","0.53045","-0.083837","0.49012"
"-9.5528","-0.91934","-1.6546","-0.061273","0.0138","-0.0204","0.53265","-0.084269","0.49086"
"-9.6418","-1.0024","-1.5963","-0.12057","0.012152","-0.032781","0.53249","-0.08523","0.48983"
"-9.6262","-1.1448","-1.6108","-0.10894","0.026211","-0.032712","0.53166","-0.087801","0.48852"
"-9.5961","-1.1971","-1.6252","-0.061251","0.010298","-0.018714","0.53276","-0.088453","0.48883"
"-9.5668","-1.0844","-1.6547","-0.044154","0.009376","-0.029287","0.53251","-0.09106","0.48831"
"-9.5963","-1.1596","-1.6252","-0.02807","0.01729","-0.031891","0.53278","-0.090196","0.48858"
"-9.6117","-1.0622","-1.6182","-0.021081","0.018174","-0.027452","0.53157","-0.091046","0.48827"
"-9.5818","-1.077","-1.64","-0.054054","0.0094","-0.023991","0.5314","-0.09114","0.48749"
"-9.5818","-1.0992","-1.7","-0.033691","0.024339","-0.017716","0.53327","-0.09152","0.48694"
"-9.5967","-1.0994","-1.6703","-0.007189","0.010233","-0.011634","0.53251","-0.090809","0.48831"
"-9.5812","-1.1894","-1.6549","0.001879","0.01373","-0.018686","0.53387","-0.09146","0.4885"
"-9.6117","-1.0844","-1.6856","-0.012341","0.00496","-0.020492","0.53264","-0.091052","0.48806"
"-9.5666","-1.1443","-1.6622","0.016189","0.003139","-0.024045","0.53216","-0.093082","0.48894"
"-9.5822","-1.0317","-1.7001","0.014171","0.029564","-0.011485","0.53269","-0.090363","0.48973"
"-9.6043","-1.0844","-1.6855","0.010683","0.019014","-0.015098","0.53188","-0.090968","0.48943"
"-9.5893","-1.0844","-1.6627","0.004915","0.015506","0.00429","0.53183","-0.091296","0.48815"
"-9.5968","-1.0843","-1.7003","0.003266","0.017267","-0.000993","0.5316","-0.089596","0.48967"
"-9.5814","-1.1593","-1.6699","0.005069","0.003173","-0.002871","0.53051","-0.088828","0.48962"
"-9.6113","-1.1446","-1.6331","0.028195","0.00844","-0.003709","0.53238","-0.089704","0.48894"
"-9.5744","-1.0843","-1.6849","0.008806","0.006681","-0.011656","0.53078","-0.08982","0.48925"
"-9.5672","-1.0615","-1.7373","-0.010764","0.00494","-0.010785","0.53187","-0.08985","0.48969"
"-9.5669","-1.0843","-1.6772","0.014023","0.006674","-0.006361","0.53215","-0.089608","0.48983"
"-9.5968","-1.0844","-1.6778","-0.001834","0.001423","-0.013457","0.53134","-0.090098","0.48979"
"-9.5819","-1.0693","-1.6851","-0.023207","0.003204","-0.011679","0.53162","-0.090357","0.48993"
"-9.5668","-1.1141","-1.7072","-0.005597","0.004939","-0.002852","0.53189","-0.090732","0.48982"
"-9.5741","-1.1294","-1.6548","0.001667","-0.010915","-0.011787","0.53217","-0.091362","0.48983"
"-9.5969","-1.062","-1.6629","-0.003869","0.003194","-0.001968","0.53231","-0.091614","0.48984"
"-9.6041","-1.0995","-1.6555","-0.021414","0.012016","-0.011621","0.53205","-0.091129","0.49034"
"-9.5894","-1.0694","-1.6777","-0.007233","0.010231","-0.009863","0.53285","-0.092364","0.48961"
"-9.5742","-1.1366","-1.7148","-0.007278","0.011984","-0.006338","0.5323","-0.092347","0.48933"
"-9.6113","-1.1595","-1.6555","0.003143","0.008476","0.004227","0.53284","-0.091362","0.48961"
"-9.5967","-1.0994","-1.6703","0.003244","0.007586","-0.001063","0.53161","-0.091084","0.48929"
"-9.5894","-1.062","-1.6552","0.010321","0.006695","-0.000178","0.53326","-0.091382","0.49001"
"-9.5971","-1.0096","-1.6404","0.012346","0.016373","-0.01157","0.53298","-0.091865","0.48961"
"-9.5673","-1.0093","-1.6848","-0.012779","0.006712","-0.001053","0.53216","-0.092094","0.48932"
"-9.5744","-1.0843","-1.6774","0.01046","0.002281","-0.006391","0.53213","-0.091198","0.4888"
"-9.5968","-1.0918","-1.7003","0.012204","-0.000351","-0.004647","0.53234","-0.092631","0.49023"
"-9.5741","-1.1219","-1.6548","-0.009021","0.000543","-0.009941","0.53254","-0.092322","0.48857"
"-9.5667","-1.1217","-1.6847","0.002852","-0.003862","0.016499","0.53255","-0.091835","0.48895"
"-9.5969","-1.0544","-1.6704","-0.005797","0.015524","0.00606","0.5323","-0.092342","0.4892"
"-9.5979","-1.0252","-1.6401","-0.0165","-0.003932","0.002508","0.53466","-0.091863","0.4885"
"-9.5979","-1.0252","-1.6476","-0.002272","-0.00307","0.002515","0.53384","-0.093321","0.48757"
"-9.5975","-1.1299","-1.715","0.003207","-0.013648","-0.002878","0.53303","-0.093309","0.48753"
"-9.6128","-1.0327","-1.6404","0.013696","-0.000441","0.004298","0.53358","-0.093086","0.48807"
"-9.5903","-1.0402","-1.6249","-0.002304","0.00221","0.004314","0.53329","-0.092561","0.48754"
"-9.6128","-1.0252","-1.6554","-0.005748","0.008383","-5.3e-05","0.53291","-0.093572","0.48791"
"-9.5977","-1.0552","-1.6401","0.006548","-0.002199","0.006045","0.5345","-0.092574","0.48747"
"-9.5978","-1.0402","-1.6401","-0.007361","0.004852","-0.008022","0.53464","-0.093569","0.48722"
"-9.5828","-1.0552","-1.6323","0.031586","0.017124","0.000887","0.53453","-0.093104","0.48824"
"-9.6277","-1.0254","-1.6257","-0.0164","0.011925","-0.000909","0.53357","-0.093076","0.48781"
"-9.5751","-1.0851","-1.6396","0.012122","0.020663","-0.002626","0.5337","-0.093314","0.48744"
"-9.6127","-1.0403","-1.6254","0.008494","0.021569","3.9e-05","0.53371","-0.093329","0.48782"
"-9.5978","-1.0104","-1.5801","-0.002096","0.002209","-0.006266","0.53533","-0.092851","0.48789"
"-9.5979","-1.0102","-1.6401","-0.014572","0.018069","-0.002629","0.53234","-0.093285","0.48712"
"-9.6052","-1.0403","-1.6102","-0.011066","0.011908","-0.000912","0.53285","-0.094507","0.48612"
"-9.5976","-1.0628","-1.6101","0.012238","0.008348","-0.009764","0.53397","-0.094677","0.48694"
"-9.6127","-1.0253","-1.6179","0.004713","0.017179","0.009718","0.53435","-0.0933","0.48683"
"-9.6278","-1.0103","-1.6482","-0.002281","-0.005696","0.002501","0.53461","-0.093049","0.48671"
"-9.5828","-1.0401","-1.6398","-0.000543","-0.01012","0.004227","0.53352","-0.093524","0.4864"
"-9.5752","-1.0627","-1.6246","0.01556","0.025064","0.002705","0.53341","-0.094404","0.48653"
"-9.6129","-0.99534","-1.618","0.023635","0.024191","-0.001697","0.53219","-0.094512","0.48647"
