"AccX","AccY","AccZ","GyroX","GyroY","GyroZ","MagX","MagY","MagZ"
"-9.5704","-1.1834","-1.7256","0.004925","0.014913","-0.016297","0.52725","-0.087675","0.48636"
"-9.5704","-1.1835","-1.7031","0.013788","-0.007104","-0.017331","0.52781","-0.089695","0.48614"
"-9.5555","-1.1683","-1.7178","0.011853","-0.009745","-0.010289","0.52784","-0.0871","0.48768"
"-9.5782","-1.1159","-1.7183","0.010126","0.016675","-0.010975","0.52802","-0.08889","0.48821"
"-9.5706","-1.1384","-1.7182","-0.011212","0.011417","-0.011018","0.52679","-0.088989","0.4879"
"-9.5707","-1.1383","-1.7482","-0.007341","0.011402","-0.025138","0.5269","-0.088466","0.48738"
"-9.5857","-1.1086","-1.696","-0.007601","0.007898","-0.014565","0.52621","-0.087455","0.48761"
"-9.5707","-1.1085","-1.6882","0.001204","0.004361","-0.011059","0.52701","-0.088696","0.48674"
"-9.5707","-1.1235","-1.6957","0.000136","0.007888","-0.002214","0.52677","-0.089723","0.48725"
"-9.5705","-1.1684","-1.7256","0.00485","0.018437","-0.01274","0.52618","-0.088426","0.48658"
"-9.5555","-1.1684","-1.7028","-0.005661","0.013158","-0.020718","0.52717","-0.087853","0.48778"
"-9.5557","-1.1384","-1.7029","0.00469","0.00083","-0.007561","0.52692","-0.088116","0.48816"
"-9.5782","-1.1234","-1.7183","-0.005878","0.014055","-0.010996","0.52748","-0.089631","0.48793"
"-9.5559","-1.1083","-1.7179","-0.007452","0.023724","-0.01975","0.52744","-0.088347","0.48741"
"-9.5554","-1.1834","-1.7028","-0.000384","0.011392","-0.018086","0.52714","-0.088071","0.48688"
"-9.5857","-1.1085","-1.7185","-0.004128","0.011416","-0.010129","0.52678","-0.088235","0.48802"
"-9.5555","-1.1684","-1.7028","0.006892","0.020181","-0.02508","0.52733","-0.08837","0.48805"
"-9.5706","-1.1384","-1.7182","-0.009387","0.016695","-0.012746","0.52638","-0.088113","0.48826"
"-9.5853","-1.176","-1.7034","0.007367","0.00084","-0.007568","0.52624","-0.088101","0.488"
"-9.5783","-1.1009","-1.7259","-0.002509","0.018457","-0.002137","0.52736","-0.089143","0.48844"
"-9.5855","-1.1385","-1.7035","-0.012198","0.002626","-0.007549","0.52769","-0.089575","0.48975"
"-9.5403","-1.2133","-1.7025","0.011929","0.018414","-0.010983","0.5271","-0.088779","0.48894"
"-9.5557","-1.1532","-1.7479","0.006643","0.025468","-0.012689","0.52576","-0.089901","0.48901"
"-9.5714","-1.1466","-1.7029","0.002826","0.006897","-0.005649","0.52742","-0.088251","0.48776"
"-9.5639","-1.1392","-1.6727","-0.005666","0.021859","-0.02319","0.52689","-0.089254","0.48774"
"-9.5714","-1.169","-1.7329","-0.007748","0.007787","-0.009179","0.52782","-0.088874","0.48739"
"-9.5713","-1.184","-1.7178","0.001204","0.021859","-0.010848","0.52617","-0.087459","0.48731"
"-9.5564","-1.1689","-1.7326","0.008243","0.023605","-0.007303","0.52727","-0.089483","0.48698"
"-9.5715","-1.1539","-1.7479","0.003133","0.020091","-0.017914","0.52627","-0.088296","0.48938"
"-9.5415","-1.1688","-1.7323","-0.006012","0.006011","-0.007428","0.52546","-0.089047","0.48948"
"-9.6013","-1.1541","-1.7335","-0.009581","0.000764","-0.00746","0.52614","-0.088182","0.48977"
"-9.5561","-1.2364","-1.7325","0.026146","0.018296","-0.012647","0.52668","-0.088307","0.48953"
"-9.5868","-1.0641","-1.7258","0.015231","0.013932","-0.003818","0.52587","-0.087303","0.49001"
"-9.5714","-1.169","-1.7329","-0.009421","0.002505","-0.014511","0.52638","-0.087408","0.48926"
"-9.5718","-1.1014","-1.7479","0.004597","0.02362","-0.00376","0.52724","-0.088456","0.48995"
"-9.5714","-1.169","-1.7329","-0.002408","0.011301","-0.009154","0.52767","-0.087986","0.49074"
"-9.5717","-1.1239","-1.7554","-0.009474","-0.002775","-0.012774","0.52709","-0.087443","0.48994"
"-9.5716","-1.1239","-1.7479","-0.014972","0.013962","-0.003834","0.52725","-0.088213","0.4902"
"-9.5565","-1.1837","-1.7851","-0.023683","0.013078","-0.010914","0.52617","-0.089451","0.4899"
"-9.5716","-1.1388","-1.7779","0.013695","0.000714","-0.014517","0.52549","-0.088692","0.49012"
"-9.5716","-1.1239","-1.7479","-0.007999","0.021879","0.003281","0.52729","-0.088247","0.49111"
"-9.5714","-1.1764","-1.7479","0.00788","0.009538","0.00848","0.52753","-0.088727","0.49035"
"-9.5492","-1.1239","-1.7325","0.008225","-0.001045","-0.009231","0.52793","-0.088724","0.49011"
"-9.5866","-1.124","-1.7482","0.007315","0.006016","-0.007417","0.5267","-0.089323","0.48967"
"-9.5414","-1.1838","-1.7322","0.01435","-0.001055","-0.003949","0.52668","-0.08943","0.48915"
"-9.5866","-1.1091","-1.7257","0.000189","0.014829","-0.006469","0.52739","-0.088842","0.49008"
"-9.5868","-1.0791","-1.7258","0.014339","0.010412","-0.003846","0.52712","-0.088843","0.4902"
"-9.5417","-1.1239","-1.7248","0.008001","0.003359","0.001388","0.52731","-0.088769","0.48814"
"-9.5865","-1.1241","-1.7182","-1.9e-05","-0.006291","0.001322","0.52678","-0.088032","0.48889"
"-9.5716","-1.124","-1.7254","0.011613","0.013051","-0.000308","0.52772","-0.089153","0.49152"
"-9.579","-1.1166","-1.7031","0.011878","0.016568","-0.012634","0.52829","-0.088063","0.48922"
"-9.5866","-1.1091","-1.7257","-0.008053","-0.002759","0.003114","0.52754","-0.088606","0.49048"
"-9.5792","-1.0941","-1.7181","0.008117","0.009536","-0.003855","0.52831","-0.088326","0.48948"
"-9.5865","-1.1092","-1.6957","-0.006131","-0.002764","-0.003944","0.52828","-0.089425","0.48845"
"-9.5865","-1.1241","-1.7182","-0.006168","-0.008046","-0.00222","0.52828","-0.090795","0.48793"
"-9.5866","-1.1017","-1.7032","-0.006201","0.000759","-0.000389","0.52911","-0.090443","0.48836"
"-9.5567","-1.109","-1.7176","-0.01872","-0.000999","0.003125","0.52873","-0.091959","0.48847"
"-9.5566","-1.124","-1.7176","-0.004438","-0.00278","0.000463","0.52777","-0.091186","0.48843"
"-9.5868","-1.0641","-1.7108","-0.002586","-0.004529","-0.003947","0.52966","-0.0912","0.48813"
"-9.6165","-1.0869","-1.6738","-0.004373","0.004292","-0.003006","0.53063","-0.091486","0.48869"
"-9.5865","-1.1092","-1.6882","-0.004052","0.006908","-0.017112","0.52944","-0.092241","0.48902"
"-9.5566","-1.1241","-1.6876","-0.004317","-0.004543","-0.005725","0.52929","-0.091855","0.48889"
"-9.5868","-1.0642","-1.6883","-0.00761","0.012195","-0.017066","0.52969","-0.092357","0.48865"
"-9.5791","-1.1091","-1.7031","-0.002255","0.014823","-0.017057","0.52882","-0.09179","0.48731"
"-9.5717","-1.0942","-1.6879","-0.002535","0.023631","-0.003757","0.52962","-0.091413","0.48709"
"-9.5863","-1.1393","-1.6732","0.006313","-0.00454","-0.00396","0.52937","-0.090311","0.48811"
"-9.5866","-1.1017","-1.7032","0.004428","0.000746","0.001377","0.5302","-0.090581","0.48828"
"-9.5718","-1.0791","-1.703","0.015292","0.006882","-0.007399","0.52973","-0.091269","0.48658"
"-9.6018","-1.0493","-1.6886","0.010094","0.004259","-0.014469","0.52992","-0.090951","0.48814"
"-9.579","-1.1168","-1.6655","-0.004413","0.02188","0.00064","0.52879","-0.092267","0.48654"
"-9.5868","-1.0567","-1.6958","-0.0023","0.009548","-0.0162","0.52901","-0.091219","0.48887"
"-9.5793","-1.0641","-1.7031","0.00746","0.018334","-0.014376","0.52925","-0.090445","0.48836"
"-9.5717","-1.0867","-1.6729","-0.00398","0.01042","-0.020612","0.52955","-0.091353","0.4889"
"-9.5718","-1.0865","-1.718","-0.005561","0.016577","-0.028513","0.52983","-0.090861","0.48917"
"-9.5788","-1.1468","-1.6655","-0.014766","0.021884","-0.013485","0.52954","-0.090964","0.48864"
"-9.5867","-1.0643","-1.6583","-0.002415","0.025397","-0.009913","0.52969","-0.091482","0.4889"
"-9.6164","-1.1168","-1.6888","-0.00419","0.013969","-0.010004","0.53075","-0.091099","0.48844"
"-9.5867","-1.0792","-1.7033","0.002793","0.009547","-0.004734","0.52943","-0.090992","0.48941"
"-9.5866","-1.1017","-1.6882","-0.003998","0.016589","-0.018807","0.52885","-0.092072","0.48809"
"-9.5865","-1.1166","-1.7032","0.015255","0.023615","-0.00376","0.52913","-0.091211","0.48862"
"-9.6018","-1.0492","-1.7036","-0.004206","0.023645","-0.009041","0.52886","-0.090337","0.48899"
"-9.5567","-1.1239","-1.7251","-0.00256","0.009539","-0.002981","0.52858","-0.090693","0.48846"
"-9.5717","-1.0866","-1.7029","0.018815","0.030646","-0.003705","0.53012","-0.090384","0.48983"
"-9.572","-1.049","-1.733","0.004663","0.006894","-0.00916","0.52887","-0.090094","0.48925"
"-9.5717","-1.1016","-1.7029","-0.002413","0.013064","-0.010009","0.52919","-0.090895","0.4903"
"-9.5791","-1.1091","-1.7031","0.001055","0.016587","-0.005574","0.52943","-0.089995","0.48979"
"-9.5716","-1.1239","-1.7479","0.006621","0.007765","-0.016229","0.53053","-0.090643","0.48984"
"-9.5792","-1.094","-1.7256","-0.002233","0.014822","-0.017938","0.52874","-0.089596","0.4895"
"-9.5867","-1.1164","-1.7632","-0.002458","0.007789","-0.007404","0.52849","-0.090492","0.48988"
"-9.5717","-1.109","-1.7329","0.002823","0.006017","-0.005649","0.52987","-0.090026","0.49046"
"-9.5715","-1.1464","-1.7479","0.011918","0.005118","-0.014487","0.52865","-0.090639","0.4904"
"-9.5716","-1.1165","-1.7254","0.011912","0.010401","-0.014443","0.52988","-0.09091","0.49046"
"-9.6091","-1.0866","-1.7262","-0.012288","0.011336","-0.005607","0.52985","-0.089257","0.4902"
"-9.5568","-1.1088","-1.7476","-0.00959","0.021869","-0.005541","0.52875","-0.089115","0.49015"
"-9.5565","-1.1465","-1.7176","0.018095","0.027993","-0.010796","0.52824","-0.087639","0.49141"
"-9.5718","-1.0939","-1.748","0.017214","-0.008091","-0.014568","0.52907","-0.089036","0.49132"
"-9.5717","-1.109","-1.7329","-0.009753","0.007797","0.000539","0.52811","-0.089888","0.49077"
"-9.5791","-1.109","-1.7256","-0.006024","0.009552","-0.007389","0.52897","-0.090192","0.49184"
"-9.5567","-1.1238","-1.7476","0.004437","0.016575","0.003244","0.52786","-0.089402","0.4914"
"-9.5566","-1.124","-1.7026","-0.01064","0.000749","-0.000395","0.52931","-0.090382","0.49005"
"-9.5717","-1.109","-1.7329","-0.002428","0.009542","-0.009154","0.52862","-0.088739","0.49027"
"-9.6091","-1.0941","-1.7262","-0.016682","-0.004505","-0.009249","0.52954","-0.088723","0.48954"
"-9.557","-1.0489","-1.7252","-0.007842","-0.003659","-0.00747","0.52913","-0.088717","0.48952"
"-9.5716","-1.1165","-1.7179","-0.016628","0.002518","-0.01097","0.52838","-0.08926","0.49078"
"-9.5567","-1.109","-1.7026","-0.006793","0.016582","-0.012634","0.52862","-0.08974","0.49001"
"-9.6016","-1.0941","-1.7185","-0.000638","0.020998","-0.00907","0.52851","-0.088761","0.49091"
"-9.5566","-1.1464","-1.7326","0.009963","0.005119","-0.006545","0.53032","-0.088953","0.49203"
"-9.5566","-1.1464","-1.7401","0.010091","0.000713","-0.012753","0.52971","-0.087884","0.49071"
"-9.5789","-1.1541","-1.718","-0.016675","-0.008041","-0.009286","0.52997","-0.089123","0.48995"
"-9.6014","-1.1242","-1.7035","0.000825","-0.008044","0.003076","0.52999","-0.089512","0.49021"
"-9.5867","-1.0865","-1.7333","-0.007818","0.002516","-0.007434","0.52863","-0.089623","0.49027"
"-9.5791","-1.1092","-1.6881","0.003874","0.007777","-0.013576","0.53006","-0.08896","0.48891"
"-9.5568","-1.094","-1.7176","0.010845","0.000718","-0.007447","0.52992","-0.090197","0.48827"
"-9.6016","-1.0867","-1.7035","-0.007945","0.000767","-0.00215","0.52942","-0.087987","0.49018"
"-9.5865","-1.1092","-1.6882","-0.003156","-0.000136","-0.018043","0.52941","-0.08773","0.49005"
"-9.5716","-1.124","-1.7179","-0.003241","0.009541","-0.012686","0.5304","-0.087899","0.49087"
"-9.5715","-1.1242","-1.6879","0.010001","0.027134","-0.007267","0.53117","-0.088495","0.48961"
"-9.6014","-1.1093","-1.6735","-0.005957","0.013084","-0.010891","0.53059","-0.086955","0.48919"
"-9.5715","-1.139","-1.7329","0.006687","0.002482","-0.019798","0.52896","-0.088064","0.48899"
"-9.5491","-1.124","-1.7025","-0.009329","0.02362","-0.017883","0.53019","-0.089083","0.48879"
"-9.609","-1.1017","-1.7037","-0.002231","-0.002768","-0.019825","0.53052","-0.088392","0.49049"
"-9.5863","-1.1393","-1.6582","-0.002136","0.009543","-0.023275","0.53177","-0.08843","0.49106"
"-9.579","-1.1242","-1.688","0.008319","0.016573","-0.012635","0.53048","-0.0881","0.48945"
"-9.5713","-1.184","-1.7253","0.01748","0.002464","-0.0251","0.52971","-0.088633","0.49045"
"-9.5715","-1.1242","-1.6654","0.010786","-0.006314","-0.005734","0.52938","-0.089076","0.48888"
