"AccX","AccY","AccZ","GyroX","GyroY","GyroZ","MagX","MagY","MagZ"
"0.06529595421987937","0.09092802744048994","-0.07011660599014476","0.0010100987736109996","-0.004582130929398394","-0.0034976830239362767","-1.0470159303718725","-1.4723449301211575","-0.1295985745127707"
"0.06543941430051525","0.09124068138043698","-0.06995551632113342","0.0026818171780609926","-0.007746308965901607","0.0007646526488076637","-1.0465979729914112","-1.472608783413807","-0.12915893579289717"
"0.06500807123927446","0.09077429726403759","-0.07136814880323283","-0.0010765647081932594","-0.0016209044831648083","0.0008044535399042877","-1.0466258368167753","-1.4723449301211575","-0.12915893579289717"
"0.06558191156181802","0.09124172009784544","-0.07056889621467659","0.0004618128767356994","-0.006688232337856777","0.0003428602785275881","-1.0474060239269696","-1.4714214435968835","-0.12918345096315034"
"0.06544037711984838","0.09092802744048994","-0.06980062240862252","-0.00106626328747936","-0.0016261697366859547","-0.0006931763317863605","-1.043895181931096","-1.4722130034748326","-0.12865555763036546"
"0.06508028268925897","0.09108279633435078","-0.070124866998812","-0.0003801116479657052","-0.007523014350663917","-0.0013763440661582896","-1.0438115904550036","-1.4723449301211575","-0.12736769401973225"
"0.06515441977790973","0.09061433478313446","-0.06950116084443478","-0.0009973304161601825","-0.007520621053608851","0.0007629538302852468","-1.043198586296994","-1.4706298837189347","-0.12907068117998577"
"0.06515056850057724","0.09100800868094151","-0.0713619530467324","0.0002786016279641988","-0.010474188949266225","0.0015997432967557307","-1.04467536904129","-1.4722130034748326","-0.1286768041112515"
"0.06544037711984838","0.09077429726403759","-0.07072998588368792","0.0007444761591283037","-0.0033187094140288724","-0.0022051248167373797","-1.0415824844258776","-1.4723449301211575","-0.12859181818770718"
"0.06544230275851463","0.09069431602358602","-0.0696436632439448","0.0010591027282219792","-0.004159953328884693","0.0007872226663197736","-1.0458456497065813","-1.4707618103652595","-0.12828619573188435"
"0.06500710841994134","0.0913165077512547","-0.07028389141565654","-0.000387139720041543","-0.00646828833849618","-0.0005111600615274098","-1.0426970374404407","-1.4712895169505587","-0.12755564365833988"
"0.06515153131991036","0.09093010487530687","-0.0710521652217106","-0.00022404993789812628","-0.005206302801359697","0.0007801847038697608","-1.0428084927418968","-1.4708937370115842","-0.12884350726897306"
"0.06529499140054623","0.09100800868094151","-0.07073618164018837","-0.0007222728556030742","-0.008788829163088506","-0.0013862942889324458","-1.0434214968999067","-1.4723449301211575","-0.12757198710517534"
"0.0651534569585766","0.09069431602358602","-0.07012280174664519","-0.0009082760782129211","-0.008785478547211413","0.0003258720933034194","-1.041387437648329","-1.4715533702432084","-0.13094527453201146"
"0.06522277995056174","0.09123964266302852","-0.07012073649447838","0.0008240955510011524","-0.0037368184095489623","-0.0017770225490883274","-1.042529854488256","-1.4698383238409858","-0.12991073434732772"
"0.06486653679730484","0.09084700748262993","-0.06920376453241385","0.0025287399917516464","-0.0028943778461656103","-0.0009152361815022804","-1.0398549272533049","-1.4694425439020113","-0.12983882318125176"
"0.06551258856983289","0.0909290661578984","-0.0701062797293107","0.0003978863033335574","-0.0075313908903566484","-0.0022340047316184667","-1.0448425519934745","-1.471157590304234","-0.1308276017147963"
"0.06486364833930545","0.09108279633435078","-0.07059987499717876","0.0007850079172643004","-0.00836473692493075","0.002472450640557314","-1.0444245946130133","-1.467991350792438","-0.1342515538268223"
"0.06515249413924348","0.09092802744048994","-0.07012280174664519","0.0018518307483925182","-0.006478100856421951","-0.002011944881902546","-1.042056169457067","-1.468914837316712","-0.12818650070618812"
"0.06493682260862309","0.09077221982922067","-0.07075063840535604","0.0010559256545438604","-0.005418109590733068","0.0012068308413567418","-1.0415546206005135","-1.4706298837189347","-0.12731049195580818"
"0.06522374276989486","0.09100696996353305","-0.07042845906733337","0.0009584953950815596","-0.004999043276390952","0.0024957487231504595","-1.038099506255368","-1.4704979570726098","-0.1274314334623905"
"0.06522374276989486","0.09077533598144603","-0.07166761036742057","0.000284089300680949","-0.004155406064480066","0.0016431845132575335","-1.038127370080732","-1.468782910670387","-0.12679403903580808"
"0.06529787985854563","0.09077014239440374","-0.06918517726291254","-0.000889598735983982","-0.0062600714947054084","-0.0017969229946366394","-1.042111897107795","-1.4708937370115842","-0.1298960252451758"
"0.06500614560060822","0.09124068138043698","-0.07105836097821104","-0.001255058483927554","-0.00456896779559553","0.0012143541805274454","-1.041025207918596","-1.4702341037799602","-0.1307262723444165"
"0.06486653679730484","0.09076910367699528","-0.06951355235743564","-0.0002940418337766765","-0.006677941160519991","-0.0013714902989513844","-1.0367341788125282","-1.4707618103652595","-0.12974893422365683"
"0.0652218171312286","0.0913954502742978","-0.07012073649447838","-0.0005440679047486088","-0.006682009765513604","-0.002225753327366727","-1.0383781445090088","-1.471157590304234","-0.1315058547584673"
"0.06515441977790973","0.09061641221795137","-0.07012073649447838","0.0024256295096527093","-0.004160910647706718","0.0012153249339688264","-1.0390747401431106","-1.4712895169505587","-0.13045333678226453"
"0.06522374276989486","0.09108487376916768","-0.07043052431950018","0.0018383522540005004","-0.0020538519204263105","-5.27217488351987e-05","-1.0421397609331593","-1.4707618103652595","-0.13032585789694806"
"0.06529402858121311","0.09131962390348007","-0.07073618164018837","-5.017736024109518e-05","-0.004576626346171743","0.0003581496452293399","-1.0431428586462657","-1.4707618103652595","-0.1282110158764413"
"0.06529595421987937","0.09100593124612459","-0.07011660599014476","-0.0007477857199879652","-0.007101554739266734","0.0016240121327902573","-1.043198586296994","-1.4715533702432084","-0.12928151164416304"
"0.06522374276989486","0.0909290661578984","-0.07042845906733337","0.0011457501921706657","-0.00858228762723628","0.0003285416652672173","-1.042474126837528","-1.470366030426285","-0.12947926735087192"
"0.06486364833930545","0.09123860394562006","-0.07013519325964607","2.1932584756200543e-05","-0.007098682782800654","0.0016257109513126743","-1.0433657692491785","-1.470366030426285","-0.13100247659593556"
"0.065224705589228","0.09077325854662913","-0.07042845906733337","0.000284185575640892","-0.0016268877258024744","0.0016616288286437739","-1.0447868243427463","-1.4707618103652595","-0.12975547160239095"
"0.06529787985854563","0.09069431602358602","-0.06980475291295614","-0.000548111453066214","-0.003733228463966363","-0.0013515898534030724","-1.0425855821389842","-1.470366030426285","-0.13098123011504945"
"0.06515249413924348","0.09100593124612459","-0.07012280174664519","0.00046200542665558546","-0.001205428114405291","0.0008095499954715383","-1.0429478118687174","-1.4685190573777374","-0.12971134429593528"
"0.06515249413924348","0.09092802744048994","-0.07012280174664519","0.00031470473794281825","-0.004156124053596586","-0.0022097358955839403","-1.0397991996025766","-1.4699702504873107","-0.12940735618479596"
"0.06529595421987937","0.09092802744048994","-0.07011660599014476","0.001762006210765713","-0.004583327577925928","-0.0013562009322496324","-1.0403286122844941","-1.4702341037799602","-0.13156305682239136"
"0.06515249413924348","0.09092802744048994","-0.07012280174664519","0.001169048732476868","-0.0062653367482265535","-0.0022245398855650013","-1.0450654625963873","-1.4715533702432084","-0.12868987886871988"
"0.065224705589228","0.09092802744048994","-0.07011867124231157","0.00027725377852499706","-0.004996889309041392","0.002067161078780717","-1.0431149948209018","-1.4708937370115842","-0.12778118322466905"
"0.06529691703921249","0.09077429726403759","-0.07073618164018837","0.0007929024639796253","-0.003735861090726936","0.0020749271063117652","-1.0450933264217512","-1.470366030426285","-0.12848068274922617"
"0.065224705589228","0.09092802744048994","-0.07011867124231157","0.00030267036794994514","-0.0028919845491105433","-0.0007019131127587905","-1.0442852754861929","-1.4718172235358582","-0.12845453323428943"
"0.06543941430051525","0.09108383505175924","-0.06980062240862252","0.00012485051693525166","-0.0033148801387407664","-6.170121816797354e-05","-1.044313139311557","-1.471157590304234","-0.128456167578973"
"0.06558383720048427","0.09093114359271533","-0.07072379012718749","0.00011310497182220742","-0.006686796359623737","0.001197851372023967","-1.0459292411826735","-1.4704979570726098","-0.1295740593425175"
"0.06515153131991036","0.0909290661578984","-0.07074237739668879","0.00045796187833798004","-0.00836832687051335","0.0007581000630783414","-1.0451490540724795","-1.4704979570726098","-0.12955281286163145"
"0.06486461115863859","0.09092698872308148","-0.07029008717215696","-3.1114918172384186e-05","-0.004151337459486453","-0.0017813909395745418","-1.041777531203426","-1.4702341037799602","-0.13053178532707468"
"0.065224705589228","0.09092698872308148","-0.06980888341728976","0.0014272581750439538","-0.0062670120561651","-0.0024385910193895277","-1.0409416164425038","-1.4715533702432084","-0.13007580316036574"
"0.06543941430051525","0.09093010487530687","-0.07072998588368792","0.0009962351793792097","-0.004583088248220422","-0.0017850312649797207","-1.0414988929497853","-1.4716852968895335","-0.12709312411289675"
"0.06544037711984838","0.09085220106967222","-0.07072998588368792","0.0001397731357264143","-0.003105705976127968","-0.0015610299083810388","-1.041721803552698","-1.4706298837189347","-0.12967212002353018"
"0.065224705589228","0.09092802744048994","-0.07027356515482247","0.00013736626172783972","-0.007948303237349207","-0.0018085720359332117","-1.0448704158188387","-1.471157590304234","-0.1312574343665685"
"0.06508028268925897","0.09092802744048994","-0.0704346548238338","0.000625961683438489","-0.007103708706616294","0.0011956671767808596","-1.0458735135319452","-1.470366030426285","-0.12871602838365656"
"0.06522374276989486","0.09108279633435078","-0.06980888341728976","0.0021947621557094313","-0.009640124925575604","-0.0024616464136223274","-1.0440345010579164","-1.4701021771336353","-0.12952339465732765"
"0.06500807123927446","0.09100489252871613","-0.07012899750314562","0.0008884072242430665","-0.0033117688525691803","0.0007947460054904769","-1.0447589605173822","-1.470366030426285","-0.12932890763998584"
"0.0651534569585766","0.09077221982922067","-0.07012280174664519","0.0008218812269224637","-0.0033146408090352596","-0.0013479495279978934","-1.0444245946130133","-1.472081076828508","-0.13081289261264437"
"0.06515249413924348","0.09092802744048994","-0.07012280174664519","0.0009659085669971695","-0.0045771050055827545","0.0016419710714558073","-1.042056169457067","-1.4723449301211575","-0.13010522136466954"
"0.06543941430051525","0.09100800868094151","-0.07042019805866612","0.0009733217389127792","-0.010058951910212215","0.00031834875413271595","-1.0417496673780622","-1.4707618103652595","-0.1301003183306189"
"0.06544037711984838","0.09077429726403759","-0.07088487979619883","-0.0003730835758898673","-0.005421460206610162","-0.0017920692274297333","-1.04392304575646","-1.4714214435968835","-0.12865882631973252"
"0.06529691703921249","0.09092802744048994","-0.06980681816512296","0.0007269541164186804","-0.007528758263596076","-0.0007344333530450565","-1.045706330579761","-1.470366030426285","-0.13171014784391039"
"0.06508028268925897","0.09092698872308148","-0.070124866998812","-3.5928666169533415e-05","-0.005417630931322055","-0.0013622681412582642","-1.043226450122358","-1.4715533702432084","-0.12992544344947965"
"0.06515249413924348","0.09077325854662913","-0.07074237739668879","0.00030315174274966005","-0.006683685073452151","-0.0009438734080230225","-1.0432543139477222","-1.4708937370115842","-0.12992707779416315"
"0.06529499140054623","0.09108487376916768","-0.07042639381516656","0.0008162972792457707","-0.0028946171758711162","-0.0007014277360380998","-1.0408858887917756","-1.4702341037799602","-0.1287944769284667"
"0.06515153131991036","0.09100696996353305","-0.07074237739668879","0.00012176971821707614","-0.0045754296976442095","0.0003569362034276136","-1.0426970374404407","-1.4723449301211575","-0.1279805732760615"
"0.06544037711984838","0.09077429726403759","-0.07072998588368792","0.001097708987159116","-0.0035312341925187634","-0.0034913731265673003","-1.0428920842179892","-1.4704979570726098","-0.13013300522428978"
"0.06522374276989486","0.0909290661578984","-0.07042845906733337","-0.0012254057962651141","-0.004152294778308479","-0.0022102212723046303","-1.0424183991868","-1.4708937370115842","-0.12904780035441615"
"0.06515249413924348","0.09100593124612459","-0.07012280174664519","-0.000710719860409916","-0.001624733758452915","-0.00219177695691839","-1.0433379054238143","-1.4702341037799602","-0.1307883774423912"
"0.06522374276989486","0.09108279633435078","-0.06980888341728976","0.0003169190620215069","-0.0024714822565353872","-0.0024111672346705127","-1.0409137526171397","-1.4707618103652595","-0.12922104089087186"
"0.0654413399391815","0.09061848965276834","-0.07072998588368792","0.00013688488692812481","-0.0054228961848432015","-0.0013642096481410262","-1.0397713357772127","-1.4694425439020113","-0.1287650587241629"
"0.06486461115863859","0.09092698872308148","-0.07013519325964607","0.0015886150079083968","-0.0024705249377133605","-0.0009125666095384828","-1.037765140350999","-1.4707618103652595","-0.1282780240084666"
"0.06529402858121311","0.09131858518607162","-0.07027149990265566","0.001989215116231158","-0.006267251385870607","0.0018460719825061775","-1.0432543139477222","-1.4707618103652595","-0.12971461298530235"
"0.06522277995056174","0.09093114359271533","-0.07135988779456559","0.0011612504607214863","-0.0041594746694736786","-0.0009256717809971273","-1.043226450122358","-1.4701021771336353","-0.12928641467821367"
"0.06529595421987937","0.09085220106967222","-0.07104596946521016","-0.0019081878121807647","-0.0028871979550004105","-0.002202212556413236","-1.0432821777730863","-1.4698383238409858","-0.12971788167466944"
"0.06486557397797171","0.09092595000567302","-0.06967051152211336","-0.00227441775980388","-0.004985401483177073","0.00013997280927894413","-1.0380159147792758","-1.4699702504873107","-0.1312852182261888"
"0.06529787985854563","0.09061745093535983","-0.07042432856299974","0.0020884745999323754","-0.002687357650902371","0.0007971728890939296","-1.0386846465880137","-1.4698383238409858","-0.13001860109644167"
"0.06529499140054623","0.09100800868094151","-0.07073618164018837","0.0011669306833581223","-0.0050031118813845645","-0.0017874581485831733","-1.0415267567751494","-1.471157590304234","-0.12730885761112465"
"0.06515056850057724","0.09123964266302852","-0.070432589571667","-0.0006636414049977962","-0.0037291598589727503","0.0020771113015548726","-1.040245020808402","-1.469046763963037","-0.1298502635940366"
"0.0650812455085921","0.09092698872308148","-0.0698150791737902","0.00012080696861764633","-0.00963055173735534","-0.00010684125319219326","-1.0383502806836449","-1.4682552040850878","-0.13001533240707458"
"0.06500903405860758","0.09077221982922067","-0.07059367924067833","0.00010992789814408899","-0.003730356507500283","0.001861118660847584","-1.035563898147237","-1.4712895169505587","-0.12971461298530235"
"0.06500807123927446","0.09092802744048994","-0.07043878532816743","2.896065683203855e-05","-0.006679616468458538","0.000984285614920131","-1.0381830977314601","-1.4707618103652595","-0.12850356357479578"
"0.0651534569585766","0.09092698872308148","-0.06965812000911249","0.0007860669418236732","-0.0028903092411719966","0.0027248465353163923","-1.0348673025131352","-1.4718172235358582","-0.13097959577036591"
"0.06515153131991036","0.09108383505175924","-0.070432589571667","-0.0002316556597336222","-0.0037308351669112965","0.0016482809688247843","-1.041387437648329","-1.4708937370115842","-0.13051871056960632"
"0.06500903405860758","0.09077325854662913","-0.07090346706570014","0.0003005523188311995","-0.005417630931322055","-0.0005065489826808498","-1.0413595738229648","-1.4702341037799602","-0.13009214660720117"
"0.06572729728112015","0.09100800868094151","-0.07025291263315435","0.0011526819892865607","-0.008588749529284961","-0.0005281482467515785","-1.0396877443011205","-1.471157590304234","-0.12832868869365652"
"0.06500807123927446","0.09092802744048994","-0.07043878532816743","-2.9670793773239388e-05","-0.002467892310952787","-0.0017697418982779692","-1.0397713357772127","-1.471025663657909","-0.12961655230428967"
"0.06522374276989486","0.0909290661578984","-0.07042845906733337","-0.0002057576955089592","-0.004154927405069052","-0.0013535313602858344","-1.0397991996025766","-1.471025663657909","-0.13004638495606194"
"0.06500903405860758","0.09084908491744685","-0.07012899750314562","-0.000367595903173117","-0.006259114175883381","-0.00265337021829509","-1.040662978188863","-1.4702341037799602","-0.13092893108517603"
"0.06500903405860758","0.09100489252871613","-0.06981920967812383","0.0028780255464247962","-0.0041621072962342515","-0.0017804201861331608","-1.040635114363499","-1.4693106172556865","-0.13007416881568218"
"0.06544037711984838","0.0909290661578984","-0.07011041023364432","0.0014837715765304862","-0.003739929695720549","0.0012194506360946958","-1.0428084927418968","-1.4707618103652595","-0.12884514161365662"
"0.06522374276989486","0.09108383505175924","-0.07027356515482247","0.000968315440995744","-0.008791701119554586","0.0009702096900201058","-1.0404400675859504","-1.4698383238409858","-0.12771254074796018"
"0.06522374276989486","0.09100696996353305","-0.07073824689235517","0.0006410768521495378","-0.0016290416931520346","-5.053755359209121e-05","-1.0420283056317028","-1.470366030426285","-0.1286097959792262"
"0.0651534569585766","0.09077221982922067","-0.070432589571667","-0.0007216952058434163","-0.0028881552738224373","-0.0009171776883850432","-1.0404122037605863","-1.4752473163403037","-0.1296214553383403"
"0.06507931986992585","0.09123860394562006","-0.06981714442595702","-0.0015737286013388343","-0.002463105716842655","-0.0015539919459310258","-1.0420283056317028","-1.4712895169505587","-0.12903635994163132"
"0.06522374276989486","0.09100593124612459","-0.07011867124231157","0.0006237473593598004","-0.0041556453941855725","0.0016451260201402957","-1.0435050883759989","-1.4724768567674824","-0.12864411721758062"
"0.06500903405860758","0.0907711811118122","-0.07012899750314562","0.0006271169829578049","-0.005417391601616548","0.0012070735297170872","-1.0415267567751494","-1.4731364899991064","-0.1281603511912514"
"0.06500903405860758","0.0907711811118122","-0.07012899750314562","0.0009951761548198368","-0.005420263558082628","-0.0017910984739883526","-1.0445081860891057","-1.4686509840240622","-0.13039776906302403"
"0.06558191156181802","0.09124172009784544","-0.07041400230216568","0.0020199268284529703","-0.005008855794316724","-0.001572193572956921","-1.045344100850028","-1.4685190573777374","-0.13127704650277106"
"0.06529691703921249","0.09077325854662913","-0.07027149990265566","0.00031740043682122184","-0.0037368184095489623","-0.0024218455225257043","-1.040997344093232","-1.470366030426285","-0.1302948053479607"
"0.065224705589228","0.09077325854662913","-0.07073824689235517","-0.0009143414006893292","-0.0026763484844490658","0.0016538628011127253","-1.042084033282431","-1.4701021771336353","-0.12904126297568197"
"0.06515249413924348","0.09092802744048994","-0.07027769565915609","-0.000529337835877332","-0.003311529522863673","-0.0034889462429638475","-1.0455670114529405","-1.4699702504873107","-0.12956588761909982"
"0.06515249413924348","0.09092698872308148","-0.0698130139216234","0.0006446390256674282","-0.005420263558082628","-0.0009336804968885211","-1.0377930041763632","-1.472740710060132","-0.12955771589568207"
"0.06529595421987937","0.09092802744048994","-0.07011660599014476","0.0006303903315958663","-0.005420981547199148","0.0007792139504283798","-1.0421397609331593","-1.4701021771336353","-0.1298992939345429"
"0.0654413399391815","0.09077325854662913","-0.06995551632113342","0.0006470458996660028","-0.0028958138243986497","-0.0009169350000246977","-1.041777531203426","-1.4708937370115842","-0.1307442501359355"
"0.06529691703921249","0.09077325854662913","-0.07042639381516656","0.00099430968018035","-0.002052894601604283","-0.001339212747025464","-1.0418611226795182","-1.4699702504873107","-0.13160554978416353"
"0.06500807123927446","0.09100593124612459","-0.07043878532816743","-0.000568810569453956","-0.00457112176294509","0.000999574981621883","-1.0425577183136203","-1.4691786906093618","-0.13012810219023915"
"0.065224705589228","0.09092802744048994","-0.07011867124231157","-0.0010830151305094395","-0.005203909504304631","0.0009947212144149778","-1.043226450122358","-1.4702341037799602","-0.12928641467821367"
"0.06529499140054623","0.09123964266302852","-0.07011660599014476","0.0008011821105347219","-0.010056319283451642","0.00031956219593444246","-1.0433379054238143","-1.4704979570726098","-0.13100247659593556"
"0.06515249413924348","0.09092698872308148","-0.0698130139216234","0.0011490235408087271","-0.007949260556171232","-9.494952353527523e-05","-1.0396041528250282","-1.4718172235358582","-0.12768312254365635"
"0.06515153131991036","0.0909290661578984","-0.07074237739668879","0.0018567407713496102","-0.0033187094140288724","-0.002203911374935653","-1.040607250538135","-1.470366030426285","-0.1300709001263151"
"0.0655848000198174","0.0909290661578984","-0.06979442665212209","0.0011507564900877006","-0.005426486130425801","-7.747596159041595e-05","-1.0428920842179892","-1.4686509840240622","-0.12928151164416304"
"0.06486268551997233","0.09131754646866316","-0.07075476890968967","0.0011637536096800038","-0.003312247511980193","-0.0013452799560340959","-1.0428084927418968","-1.471025663657909","-0.12905760642251743"
"0.06522566840856112","0.09061745093535983","-0.07042845906733337","0.0009706260400343756","-0.007528040274479556","0.0009770049641097732","-1.0466815644675036","-1.4708937370115842","-0.12959367147872006"
"0.06515056850057724","0.09124068138043698","-0.07074237739668879","-0.00036576667893420026","-0.00878930782249952","-0.0030982179828079664","-1.0452047817232075","-1.4704979570726098","-0.12998264551340366"
"0.06529595421987937","0.0912375652282116","-0.06918724251507935","0.0007936726636591691","-0.008370002178451895","0.0011886292143308468","-1.0459292411826735","-1.470366030426285","-0.12935996018897317"
"0.06529306576187999","0.09108798992139307","-0.07213022685278647","0.00030517351690846276","-0.005421938866021174","-0.0009344085619695568","-1.0443688669622853","-1.4695744705483362","-0.12889090326479585"
"0.06529499140054623","0.09123964266302852","-0.06980681816512296","0.0014907996486063241","-0.002474354213001466","0.0003736817002914372","-1.0437279989789114","-1.4699702504873107","-0.130799817855176"
"0.06500903405860758","0.09069535474099448","-0.07105836097821104","-0.0011521405517485029","-0.005413322996622936","-0.000721570869946757","-1.045344100850028","-1.470366030426285","-0.13191444092935348"
"0.06544037711984838","0.0909290661578984","-0.07026530414615523","-0.0009189625987665928","-0.002467892310952787","0.0020843919523652306","-1.042864220392625","-1.4716852968895335","-0.13034383568846705"
"0.06529595421987937","0.09108279633435078","-0.06965192425261205","0.00035311844696006935","-0.006893337895475962","0.0029112311960615587","-1.0391304677938389","-1.4702341037799602","-0.1308864381234039"
"0.0650812455085921","0.09084908491744685","-0.070124866998812","0.0007251248921797637","-0.008368805529924363","-0.0005266921165895069","-1.041387437648329","-1.4715533702432084","-0.13094527453201146"
"0.06500903405860758","0.09092698872308148","-0.07012899750314562","0.0015007159694804513","-0.005842680488301838","-0.0009365927572126643","-1.0445360499144698","-1.4698383238409858","-0.13103679783428998"
"0.06486461115863859","0.09092698872308148","-0.07029008717215696","0.000490406539838766","-0.003310811533747153","-0.002632013642584706","-1.042529854488256","-1.4708937370115842","-0.13055139746327724"
"0.06558287438115114","0.09124068138043698","-0.06994932056463299","0.0017613322860461121","-0.004165218582405838","-0.0013518325417634178","-1.0423905353614358","-1.4718172235358582","-0.12904453166504906"
"0.06500903405860758","0.09077325854662913","-0.07090346706570014","0.0003135494384235024","-0.002679938430031666","-0.0017721687818814218","-1.0417496673780622","-1.4708937370115842","-0.13031441748416325"
"0.06500710841994134","0.09123860394562006","-0.06981920967812383","-0.0007325742763169736","-0.004992102714931259","-7.262219438351057e-05","-1.0407187058395913","-1.4708937370115842","-0.13199942685289778"
"0.06500903405860758","0.09077221982922067","-0.07043878532816743","-0.0005574501241806836","-0.00752133904272537","-0.000521352972661911","-1.0425577183136203","-1.4708937370115842","-0.13097959577036591"
"0.06522566840856112","0.0907711811118122","-0.06949909559226797","0.0014916661232458111","-0.007529715582418103","-9.252263993182265e-05","-1.0387403742387418","-1.470366030426285","-0.13109073120884696"
"0.06515056850057724","0.09123964266302852","-0.070432589571667","0.00046989997337091026","-0.005419545568966108","-0.0005043647874377423","-1.0415824844258776","-1.4707618103652595","-0.13352427044264492"
