"AccX","AccY","AccZ","GyroX","GyroY","GyroZ","MagX","MagY","MagZ"
"0.0016131578882095374","-0.0051663168098378945","0.007768183724669869","-0.0009663298790585414","-0.0031777442174854647","-0.0014962321161688522","0.08550925155101279","0.34716099066159317","0.3028702752340297"
"0.0016112322495432712","-0.004932293777711438","0.0076126702365089255","0.00397469361513534","-0.0065628235721713005","0.0008374591569112441","0.08706962577140076","0.34912669769183297","0.3041940944277009"
"0.0018943011334825446","-0.004380942577299881","0.00529958780967947","-0.00098982096928463","-0.0073937763096903345","0.0010459284584478294","0.08548138772564852","0.34966759694176486","0.3035076696606121"
"0.0018259409608305333","-0.004542255390834009","0.0077760316829037545","-0.0008204733147449188","-0.0029683307251671593","0.001292014455837931","0.0869860342953089","0.3493377803259528","0.3029029621277006"
"0.0013917094415903696","-0.004230536296554605","0.006827048312253634","0.000439188261149098","-0.004018988132341284","0.004070068116710212","0.0877104937547747","0.349509284966175","0.30249437595681444"
"0.001753729510846041","-0.004697751386880749","0.007463352504848416","0.001394332138743453","-0.0006564057699730725","0.0028068752011130935","0.0886578638171533","0.3477678532346873","0.30422678132137176"
"0.0013917094415903696","-0.004384993575192884","0.006207472662210031","0.0007970422872571736","-0.0021254115023727933","0.0025833592212351018","0.08768262992941074","0.3468707520396785","0.300794657485928"
"0.0014648837109080034","-0.004542151519093163","0.006985866203881478","0.0007449575339280186","-0.003181573492773571","-0.0014930771674843636","0.09269811849494457","0.34647497210070405","0.3015791429340295"
"0.0014639208915748789","-0.0042318866291856045","0.007604822278275038","0.0017357231467012783","-0.005288632220053979","0.0023484368884208818","0.08784981288159506","0.34861218377116626","0.30421043787453633"
"0.00146199525290863","-0.00407379383961771","0.006519738789832008","0.0010686339492563344","-0.002760113881376388","0.0006532586914091857","0.08832349791278438","0.3482295964968242","0.29996114169732024"
"0.0018981524108150425","-0.004773681629439311","0.006849972611305249","0.0003886439071790308","-0.0031849241086506636","0.00021836114967046575","0.09080337837018733","0.34665966940555876","0.3017425774023839"
"0.00146199525290863","-0.0039179862283484305","0.006519532264615326","0.002079809853537507","-0.0038155578826606453","0.00235984324135711","0.08581575363001746","0.34867814709432865","0.2969049171390917"
"0.001607380972210773","-0.004384785831711192","0.006526760647199169","0.0009725515392332354","-0.003182291481890091","0.0019334397922304738","0.09197365903547847","0.34696310069210595","0.29687223024542087"
"0.0015361323415593884","-0.004386343907823884","0.007143444944209234","0.0017408257195782567","-0.0046582377757495045","0.0019237322578166635","0.09030182951363376","0.3475303852713026","0.3006639099112444"
"0.0015342067028931393","-0.003996201649205609","0.006832624493104027","0.0006431949012682833","-0.003602315115054234","0.00021933190311184674","0.09155570165501738","0.3463298527897467","0.30133399123149773"
"0.0016102694302101467","-0.004698686232548365","0.007612257186075562","0.001671796573299136","-0.0023424835452673107","0.00022564180048082372","0.08796126818305149","0.34724014664938807","0.2997486768884594"
"0.00146199525290863","-0.0039179862283484305","0.006519532264615326","0.0006164304624041336","-0.00528504227447138","0.003205854865520714","0.08553711537637673","0.3459868435093022","0.3024453456163081"
"0.0018952639528156691","-0.004229393707405296","0.007313621722754545","-0.0001094827355659741","-0.004658716435160517","-0.0019308869695472263","0.09071978689409517","0.3478470092224822","0.3010888395289661"
"0.00146199525290863","-0.0039192326892385845","0.007139314439875611","0.001705396534319238","-0.0050818513544962475","-0.004073097126314908","0.0898560083078084","0.3490475417040382","0.3004187582087127"
"0.0014610324335755055","-0.003685313528852974","0.006983800951714666","0.000988244357703942","-0.0036025544447597403","-0.00020707154601478896","0.09027396568826981","0.3483747158077815","0.3004351016555482"
"0.0018923754948162955","-0.0036837554527402814","0.007157282133726876","0.0012619540688218484","-0.005295094122102658","-0.0023606880557186963","0.08966096153026014","0.34665966940555876","0.301709890508713"
"0.0013185351722727358","-0.0039192326892385845","0.006823124333136693","0.0021096550911198324","-0.002762507178431454","-0.001058665002466334","0.08835136173814863","0.3493905509844827","0.3008110009327635"
"0.0014648837109080034","-0.004541839903870625","0.006830765766153897","-0.001149829952709871","-0.004649621906351266","-0.0002192059640320525","0.08539779624955636","0.3493773583198502","0.30200407255175105"
"0.0016121950688763958","-0.0051650703489477395","0.007148401549409583","0.00040703242452814093","-0.004025450034389963","-0.001930401592826537","0.0872925363743136","0.34886284439918336","0.3016445167213712"
"0.0018923754948162955","-0.0037610360279298435","0.006847700833921754","-0.00012238358019833406","-0.0065539683730675554","-0.0006572584544552612","0.09225229728911921","0.3498391015819871","0.3019877291049156"
"0.001607380972210773","-0.003997240366614071","0.0074555045466145305","-0.0013406469233168674","-0.003174154271902866","0.0019356239874735812","0.09069192306873092","0.3478602018871147","0.30087637472010526"
"0.0011750750916368585","-0.00392047915012874","0.007126922926874739","0.0010659382503779308","-0.004862864673957677","0.0006396681432298508","0.0902182380375416","0.3479129725456446","0.29937277761124415"
"0.0016054553335445242","-0.0039173629979033535","0.006525728021115762","0.0007290721655374261","-0.006131790772553851","-1.2435481017884141e-05","0.09166715695647348","0.34759634859446503","0.298343140460611"
"0.0014639208915748789","-0.004386032292601346","0.0068305592409372146","-0.0010822449308298956","-0.003595135223889035","0.001930527531906331","0.08810058730987184","0.34850664245410634","0.3022982545947891"
"0.001753729510846041","-0.0045419437756114706","0.007463145979631735","-0.0011612866729430861","-0.006547985130429889","0.0008381872219922799","0.09214084198766309","0.3454063662654729","0.3039162558314983"
"0.0014648837109080034","-0.0043872787534915","0.0074503414161975","0.0004320639141133171","-0.005493977107378671","0.004701543230328601","0.0942306288899686","0.3479657432041746","0.3022492242542828"
"0.0014610324335755055","-0.003917051382680815","0.006054644001865941","0.0012358635546772996","-0.00360327243387626","0.0010760218151306426","0.08829563408742042","0.3464353941068066","0.30401431651251093"
"0.001753729510846041","-0.004697751386880749","0.007463352504848416","0.0008698261569740703","-0.005710331161156669","0.0036276472358007894","0.09144424635356095","0.34536678827157546","0.30496223642896686"
"0.0013194979916058773","-0.004075351915730402","0.006978431296080956","0.001936552713142345","-0.005711288479978695","-0.001080264266537063","0.0894380509273473","0.3462638894665843","0.303834538597321"
"0.0017489154141804013","-0.0037610360279298435","0.0065315107271828364","0.00178867437466992","-0.0038215411252983103","-0.003635772700972734","0.09247520789203173","0.34493143033870355","0.3028539317871943"
"0.0014629580722417543","-0.0040744170700627875","0.00682973314007049","0.0018762845882180365","-0.00528719624182094","0.005989247670320591","0.09384053533487145","0.3486385691004312","0.3022328808074473"
"0.00159967841754576","-0.0033663234127143376","0.0037351592933193706","0.003966028868740471","-0.0027711230478296932","0.0023685800223295396","0.09400771828705608","0.3454063662654729","0.303540356554283"
"0.0015322810642268902","-0.0034512904967265163","0.0069862792543148415","0.0010621835269401545","-0.0036027937744652475","0.0010786913870944404","0.09180647608329384","0.34520847629598567","0.304749771620106"
"0.0012443980836219773","-0.0034521214706532866","0.0068189938288030685","-0.0004735946340703437","-0.002330756389697486","0.0006593259004178174","0.09411917358851218","0.34552510024716526","0.30502761021630864"
"0.001603529694878258","-0.0037583353626678435","0.004975756269923347","-0.002867760337932497","-0.004013962208525645","0.0006442792220764109","0.09473217774652186","0.3454195589301054","0.30291930557453606"
"0.001601604056212009","-0.0032916396310459293","0.005284511468861743","0.0019710191488019335","-0.0057117671393897085","0.004918263936116924","0.09729564968001728","0.3444564944119342","0.3064004597504862"
"0.0014610324335755055","-0.0036848980418895897","0.006828907039203766","0.0010641090261390143","-0.004655605148988932","0.0008561461606578297","0.09110988044919201","0.34337469591207054","0.3045209633644098"
"0.0018211268641649106","-0.003761347643152382","0.006844396430454856","-0.002751363911361428","-0.003597049861533088","-0.0032064569915219556","0.09648759874445872","0.3454723295886354","0.3061553080479545"
"0.000959403561016455","-0.00392234884146397","0.00758251755487347","-0.000129507927234115","-1.0933554221679438e-05","0.000674372578759224","0.09191793138475027","0.34316361327795086","0.3054035094935239"
"0.0014610324335755055","-0.0037615553866340756","0.006209124863943481","-0.0018243323220704245","-0.006965615466538966","-0.0017313971373434168","0.09292102909785709","0.3448786596801736","0.3041450640871945"
"0.0018943011334825446","-0.003917778484866739","0.00731279562188782","-0.0033798468498692346","-0.008228558322497474","-0.00024201866990450753","0.09495508834943468","0.34415306312538707","0.3054852267277011"
"0.001603529694878258","-0.003295482885457238","0.007144064519859278","-0.003386297272185414","-0.010331309115078765","0.00017467724480831764","0.08991173595853692","0.34322957660111325","0.3036384172352957"
"0.0017460269561810277","-0.003138428813297805","0.00683985287568787","-0.0013347741507603453","-0.0035977678506496076","0.0010796621405358216","0.09353403325586676","0.3421345854366172","0.3060899342606127"
"0.0011731494529706097","-0.0036085523123676436","0.006971202913497113","-0.0008226876388236076","-0.0069632221694839","0.0010541798626995682","0.09314393970076962","0.3421345854366172","0.30586112600491644"
"0.0017460269561810277","-0.0032936131941220075","0.00653047810109943","-0.002026317188030807","-0.004016594835286218","0.0019322263504287479","0.0909426974970077","0.34293933797919873","0.3075118141352965"
"0.0013657133195959564","-0.0045015376684223035","0.007606267954791807","0.0010572542489910737","-0.0010089384261843452","-0.006120901510908277","0.1020046361665461","0.34527443961914805","0.28389553345807633"
"0.0013917094415903696","-0.004172056506458202","0.006609164208654967","0.0010132565922971297","-0.002938175182273323","-0.007539414977126368","0.1500418710942136","0.3507757807708934","0.28007116689858186"
"0.0018991152301481842","-0.004632208318406806","0.006840472451337913","0.001834886355442553","-0.00358125410096965","0.0034483005375056364","0.10509752078195843","0.3431768059425833","0.29620214892516755"
"0.0015582771862213034","-0.004309063332634321","0.0074412543066635275","0.00033590448412226353","0.0005567565072400569","-0.0009996674620663991","0.015348139284268463","0.33950924517475317","0.28193431983782274"
"0.0016555219388671013","-0.004612057200682645","0.006511064730731396","5.11334925416106e-06","-0.005003997401294939","-5.167818888571372e-05","0.06405410602067384","0.3433483105828056","0.3060899342606127"
"0.0015640541022200675","-0.004294521288915855","0.006690122093593998","0.0009851924414737495","0.00027554410326976103","-0.0025480434699052435","0.05967948543851396","0.3542718368985013","0.30814920856187894"
"0.0017450641368479032","-0.004044190393476546","0.006570337467918902","-0.000928686369720834","-0.009609490723270756","0.00032140662747306644","0.05856493242395102","0.3489683857162433","0.28651048495174775"
"0.0015216900515624865","-0.004713436019748524","0.006610816410388416","0.0016923994147269351","-0.006167331233821587","0.0005701864656630005","0.07486527026193578","0.3493905509844827","0.3032134876175741"
"0.001482214458904296","-0.004082726809330482","0.00703419310458488","0.0002786401379481761","-0.006770540216877563","0.0015437623726748877","0.09044114864045413","0.3321081603159303","0.3007619705922572"
"0.001931851087474486","-0.004563756841189169","0.006664099916292167","-0.002319378166097254","-0.0023834089249089446","0.003755689614718953","0.11515636173839001","0.35973360005634913","0.2796952676213666"
"0.0014417760469129638","-0.004330772526471175","0.007603170076541589","-0.0020205406904342284","-0.0045756690273497155","0.0005812045172226756","0.091416382528197","0.33776781344326545","0.2860365249935198"
"0.0014186683829179242","-0.004179327528317435","0.006456335548310878","0.000272382265551882","-0.005625632378377871","0.0027730687125169973","0.09484363304797827","0.35363858899614214","0.30053316233656086"
"0.0018673421921549898","-0.0048580254830064154","0.007425145339762394","0.002039470645321396","-0.006476736677100563","0.00242138900954067","0.14672607587588843","0.3259603785971934","0.2979345542897249"
"0.0014350363115810752","-0.00399537067527884","0.006908006197192665","0.0016356934633205168","-0.0023582793058307488","0.006453267815300744","0.09729564968001728","0.34475992569848124","0.334102602136568"
"0.0015544259088888053","-0.004147854390841041","0.006826635261820272","0.000551548841399357","-0.005340782162883875","0.0028409243780695343","0.08043803533475107","0.34867814709432865","0.325064676036566"
"0.0015881245855482316","-0.00386625810140703","0.007148608074626265","0.0027264887594745375","-0.002454250517738909","0.007204630978929693","0.08982814448244476","0.3475831559298326","0.30545253983403026"
"0.0020002112601264803","-0.0037022446226109024","0.006818787303586387","0.0035449221939498543","-0.008577022373715134","-0.0023825300081497702","0.09782506236193449","0.3296807100235536","0.2873440007403555"
"0.001480288820238047","-0.003646880984739886","0.00652696717241585","0.003502272386695112","-0.005116027636442594","-0.0020286903787663695","0.10796749479445823","0.3603140773001784","0.31408187976314605"
"0.0012482493609544925","-0.004114719305511107","0.007450134890980818","0.0022102624242602517","-0.000575033670100816","0.0064445310343283135","0.11147833679033196","0.34709502733843073","0.29481295594415463"
"0.001522652870895611","-0.004633558651037807","0.006608338107788242","-0.0008949901337407893","-0.004381333306478328","0.0007256040916281102","0.09623682431618225","0.3859870026749897","0.2881121427416215"
"0.0014899170135693092","-0.005054135329724013","0.007628366152976696","-0.001755784550591019","-0.0017712035382229747","-0.0013214964967202595","0.07447517670683831","0.3511847533745004","0.2960550579036485"
"0.0016102694302101467","-0.0038909795757284225","0.007530679725486488","0.002597961687950653","-0.007351941477167775","-0.0009970706966107054","0.09952475570914315","0.34332192525354066","0.30324617451124497"
"0.001482214458904296","-0.00401302887122269","0.006662241189342035","0.0017388039454194538","-0.007136657227173392","0.0019378809892247923","0.059261528058052855","0.3456174488995926","0.2698565126264278"
"0.001247286541621368","-0.003907183567300428","0.0065145756594149765","-0.002630057461833267","-0.006823602005885439","0.0038822273258029756","0.09651546256982298","0.34606599949709704","0.2691864313061745"
"0.0015833104888826092","-0.00382813717251648","0.007859054820009597","-0.0007730097594930275","-0.002429120898660713","0.0018668703749877668","0.07271975570890145","0.3625304449584355","0.3150788300201083"
"0.001601604056212009","-0.004185871447990745","0.007024486419400863","0.0006531266261360017","-0.002293181625932945","-0.0001385606218893198","0.0473915384529562","0.3483087524846191","0.3060735908137773"
"0.0014956939295680733","-0.004793313388459241","0.006972029014363838","-0.0010385360990157802","-0.005637192003153841","-0.0007939648078377503","0.11978175674882668","0.3363561983275898","0.29182210517326784"
"0.0019202972554769576","-0.0039020938519989646","0.006606479380838111","0.001254223189538427","0.00027147549827614915","-0.004009512775904446","0.04747512992904835","0.3493905509844827","0.3096854925644109"
"0.001660336035532741","-0.004277070836453695","0.0069391915049115275","0.0016375226875594334","-0.002206783602245049","-0.0012625232251563593","0.05903861745514033","0.3356042164435382","0.31486636521124745"
"0.0014542926982436168","-0.0038175422549501688","0.006974094266530649","0.0008281390993187578","-0.0015610720567881499","0.0019537770768274076","0.11978175674882668","0.3111318235502828","0.316533396788463"
"0.001998285621460231","-0.0036298460192411117","0.007128162078174826","0.0011076445630252322","-0.0024150004460358216","-0.0009933575646974226","0.08063308211229933","0.33975990580277027","0.3094893712023855"
"0.0015274669675612506","-0.0038381088596377137","0.007428862793662655","0.0017407294446183134","-0.003344557022223589","0.0003401179000556864","0.06274450622856233","0.33425856465102505","0.26761746040997164"
"0.0014205940215841733","-0.0039750118140729875","0.007187641340579012","0.0010820354236803981","-0.005375173841565178","-0.0032134949539719686","0.09180647608329384","0.3615937657695292","0.2976567156935223"
"0.0016218232622076752","-0.004544332825650932","0.006089753288701746","0.002659866487193992","-0.004956897315251233","-0.00035627634995505955","0.06803863304773689","0.3473984586249778","0.2751844762947833"
"0.0020907162774404064","-0.0052331063392019915","0.006627958003372956","0.001189978908768473","-0.00030124048700122655","0.005851643370004824","0.08523061329737204","0.34499739366186594","0.3136242632517535"
"0.0015727194762182053","-0.0036730566634331245","0.007694041171881317","0.0013383578770326016","-0.004788409202574562","0.0016845628786964018","0.10086221932661861","0.32634296587153544","0.29348913675048344"
"0.0011866289236343698","-0.004086570063741791","0.007593669916574254","-2.3191488969076473e-05","-0.002265898039505188","0.0011761914358631518","0.04206954780841739","0.3573984984163997","0.31543838585048806"
"0.001465846530241145","-0.00410183920964618","0.006064144161833277","0.0005346323681877751","-0.0040730766457857835","-0.0004877406347540912","0.11340094074045315","0.34332192525354066","0.3200962681985903"
"0.0013811184289259828","-0.0040377503455440835","0.007514570758585354","0.002590259691155214","-0.0034206638685746987","-0.0035639369463105353","0.037026195417519926","0.3353007851569912","0.2980162715239021"
"0.0016555219388671013","-0.0044635206112726","0.0067605471924822875","-0.0008866142122257495","-0.00232620912529286","0.010005982722395121","0.0786826143368142","0.35229293720362886","0.28961573985048256"
"0.001537095160892513","-0.004754257613901074","0.006512303882031485","0.0023385969458642507","-0.0028527344774074556","-0.00015278215980555246","0.11549072764275896","0.32259624911591034","0.28490882716187405"
"0.0015053221228993356","-0.004378969014223804","0.006897266885925244","0.002757970671375894","-0.0030336677347704713","3.3311274907198934e-05","0.057255332631839205","0.36333519750101695","0.33384110698720076"
"0.0017229192921859881","-0.003922141097982278","0.004007359528905193","-0.0005385802320318587","-0.007130875021488351","0.0015632769437302508","0.04794881496023766","0.3494037436491152","0.3067763590277014"
"0.0013089069789414735","-0.004770253861991388","0.007081693904421557","-0.0005742019672107632","-0.0019765484255476664","-4.572378142697638e-06","0.10663003117698278","0.329667517358921","0.30071294025175077"
"0.0016025668755451335","-0.004013548229926923","0.006884462322491008","-0.0016437204972173847","-0.006771397017223277","0.004710522699661375","0.02484970373341858","0.333493390102341","0.27529888042263145"
"0.0014889541942361675","-0.0038006111611922403","0.0046552291336341214","0.0007322203567275618","-0.008374764839591478","0.0028305373162467572","0.08132967774640147","0.3276754249994161","0.3015301125935231"
"0.0015496118122231657","-0.004299195517253934","0.005699214103957594","0.0018241998348888814","-0.00612777003350134","-0.003964615429240572","0.09044114864045413","0.3492322390088929","0.29280271198339464"
"0.001502433664899962","-0.003331422507790019","0.006884875372924371","0.0029687165586910883","-0.008108295145480391","-0.0014071654879221388","0.06472283782941173","0.32350654297555165","0.3071359148580813"
"0.0012280301549588263","-0.0034925275778424536","0.006512716932464846","-0.0025901996284168707","-0.004373196096491103","-0.0018796797255143756","0.1130665748360842","0.33271502288902455","0.3140491928694751"
"0.0014706606269067675","-0.0034053791872725022","0.007578387050539845","-0.001551681635511891","-0.0008615113275922581","0.0001577618660922523","0.10309132535574478","0.35231932253289383","0.3025597497441562"
"0.0016555219388671013","-0.0037528301604029955","0.00593568547705757","-0.0008159483916275987","-0.006739305297011892","0.001517076360571322","0.120255441780016","0.3439551731558998","0.31248022197327224"
"0.0014350363115810752","-0.0033942649110019615","0.007232663837815514","-0.00021747435813402054","-0.0059633983917593844","0.0023063547267370126","0.08358664760089128","0.34012930041247985","0.29853926182263635"
"0.0018278665994967992","-0.003641687397697576","0.0071465428224594535","-0.0002650823258258267","-0.0019085787891837832","0.00207211192133176","0.09983125778814783","0.3589816181722976","0.30676001558086596"
"0.0008544562537056438","-0.003555266109313549","0.006815689425336169","0.0020880895000926036","-0.007320182425247045","0.0028369928266319413","0.0959024584118133","0.3244300294998254","0.3055179136213721"
"0.0013945978995897601","-0.003892745395322808","0.00690718009632594","-2.3528451328876923e-05","-0.005167507456097072","-0.0029992011317870964","0.038642297288636426","0.38646193860175915","0.2919691961947869"
"0.001717142376187224","-0.0037434817037268384","0.0063784755416220655","0.0038073677347544316","-0.006624283440545404","-0.00551151103808131","0.08146899687322183","0.36514259255566706","0.3088683202226386"
"0.0017104026408553354","-0.0039239069175766635","0.007624648699076434","0.003707145501453784","-0.002385084232847492","0.008817537821784346","0.08149686069858547","0.3640871793850684","0.3037037910226375"
"0.00175565514951229","-0.003235341147507297","0.0068633967503895265","0.0017533414643708444","-0.005596864947775973","-0.00045818119246403754","0.06137917878572261","0.35925866412957974","0.3246560898656799"
"0.0012058853102969113","-0.003214878414560598","0.006646338747657584","-0.0002908455051065693","-0.006429875920762365","-0.0027349135073711","0.1394536174558645","0.32318991902437205","0.3019877291049156"
"0.0015939015015469958","-0.0036571642870836586","0.007600485248724733","-0.0018794978741177551","0.0021643341391281196","0.0016658273372777471","0.11858361225817128","0.35142222133788503","0.2827678356264305"
"0.0014523670595773678","-0.003480686199385988","0.00691895203367677","0.002510544024322422","-0.005638005724152563","-0.0007687009495258081","0.07740087837006633","0.35902119616619504","0.3026414669783335"
"0.0013657133195959564","-0.004359025639981337","0.006811971971435907","0.0005693313656406021","0.004534894872171332","-0.0016843155954364348","0.059707349263877905","0.33065696720635723","0.295156168327699"
"0.001814387128833022","-0.004141310471167731","0.0066372516381236115","-0.00331842342542561","-0.004239171461407388","0.0019646009776988064","0.09069192306873092","0.3643510326777181","0.3096691491175755"
"0.001759506426844805","-0.004568015582563863","0.006747123053398011","-0.0004271901033778249","-0.010732425701507883","0.005583472731823303","0.11276007275707953","0.3515277626549449","0.2706409980745292"
"0.0016468565648689636","-0.004327033143800712","0.007248566279499966","-0.0019073213375412775","-0.011456398060665451","0.0033022506822498543","0.11565791059494328","0.33966755715034297","0.29736253365048426"
"0.0016487822035352127","-0.00445780766552606","0.006564141711418466","-0.004418364842774215","-0.0026550481406589755","0.0025026410725842653","0.10699226090671567","0.346501357429969","0.30077831403909255"
"0.0016978859895246826","-0.004362453407429261","0.007562071558422029","-0.002471203777927342","-0.0034063040862443","0.0012393219590397663","0.004230472964001843","0.3246674974632101","0.2706083111808583"
"0.0015948643208801203","-0.0040226889431213865","0.0063384096495859125","-0.0021113279776604635","-0.0015972108423196521","0.014537217098401618","0.034100493754291916","0.3171081006287975","0.3191646917289699"
"0.0015861989468819826","-0.004701594641292058","0.007521179565519152","-0.000995116092081494","-0.0007353845727902611","-0.00011933970374997464","0.07397362785028506","0.3323192429500501","0.3022492242542828"
"0.0018981524108150425","-0.004141102727686039","0.006907593146759303","-0.0030641612562161864","-0.0024049485984045426","0.005069458784612025","0.0914721101789249","0.323598891627979","0.3041940944277009"
"0.001486065736236794","-0.004663785327624047","0.006753938385548489","0.001576002988155866","-0.005854958102194328","-0.0001560584526702137","0.1173854677675162","0.331224251785554","0.27972795451503746"
"0.0014485157822448525","-0.004418544147486201","0.0074912334091003785","0.0019676495252039295","-0.00405129764258468","-0.003198933652351252","0.10841331600028359","0.3461583481495244","0.30837801681757515"
"0.0017518038721797918","-0.004055096926265395","0.006916680256293275","0.0018493275994340005","-0.006849846901391296","0.004486278654702347","0.14703257795489344","0.3573193424286048","0.2668002880681993"
"0.0013917094415903696","-0.004852935767704951","0.006425356765808698","0.0006243375248642509","8.192637151489453e-05","0.00407273768867401","0.11537927234130255","0.34925862433815785","0.28008751034541735"
"0.0017017372668571976","-0.0038762297885282645","0.007652116552895034","0.0005332373440182013","-0.010909769013288299","-0.0022822997153271753","0.085258477122736","0.318269055116456","0.2931622678137745"
