"AccX","AccY","AccZ","GyroX","GyroY","GyroZ","MagX","MagY","MagZ"
"0.016242234835737446","0.013196337280432562","-0.09650639817766865","0.0010204001943248991","-0.005349661294958171","-0.006935849024947686","-0.15255927235965616","-0.5093067972791845","0.2607695561859195"
"0.01645694354702471","0.012730264779255726","-0.09680999024619003","0.0015000420447608509","-0.011220179641330404","-0.000395397713642717","-0.15222490645528708","-0.5117342475715613","0.2629759215087048"
"0.01609203501976968","0.011793549420304819","-0.09648781090816734","0.004472723982920402","-0.005027762841051748","-0.003873364605750752","-0.1524199532328358","-0.5095970359010992","0.2625673353378186"
"0.01645309226969221","0.012803078869588905","-0.09801403225944143","0.0011654865589589775","-0.009988828306498769","-0.0036721759550245236","-0.1479896049999474","-0.5080271088098337","0.2630412952960466"
"0.016524340900343597","0.012258583204073196","-0.09739652186156462","0.0044509658419732865","-0.008606459927492451","-0.00039078663479615673","-0.1511939449168163","-0.5087263200353553","0.2608512734200968"
"0.0163808808197077","0.01241449468708332","-0.09740065236589826","0.001848172299914685","-0.00907578547999096","-0.0012542718209046203","-0.14768310292094272","-0.5078556041696114","0.26260002223148954"
"0.01645501790835846","0.013810427012315215","-0.09723543219255329","0.003190630341359669","-0.015349335050436366","0.006155974573877791","-0.14754378379412236","-0.5071827782733548","0.2638911545314898"
"0.016235495100405558","0.011637637937294696","-0.09648368040383373","0.0015031228434790262","-0.006075548291759793","-0.0012295176081494026","-0.14729300936584558","-0.5069980809685001","0.26302495184921115"
"0.015803189219831645","0.01210599561677015","-0.09680585974185639","0.00565276616694157","-0.008108654140038652","0.002247721218877596","-0.14723728171511735","-0.5066550716880555","0.26344988146693277"
"0.015948574939133785","0.012257128999701349","-0.09494919804389239","0.004230881283543623","-0.017062457082452853","0.005706515730518355","-0.14570477132009316","-0.5066550716880555","0.2641199627871861"
"0.01609203501976968","0.011715437871188488","-0.09618008833531236","0.0021845570099554745","-0.007311207561290546","0.0009546776349580085","-0.1471536902390252","-0.5069980809685001","0.2641036193403506"
"0.015804152039164767","0.012414702430565014","-0.0958785615189578","0.0052636227788520245","-0.012485037134932965","0.00880540340376708","-0.14573263514545742","-0.5059690531271663","0.2638911545314898"
"0.01565876631986264","0.011326438201719522","-0.09434614441118329","0.008201164356632384","-0.017356353960815002","0.01051320139551673","-0.14835183472968044","-0.5076972921940216","0.263237416658072"
"0.015948574939133785","0.012414183071860782","-0.09602725967496825","0.00717410308396062","-0.011816110608041924","0.009235447178298896","-0.14670786903320016","-0.506668264352688","0.26474101376693304"
"0.01638280645837395","0.013344458382879223","-0.09677901146368784","0.007338925815383011","-0.015227276900627982","0.010303033275457731","-0.14943852391887943","-0.5068529616575427","0.266424388790984"
"0.015804152039164767","0.011948629929388176","-0.09557290419826961","0.006669718568819321","-0.00499138472581474","0.007531046823594079","-0.15216917880455885","-0.5085943933890305","0.26769917764414886"
"0.01594953775846691","0.012724551833509186","-0.09602519442280145","0.009417694750471946","-0.013029751544666065","0.01184725931233467","-0.14854688150722903","-0.5065231450417306","0.2677155210909843"
"0.015948574939133785","0.012257128999701349","-0.09494919804389239","0.007256610724631759","-0.01051152438332526","0.010122230447000505","-0.15191840437628223","-0.508251384108586","0.2668329749618702"
"0.01529963470860636","0.011871141610716921","-0.09420364201167326","0.004609145601159611","-0.005108895611218496","0.0025003598019970198","-0.15027443867980164","-0.5085943933890305","0.26815679415554133"
"0.015589443327877506","0.01272340924435988","-0.09434201390684965","0.002497932004569891","-0.010203267722632714","0.006206453752829607","-0.15069239606026272","-0.5070640442916624","0.2711149580327572"
"0.016092997839102806","0.012413455969674858","-0.09602312917063464","0.0033913636328407925","-0.002524134791746847","0.0038327189002925403","-0.15225277028065118","-0.5093067972791845","0.2698565126264278"
"0.015297709069940095","0.010863274109286381","-0.09467038900137277","0.005605880261449337","-0.01181778591598047","0.009693400114270417","-0.15342305094594233","-0.5088054760231502","0.272389746885922"
"0.01638280645837395","0.013499642763703426","-0.09677694621152101","0.0006952796545974382","-0.012019301528017057","0.0022440808934724166","-0.15498342516633076","-0.5094914945840393","0.27152354420364333"
"0.01587443785048303","0.01117291576874886","-0.09588269202329142","-0.0012709438523181463","0.00012189443233450258","-0.0011656905693785973","-0.1540639189293161","-0.5098476965291163","0.2728473633973145"
"0.015661654777862015","0.012567393889608907","-0.09403222608182786","0.0007781723951083485","-0.008565534547850816","0.003154404933127517","-0.15386887215176767","-0.5079611454866713","0.27472685978339084"
"0.016093960658435928","0.012720916322579568","-0.09432342663734836","-0.00033813576543056365","-0.01164355389037164","6.231253396845841e-05","-0.15414751040540842","-0.5070904296209274","0.2727819896099727"
"0.01580511485849791","0.013191663052094486","-0.09649194141250096","-0.0036743519523348253","0.0010672467690857085","-0.006413583673484671","-0.15230849793137924","-0.5103226324558857","0.26923546164668083"
"0.015514343419893623","0.01086109280272861","-0.09404668284699554","-0.0030102472786481143","-0.007006540846180601","-0.002954546473483567","-0.15417537423077235","-0.5106788344009627","0.2687778451352883"
"0.0158773263084824","0.0127214356812838","-0.09402396507316062","-0.003419415858405801","-0.0015067442136381434","-0.006432756053951948","-0.15264286383574818","-0.50896378799874","0.2696277043707315"
"0.015947612119800662","0.01218275683325548","-0.09679966398535594","-0.0035047154729152858","-0.0019303577923848873","-0.006216278036523968","-0.154036055103952","-0.5079347601574064","0.2706573415213646"
"0.015082037539319708","0.010862547007100454","-0.09359852312679734","-0.0031869118301434923","-0.005705065907635523","-0.0022810862735254487","-0.15515060811851508","-0.5082645767732183","0.26742133904794624"
"0.015804152039164767","0.011948629929388176","-0.09557290419826961","-0.003523392815144225","-0.0035891519812513693","-0.003371727764917082","-0.15450974013514146","-0.5093067972791845","0.2693825526681998"
"0.01609203501976968","0.012415429532750936","-0.09710325605387732","-0.004372056587041638","-0.0019437602558932587","-0.006432513365591602","-0.15509488046778688","-0.5068925396514402","0.26823851138971855"
"0.015659729139195767","0.011793653292045665","-0.09526931212974825","-0.002144639113800736","-0.0031025946899563817","-0.001180009182638968","-0.15097103431390363","-0.5075653655476968","0.26876150168845286"
"0.01681414951961474","0.012877243292553077","-0.09707434252354194","-0.0019725957603826216","-0.004815238062561857","-0.0007681670351330483","-0.15052521310807856","-0.5068661543221752","0.26662051015300936"
"0.015803189219831645","0.011482765171693034","-0.09542007553792553","-0.002990799736739632","0.001975024342072372","-0.004214827128756544","-0.15267072766111228","-0.5072223562672522","0.2670127528770601"
"0.016236457919738684","0.012257856101887272","-0.09617182732664512","-0.003974826102316881","-0.008699798512640038","-0.0012137428647269605","-0.15236422558210744","-0.5079215674927738","0.26917008785933905"
"0.016381843639040824","0.012879424599110848","-0.09708879928870963","-0.0030321979695151153","-0.0030351037130035108","0.00276755968673716","-0.15255927235965616","-0.5065363377063631","0.2678626121125033"
"0.015298671889273219","0.011173123512230551","-0.09436060117635096","-6.769940295071853e-05","-0.005208935428120271","-0.00032429002406155334","-0.14935493244278727","-0.5080798794683636","0.2698891995200987"
"0.016235495100405558","0.011949149288092408","-0.09709912554954368","-0.003463413515099746","-0.010160667035052534","0.0005294876276330992","-0.1530608212162093","-0.5084228887488083","0.26639170189731315"
"0.016165209289087313","0.012724551833509186","-0.09663444381201099","-0.000944860562991256","-0.0008698878672849896","0.0027719280772233743","-0.15590293140334527","-0.5091220999743298","0.2669964094302247"
"0.0156578035005295","0.01117426610137986","-0.09604584694446958","-0.0031692935124739263","-0.0005901114415477341","-0.0037903651865126694","-0.15239208940747154","-0.5084096960841757","0.26596677227959153"
"0.016527229358342967","0.01334341966547076","-0.09661792179467649","-0.001987614654133727","-0.0030358217021200307","0.0023200423502604856","-0.15019084720370962","-0.5080666868037311","0.2659994591732624"
"0.015875400669816152","0.011325607227792753","-0.09449277731502694","-0.0011274941620030986","-0.004293977963968408","0.00319372044750345","-0.15083171518708324","-0.5097817332059539","0.26645707568465493"
"0.016092997839102806","0.012725175063954262","-0.0967914029766887","-0.003527436363461831","-0.002276907205958493","-0.002050046954476754","-0.15308868504157352","-0.508251384108586","0.2663753584504777"
"0.016454055089025334","0.013034297364712514","-0.09708673403654283","-0.0004492370692047685","-0.007231510769356837","0.006234362914269312","-0.15016298337834552","-0.5106392564070653","0.2656399033428826"
"0.015803189219831645","0.011480895480357802","-0.09434201390684965","0.0017199340532706286","-0.0041925021688335945","0.006909279244389502","-0.15450974013514146","-0.5116946695776639","0.2659994591732624"
"0.016309632189056317","0.013502135685483736","-0.09801403225944143","-0.0011131491929715935","-0.003472119755258625","0.0014356859651623295","-0.1537295530249473","-0.5127236974189976","0.26604848951376875"
"0.016381843639040824","0.012878385881702389","-0.09647335414299965","0.001828050833286601","-0.007281291348102217","0.0027088291035336047","-0.15281004678793264","-0.5127236974189976","0.2675684300694653"
"0.016381843639040824","0.013424231879849095","-0.09801196700727462","-0.0017973753332863889","-0.0022271266272131133","-0.00030851528063911073","-0.15693389294181606","-0.5123938808031855","0.2668329749618702"
"0.016496419139682916","0.01282977390698637","-0.09631226447398832","0.0018187121621721315","-0.007055617795591791","0.00701145104409486","-0.1666583679938787","-0.5059954384564314","0.26889224926313643"
"0.015861921199152376","0.012158866332860856","-0.0959116055536268","0.004707249785341513","-0.01071064669830678","0.001350603066350684","-0.10064896570638174","-0.48366025723363815","0.2856115953757982"
"0.01595916595179819","0.012508810227771658","-0.09408798789033178","0.004295770606545194","-0.0026083788480851817","0.008260568034791953","-0.16437353431402446","-0.5076445215354917","0.2520911859162974"
"0.015997678725123254","0.01373834002416796","-0.09428831735051255","0.0012903166720210522","-0.007723452979025722","0.0023463254996858784","-0.16409489606038358","-0.4903753235315718","0.27529888042263145"
"0.01522453480062246","0.011923908455066783","-0.09682238175919088","-0.0010940867509028828","-0.007324801488563322","0.010603481465565171","-0.16532090437640293","-0.48536211097122833","0.2695133002428834"
"0.015704018828519597","0.01219885695308664","-0.09412103192500078","0.0008830158264862592","-0.012279452917902767","0.003720524071304923","-0.17975436591499455","-0.5212857367654788","0.25933133286440024"
"0.01599575308645699","0.012433918702621559","-0.09396200750815625","-0.0010827263056296106","-0.013523967386537267","-0.0034469611566241157","-0.1933797765180281","-0.49693207785391574","0.2818689460504809"
"0.015274601405945056","0.011819621227257214","-0.09626682892631847","-0.004856993560274455","-0.002233827858967299","0.002377462416318176","-0.1259214553115991","-0.4917077826594526","0.31601040648972867"
"0.016323111659720092","0.012307610665752595","-0.09358613161379646","-0.003967316655441329","-0.004977766865571412","0.0002311265574246268","-0.16671409564460676","-0.5220772966434277","0.2803980358352907"
"0.015952426216466302","0.011277099124817584","-0.09523833334724607","-0.0021319308190882623","-0.016276737659274572","-0.0073991411048468046","-0.16139210500006826","-0.5116023209252365","0.2767371037441508"
"0.015449834524574126","0.012521690323636587","-0.0966034650295088","-0.0035793285668710997","-0.006967850805988398","-0.003132922418337339","-0.10371398649643011","-0.49840965629275374","0.25310447962009514"
"0.016316371924388205","0.013346951304659535","-0.09547170684209584","-0.001954784892793169","-0.01479648343071604","-0.0037913359399540515","-0.10371398649643011","-0.5047553279809779","0.26586871159857883"
"0.015778155917170356","0.011975324966785645","-0.09679759873318913","-0.005004390523947165","-0.01703278019897003","-0.0021658093023614465","-0.15030230250516588","-0.49891097754878816","0.28588943397200084"
"0.015502789587896094","0.012787809723684512","-0.09554605592010106","-0.0049022427914476585","-0.014356356102289339","-0.003529475199141507","-0.14043850832628288","-0.5290430235693786","0.2783714484276954"
"0.015863846837818642","0.012268451019453584","-0.09606030370963725","-0.002324865838814004","-0.015302426428157065","-0.0020709181534664463","-0.15665525468817532","-0.5155469276503488","0.2522382769378165"
"0.01606603889777525","0.011885891397917079","-0.0967211844030171","-0.002805951813649101","-0.0038514573384866397","-0.010815222465066795","-0.20842624221462921","-0.5173015520464691","0.26152135474035004"
"0.014850960899369279","0.012660670712888782","-0.09391863721265319","-0.0028257844553973557","-0.018082958946733143","-4.8620315545363614e-05","-0.14946638774424353","-0.48935948835487064","0.3100450483947907"
"0.015828222522492948","0.0123006512591159","-0.09730152026189128","-0.005333650886952174","-0.013099157159262988","-0.0029931339227784646","-0.13419701144472956","-0.521127424789889","0.26449586206440134"
"0.016058336343110238","0.010827438358694444","-0.09641552708232892","-0.003337004492694606","-0.007098256775924853","-0.0054265701119604656","-0.14319702703732642","-0.5534362604748392","0.27126204905427614"
"0.015578852315213118","0.013697726173497102","-0.09600041139679971","-0.0015865331710112514","-0.009338808826342752","0.0026907973583599515","-0.1444230353533456","-0.5401908251838266","0.24514522101123268"
"0.01683918282227603","0.011256117033166656","-0.09688020881986163","-0.0031148981601061393","-0.003632231328242563","0.006948594758765435","-0.2138875519859881","-0.5105073297607404","0.2754459714441505"
"0.015789709749167866","0.012608630970724843","-0.0946394102188706","-0.002240528973903949","-0.010123570930699006","-0.006007808734987383","-0.18655313930382936","-0.5059822457917988","0.26065515205807144"
"0.016237420739071806","0.012619225888291154","-0.09707021201920833","-0.004598880392667312","-0.01187953298000118","0.002153776554587943","-0.1399926871204575","-0.514293624510263","0.2803490054947844"
"0.01647138583702161","0.0133423809480623","-0.09737173883556288","-0.0011844889382893458","0.00035045430109333775","0.006822882188106587","-0.16629613826414566","-0.5045706306761232","0.2762958306795937"
"0.015253419380616265","0.01083876037844668","-0.09424081655067587","-0.001956517842072143","-0.008275897738246689","-0.008055370431220406","-0.1395747297399964","-0.5037131074750119","0.2288508045162925"
"0.01563758429453385","0.012670434656528323","-0.09685542579385988","0.007850049577720319","-0.004041724454364415","-0.005563689035555543","-0.176995847203951","-0.5217342873629832","0.21951869637325255"
"0.016213350255743643","0.011919441970210398","-0.09475299908804524","0.005274116749485809","-0.011042596999844482","0.001855585366231712","-0.12349730250492434","-0.5002302440120364","0.27402409156946667"
"0.015287118057275707","0.01275955661017435","-0.09607269522263813","0.00995837492551175","-0.02176648244418575","-0.002958914863969782","-0.21848508317106066","-0.5159163222600585","0.3039162558314983"
"0.016386657735706463","0.012057799129017518","-0.09568855831961108","0.008420478715382505","-0.012678894196393339","0.0054339767018506185","-0.19413209980285812","-0.5162989095344004","0.3091788457125121"
"0.0158773263084824","0.012481699703410802","-0.09426973008101124","0.005199022280730281","-0.018550609191293106","0.00903425852757267","-0.15559642932434029","-0.5144519364858527","0.2554579359643994"
"0.015832073799825448","0.013863297728405924","-0.09586410475379012","0.0035963330225594085","-0.004533307669475042","0.0041525821592276035","-0.1397140488668168","-0.49850200494518115","0.24869174897452456"
"0.01600249282178888","0.011584247862499755","-0.0970309722280389","0.002156155896772294","-0.011343195109960812","0.007209970122857288","-0.13974191269218106","-0.5132777893335618","0.27443267774035285"
"0.015806077677831033","0.01203982931785113","-0.09523420284291244","0.00587015502649283","-0.008300788027619377","0.01009019558343493","-0.13960259356536053","-0.4779874114416706","0.2559482393694628"
"0.015552856193218688","0.012405042358666319","-0.0959116055536268","-0.0010057063376752223","-0.0019763090958421605","0.008136311594295178","-0.16610109148659707","-0.5433042940370925","0.29492736007200265"
"0.01603330304044895","0.01178700550063151","-0.09505659115656662","-0.0013532589430693984","-0.007846564179538336","0.017291001923239374","-0.11477592516596853","-0.49685292186612084","0.2691864313061745"
"0.015931244191137495","0.012275618169571971","-0.0942635343245108","0.0005306311808525447","-0.0040412457949534015","0.00537136310488154","-0.18139833161147517","-0.5055996585174568","0.27325594956820065"
"0.014945317194015702","0.011244275654710189","-0.094437015506523","-0.0012948200423840068","-0.011037331746323336","0.011293687162387113","-0.15386887215176767","-0.5107184123948602","0.2437233411365488"
"0.015722312395848995","0.012354872307837609","-0.09556257793743556","-0.0032169496176457034","-0.012134179786660239","0.010795690646958624","-0.1486026091579571","-0.5005864459571134","0.2587102818846533"
"0.016040042775780836","0.013326696315194526","-0.09437505794151864","-0.004718742717796327","0.001369759516846093","0.000862747284059221","-0.14197101872130707","-0.5073938609074745","0.2551964408150323"
"0.015701130370520205","0.011917156791911783","-0.09625443741331759","-0.002539366449566975","-0.010833422837231684","0.008969460735360483","-0.14116296778574866","-0.5140561565468782","0.28258805771124057"
"0.01689406352426426","0.012715099505092182","-0.09594051908396216","-0.00419856910922438","-0.01323701106963481","0.005784176005828839","-0.1355066112368412","-0.5273939404903183","0.24223608747452324"
"0.01579548666516663","0.01207244504447683","-0.0939516812473222","-0.003104885564272069","0.00048687223323211955","0.009789990081687832","-0.14865833680868543","-0.48443862444695457","0.2732396061213652"
"0.016081444007105275","0.011785239681037125","-0.09424907755934311","-0.0032706710452938895","-0.009547504329544536","0.0011064282397983012","-0.13182858628878302","-0.5056788145052518","0.28495785750238034"
"0.016541671648339872","0.01275228558831512","-0.09666748784667999","-0.004221097449851038","-0.00020311530774350716","-0.003598398693479563","-0.14277906965686515","-0.5094255312608769","0.2534150051099686"
"0.015397842280585283","0.012526468423715508","-0.09400537780365929","-0.0012762389751150103","-0.004463184065761598","0.003010830499147256","-0.17211967776523773","-0.5247290222345569","0.2673886521542754"
"0.01623068100373992","0.010855691472204608","-0.09397233376899031","-0.000880067514949627","-0.004814424341563134","0.0009573957445938755","-0.19619402287979967","-0.5011669232009427","0.28636339393022875"
"0.0161758003017517","0.013664591088167168","-0.09680585974185639","-0.002273840110044222","0.0009028272614026508","-0.006688792274116206","-0.1430577079105059","-0.5014043911643274","0.22840953145173545"
"0.015689576538522695","0.011136560659452694","-0.0935241740487921","-0.004644225898800457","0.0022105247722909","-0.006713789175231768","-0.1076706496981289","-0.5012328865241051","0.26696372253655376"
"0.016635065123653172","0.012580689472437219","-0.09557703470260324","-0.0039039677317988454","-0.0006262502270792355","-0.007794965820569936","-0.15370168919958305","-0.503502024840892","0.26390749797832525"
"0.015670320151860154","0.012679159882759403","-0.09724988895772098","-0.0014810158149137398","-0.004096291627219927","-0.007341138586724285","-0.1967234355617172","-0.505823933816209","0.26889224926313643"
"0.015943760842468145","0.012918584245409861","-0.0951743105300749","-0.003233316360836011","0.0034945286423339913","-0.0016615028895639796","-0.1573797141476411","-0.48362067923974067","0.24158234960110536"
"0.016506047333014178","0.010862547007100454","-0.09698347142820223","-0.0006967599912181831","-0.008346045274930682","-0.006875904999942406","-0.16378839398137873","-0.514676211784605","0.2762304568922519"
"0.01580222640049852","0.012643947362612545","-0.09552746865059976","-0.00399311834470605","-0.002043082083678511","-0.0073195393226535566","-0.12402671518684186","-0.49501914148220577","0.26263270912516046"
"0.01614017598642601","0.012344069646789607","-0.09622552388298221","-0.0010877326035466457","-0.00677008070384299","-0.006850665410466498","-0.1883921517778582","-0.5157580102844685","0.2793193683441513"
"0.01634333086571576","0.01099093247878634","-0.09693597062836555","1.0196667139150796e-05","-0.009038378247020274","-0.0018762820884695413","-0.0929028222551685","-0.4955336554028726","0.2588246860125014"
"0.0164453897150272","0.011685626681565635","-0.09420570726384007","-0.003725473956064551","-0.005081420561026335","-0.0025873589842811766","-0.13068616944885614","-0.4895178003304604","0.31601040648972867"
"0.016379918000374576","0.01229878156778067","-0.09697314516736816","0.0005190329364282133","-0.0006748341572970835","-6.5875457965912e-05","-0.16077910084205874","-0.5194123783876663","0.2313840387757867"
"0.01601500947311953","0.01167399304659086","-0.09657248624700662","0.0007387381715157018","-0.00419345948765562","-0.0018367238857332627","-0.13673261955286073","-0.5159690929185883","0.29004066946820417"
"0.01599382744779074","0.012909859019178781","-0.09589508353629228","-0.0019712479109434203","-0.008379958294200972","0.0009404318282057413","-0.17549120063429077","-0.5282646563560622","0.2809373695808605"
"0.016006344099121394","0.011462821797450564","-0.0966034650295088","0.0010081829019081342","-0.0020509799639602303","-0.0008243979282250472","-0.14088432953210792","-0.5148741017540922","0.2461748581618658"
"0.01515906308596984","0.01226232258674366","-0.0943667969328514","-0.0016278351288267921","-0.007531845616797111","0.00321527117390211","-0.12820628899145317","-0.5271037018684036","0.2904165687454195"
"0.015577889495879994","0.012997630640193807","-0.09695662315003366","0.0024310209074095163","-0.00259569437369333","-0.0015452551649585962","-0.1938813253745812","-0.5077764481818164","0.30087637472010526"
"0.01615943237308855","0.011208439904118253","-0.09708260353220921","0.006158402256562127","-0.0028041505471896083","0.003503633483664357","-0.21076680354521166","-0.5199268923083331","0.29883344386567445"
"0.015197575859294923","0.011991113471394267","-0.09421190302034049","0.0041382647720784715","-0.005865775804883227","0.002159139967351573","-0.20363366425200793","-0.4911273054156233","0.2870661621441529"
"0.016444426895694073","0.012507875382104043","-0.09770837493875324","0.0008360721560180598","0.0009767801404042","-0.0038704523454266082","-0.14915988566523855","-0.46410872824829874","0.27055928084035197"
"0.015938946745802523","0.011056994905964516","-0.09682857751569132","-0.001316578183331121","-0.005744698906867422","0.0042399499689519","-0.198116626829921","-0.4980138763537793","0.25689615928591875"
"0.015479681923901055","0.013591569254352301","-0.09813588213728335","0.0011027634225561228","-0.011939844065788853","0.009082553511281377","-0.08774801456281431","-0.4981853809940016","0.3020694463390929"
"0.01616617210842044","0.011252585393977882","-0.09603965118796913","-0.00022363595557037158","0.0011720731800976146","0.006018612961922368","-0.144172260925069","-0.4640163795958714","0.26472467032009755"
"0.015787784110501617","0.012666799145598706","-0.09620074085698047","-0.005581366358885475","-0.009422334893564567","0.0008837155583930522","-0.17437664761972768","-0.5473148640853672","0.27189944348085865"
"0.015570186941214963","0.013290237334157516","-0.09420983776817368","-0.004181913541154244","-0.009999358813541062","-0.0006804109240321994","-0.18738905406475154","-0.4797816138316882","0.2697584519454151"
"0.015936058287803135","0.011481622582543722","-0.09474680333154482","-0.0017678189205838923","-0.013346384745051343","0.004729695080128651","-0.22163369543720135","-0.49450462756153896","0.3037528213631438"
"0.016129584973761622","0.01361774493304554","-0.09675835894201971","-0.0018582211079703555","-0.012471395341719088","0.0010746142226406399","-0.20845410603999318","-0.524623480917497","0.2673723087074399"
"0.014768158436720382","0.012859169609645843","-0.09390004994315189","-0.002424606697314937","-0.0010501031355314861","0.008056952500462273","-0.17944786383598987","-0.5176973319854435","0.2679279858998451"
"0.015883103224481165","0.013486970411320189","-0.09404461759482872","-0.0056446190075680166","-0.0024896713141538906","-0.001296742283965042","-0.19053766633089209","-0.5019452904142592","0.2291940168998369"
"0.0160824068264384","0.012914948734480243","-0.09619867560481365","-0.005084009915820013","-0.015320854815481073","0.010179019523321297","-0.19101135136208153","-0.4995574181157798","0.25235268106566455"
