"AccX","AccY","AccZ","GyroX","GyroY","GyroZ","MagX","MagY","MagZ"
"0.017250306677521154","0.015671912480019715","-0.09889382968250332","0.0016454172342747582","-0.014138566070278304","0.003308997418667452","-0.1548441060395104","-0.5160086709124857","0.26823851138971855"
"0.016668763800312597","0.011947175725016329","-0.0972374974447201","-0.0004014846890730479","0.002716707099437431","-0.0002852171980459653","-0.15367382537421911","-0.5135812206201089","0.26627729776946496"
"0.016743863708296478","0.014587491505585533","-0.09891861270850509","-0.0009412021145134225","-0.009925884593950525","0.0005069176101209893","-0.15350664242203463","-0.5165099921685201","0.2669964094302247"
"0.01681414951961474","0.012722578270433108","-0.09738413034856376","0.002356985463213361","-0.006009493293039962","0.001831025304164771","-0.15386887215176767","-0.5156524689674087","0.26717618734541454"
"0.0163808808197077","0.012727564113993726","-0.09894133048234002","-0.004472182545382344","-0.005118708129144269","-0.004262151359023871","-0.15657166321208302","-0.5135944132847414","0.2666531970466803"
"0.01703174668890139","0.013965092034435184","-0.09860262912698284","0.0030571932468786917","-0.008818984705982342","0.00048677447621233203","-0.15551283784824813","-0.5144519364858527","0.26604848951376875"
"0.01630866936972319","0.01256947132442583","-0.09709292979304326","0.0004791423695254368","-0.0027060253679318884","-0.0038362332866179257","-0.1582713565592918","-0.5154941569918189","0.2673069349200981"
"0.017103958138885884","0.014276707256973742","-0.09952373159338099","0.0028594444791558","-0.011096446183583472","0.004642084582044009","-0.15988745843040802","-0.5153358450162291","0.26619558053528775"
"0.016522415261677328","0.01101762751618381","-0.09771250544308685","0.0028757149473861644","-0.004697487847452593","0.0027197500797491417","-0.15554070167361222","-0.5127236974189976","0.26622826742895866"
"0.01667261507764511","0.014587491505585533","-0.09830316756279509","0.00027744632844488304","-0.009494373134922064","6.40113524908753e-05","-0.1560979781808937","-0.5141089272054082","0.26732327836693354"
"0.017248381038854902","0.014119757056555158","-0.09890209069117058","0.0003631310427941398","-0.009488389892284399","0.0004964820106261428","-0.15236422558210744","-0.5144387438212202","0.2678299252188324"
"0.01609107220043654","0.011951226722909328","-0.09787566036426501","0.0009893996572232578","-0.0009301989530726619","-0.0011902020937734695","-0.1543704210083211","-0.5147817531016647","0.26629364121630045"
"0.01681607515828099","0.013963430086581649","-0.09706814676704151","0.0034606816039997423","-0.013445706572836596","0.004845942804734034","-0.156265161133078","-0.5144519364858527","0.2660321460669333"
"0.016524340900343597","0.011946033135867022","-0.09616356631797786","-0.00021500009166348566","0.0007264412684442609","-0.003371242388196393","-0.1552620634199715","-0.5144651291504853","0.2682058244960477"
"0.016526266539009845","0.013657008451085398","-0.09846838773614006","-0.0004100531605079736","-0.005218269286635028","-0.00033909401404261474","-0.1532280041683939","-0.5144387438212202","0.2667349142808575"
"0.01645501790835846","0.013966961725770418","-0.09800577125077417","0.0027661540429710476","-0.013663257275142128","0.004852738078823702","-0.15423110188150072","-0.5147949457662974","0.2673723087074399"
"0.016379918000374576","0.012260037408445043","-0.09786533410343096","-0.0005573538492207406","-0.004243479396106507","-0.005157914097058254","-0.15559642932434029","-0.5135812206201089","0.2655908730023762"
"0.016960498058250006","0.014587491505585533","-0.09922013952485963","0.0009609022690801343","-0.012457274889094197","0.0017924378548698733","-0.15548497402288416","-0.5137659179249637","0.26645707568465493"
"0.016379918000374576","0.01148172645428457","-0.0964795498995001","0.0018619396191865316","-0.0026677326150508275","-0.0025271722709155507","-0.1565437993867189","-0.5147949457662974","0.26668588394035114"
"0.01681607515828099","0.014587491505585533","-0.09922427002919325","-0.0016391955741000643","-0.007765455342342137","0.0016225560026281857","-0.15339518712057837","-0.5141089272054082","0.26843463275174395"
"0.016958572419583758","0.012877554907775618","-0.09768565716491831","0.002446232351080508","-0.01420486039870364","-0.0004218507449203509","-0.1540639189293161","-0.5127236974189976","0.2662446108757941"
"0.01667165225831199","0.013964261060508416","-0.09707227727137514","-0.0002370470574904294","-0.002635901764218445","0.00011449053144269098","-0.1529215020893889","-0.5144387438212202","0.2663099846631359"
"0.016742900888963356","0.013809803781870139","-0.09768772241708512","0.00286782040067084","-0.011997043865404938","0.002445754920919335","-0.156265161133078","-0.5134229086445191","0.26622826742895866"
"0.016235495100405558","0.011638468911221464","-0.0969462968891996","0.0011597100613623984","-0.0030753111035286256","-0.0012069475906372929","-0.15503915281705882","-0.5123938808031855","0.26751939972895894"
"0.01623838355840495","0.013811569601464522","-0.09724369320122055","0.0013776765706733167","-0.013254721467842302","0.004427790759859138","-0.1525035447089278","-0.5120376788581085","0.26712715700490824"
"0.0163808808197077","0.011947279596757175","-0.09647748464733327","-0.0010885990781861325","-0.005295333451808166","-0.0038439993141489745","-0.1538131445010396","-0.5106524490716977","0.2657706509175662"
"0.016958572419583758","0.01318906625857333","-0.09830110231062829","-0.0022893403785950424","-0.005791224601617911","-0.0064820217911020364","-0.15230849793137924","-0.5099664305108086","0.26622826742895866"
"0.016454055089025334","0.012879632342592541","-0.09739445660939781","0.0033865498848436432","-0.012844031693192917","0.002660534119824897","-0.15308868504157352","-0.5106524490716977","0.2657869943644016"
"0.016236457919738684","0.012258894819295735","-0.09678933772452189","0.00014709003268208125","-0.005138811824406826","-0.0073615244089932875","-0.15211345115383082","-0.5108107610472875","0.26474101376693304"
"0.016958572419583758","0.013499435020221735","-0.09829903705846148","-6.564803386922987e-06","-0.007685758550408428","0.004904916076297935","-0.14832397090431634","-0.510797568382655","0.26567259023655343"
"0.016235495100405558","0.011482453556470493","-0.09648574565600052","0.0006433874511881693","-0.0052563227098105835","-0.0027548139529194123","-0.15208558732846655","-0.5099532378461761","0.2651495999378192"
"0.016669726619645723","0.013035855440825205","-0.09862121639648415","0.00046364210097461615","-0.0015646620023707495","-0.00032089238701671954","-0.15395246362786","-0.5099796231754412","0.26769917764414886"
"0.016526266539009845","0.013422881547218093","-0.09769804867791917","0.0018092772160977187","-0.010437332174618202","0.005758208351271896","-0.15782553535346647","-0.5111933483216295","0.2659340853859206"
"0.016452129450359086","0.011870102893308459","-0.09693803588053236","-0.001010038710872657","-0.000951738626568259","-0.00118195068952173","-0.1524478170581996","-0.5092672192852871","0.2653457212998446"
"0.016526266539009845","0.013501616326779506","-0.09831555907579598","0.002427747558771455","-0.008312802378835811","0.004451574219172974","-0.15005152807688926","-0.5099532378461761","0.26668588394035114"
"0.016232606642406184","0.011863455101894304","-0.09645270162133153","0.0003641900673535126","-0.0056354209633330925","-0.0007747196208623708","-0.15133326404363667","-0.5117738255654588","0.26547646887452814"
"0.016665875342313223","0.013183872671531021","-0.09843534370147107","0.00028832539891844036","-0.0052398089601306255","-0.002314819955613441","-0.1512218087421804","-0.5095574579072016","0.26693103564288284"
"0.016738086792297734","0.012872049705510771","-0.09781783330359428","0.0014518082898294152","-0.010849457927500627","0.006200386543820975","-0.150413757806622","-0.5107579903887576","0.26719253079225"
"0.016521452442344205","0.012717176939909106","-0.09736347782689564","-0.0012758538752752383","-0.005258237347454636","-0.0025223185037086446","-0.15281004678793264","-0.5116287062545015","0.2684509761985794"
"0.01645020381169282","0.013338745437132685","-0.09767120039975062","0.0018027305188215961","-0.007626883442853797","0.006222956561333084","-0.1529215020893889","-0.5105996784131678","0.26779723832516156"
"0.016376066723042062","0.012096854903575684","-0.09721684492305198","0.0009591693198011604","-0.007731231194454689","0.0014004961529122657","-0.15311654886693762","-0.5106128710778003","0.26907202717832635"
"0.01645020381169282","0.013650152916189552","-0.0982866455454606","0.00010001157726996146","-0.004324851495978763","0.0005484173197400301","-0.15108248961536003","-0.5104017884436806","0.2648063875542748"
"0.01630866936972319","0.012258063845368964","-0.09647748464733327","0.0025123732485613386","-0.012404861683588245","0.0035492588954092676","-0.15336732329521427","-0.51082395371192","0.2664407322378195"
"0.01645309226969221","0.012569263580944139","-0.09739652186156462","-0.0005702546938531007","-0.0037667346227372913","-0.0027409807163797316","-0.15228063410601528","-0.5106524490716977","0.26645707568465493"
"0.01667261507764511","0.01458645278817707","-0.0979954449899401","0.0009449206257295986","-0.010678337188063384","0.004881132616984098","-0.15230849793137924","-0.5115099722728091","0.2658196812580725"
"0.016235495100405558","0.011482453556470493","-0.09648574565600052","0.0004588283529774669","-0.001553892165622951","0.00012492613093753743","-0.15297722974011727","-0.5111669629923645","0.26645707568465493"
"0.016528192177676093","0.014588530222993994","-0.09846425723180643","-0.001040846698054412","-0.01117279235964009","0.002477061719403874","-0.1524478170581996","-0.5135680279554764","0.2643651144897177"
"0.016379918000374576","0.011482349684729647","-0.09678933772452189","0.0004546885296999186","-0.007355244227103767","-0.0003551114458254022","-0.15247568088356386","-0.5113252749679543","0.2645285489580722"
"0.016305780911723817","0.012872049705510771","-0.09659933452517519","-0.0006048174044726324","-0.0049483053788235455","0.001868156623297597","-0.153255867993758","-0.5124730367909803","0.2646102661922495"
"0.01666780098097947","0.014112486034695924","-0.09704129848887295","0.0011278430496212703","-0.010730989723274844","0.0015934333993867537","-0.15336732329521427","-0.5118002108947237","0.26694737908971833"
"0.016581147240998063","0.012585883059479526","-0.09773728846908859","-0.0014374032580595677","-0.018488144138155874","0.001759747732731366","-0.19663984408562488","-0.527961225069515","0.26443048827705956"
"0.016398211567703977","0.012606969022871303","-0.09681205549835682","0.0011133055306698795","0.0021475810597426552","-0.00027599504035284516","-0.19466151248477534","-0.5547555269380875","0.2820323805188354"
"0.016265342499732487","0.014038425483472592","-0.0972540194620546","0.0009045429075295108","-0.008871709040105454","0.003256091356112184","-0.2021568815077121","-0.5095178799133042","0.2659177419390852"
"0.016956646780917493","0.012721124066061261","-0.0965497684731717","0.0017279248749458964","-0.004543120187400814","-0.0018425484063815496","-0.11608552495808004","-0.4861272855199124","0.2742528998251629"
"0.016460794824357222","0.014192363403406643","-0.09842088693630338","0.0004194326393687974","-0.0047213011531505025","-0.0005011370322451501","-0.16454071726620895","-0.49988723473159186","0.2822448453276962"
"0.016926799381590564","0.010950837986819712","-0.0976154385912467","0.002009721682699014","-0.005881858761093274","0.004982576351608419","-0.17376364346171816","-0.5049532179504652","0.24619120160870128"
"0.016878658414934238","0.014575026896683989","-0.09687401306336119","-0.0021819937982586143","-0.00038979247803868093","-0.001066115535128934","-0.1553456548960638","-0.493277709750718","0.29494370351883814"
"0.016652395871649447","0.014071976055765913","-0.09833827684963091","-0.0016594133156880911","-0.010745349505605241","0.007163616646031342","-0.18502062890880516","-0.48697161605639133","0.2697094216049088"
"0.016610031820991866","0.011999215467180267","-0.0962069366134809","0.002505152626565615","-0.0062243395696732675","-0.005171747333597934","-0.14589981809764174","-0.5258108207344204","0.251159609446677"
"0.01624993739040246","0.014021390517973817","-0.09882361110883174","0.00011488605858115268","-0.01003645491789459","-0.003153550928966687","-0.1836831652913294","-0.5085152374012355","0.26565624678971805"
"0.016258602764400613","0.011849224673398375","-0.09774967998208947","0.0009289871198590347","-0.011906577236723432","0.004275625157922654","-0.14528681393963208","-0.515415001004024","0.27856756978972075"
"0.016353921878380147","0.013704685580133796","-0.0968574910460267","0.0008943666442635372","-0.0033400097578189627","-0.00869995071629744","-0.09836413202652766","-0.5270641238745062","0.27662269961630265"
"0.016852662292939805","0.013872646185082079","-0.09816892617195232","-0.0010008925896780733","-0.006526445456934292","0.0036318942821068315","-0.14793387734921934","-0.4808634123315518","0.3014974256998523"
"0.01648967940435103","0.012331085679183833","-0.09664683532501187","0.0020875118503329453","-0.0010175542955825835","-0.0036197552691899465","-0.12742610188125886","-0.5045310526822258","0.25553965319857663"
"0.016211424617077395","0.014613459440797078","-0.09898676603000987","-0.0013127271849334018","-0.005956170634653084","0.0002850033734212763","-0.12040441788951171","-0.5030007035848578","0.2635969724884518"
"0.016866141763603584","0.011471754767163335","-0.09804914154627722","0.0009865499184089454","-0.01445663524889662","0.003524747371014396","-0.1545376039605054","-0.5172619740525716","0.27023241190364305"
"0.01621527589440989","0.014594762527444766","-0.09740684812239869","-0.0006095348775098387","-0.007367785103672314","-0.002026020806802572","-0.11533320167325","-0.5081062647976285","0.2738443136542767"
"0.016731347056965842","0.012922842986784555","-0.09748739295690435","0.0017002939614422596","-0.010891101296258782","-0.00039003430087908644","-0.1317728586380551","-0.5024466116702935","0.2456518678631315"
"0.01645116663102596","0.013923647209837556","-0.09714249584504675","0.0025788029709219984","-0.0040259286938009765","-0.0017913411623486978","-0.13389050936572489","-0.4896629196414178","0.24659978777958746"
"0.01645694354702471","0.013852495067357919","-0.09807598982444579","-0.0010438312218126445","-0.009514237500479115","-0.005305711308508523","-0.18248502080067414","-0.4899003876048024","0.2846800189061778"
"0.01670631375430454","0.011727383121385798","-0.09680585974185639","0.0027148394893214364","-0.020888381754681908","0.005913528901892868","-0.1634540280770098","-0.519979662966863","0.23867321606439587"
"0.0162874873443944","0.013886149511392082","-0.09737173883556288","0.0010478578129006384","-0.0036382145708802292","-0.003952966387944","-0.1462063201766466","-0.5321828777519095","0.3055506005150429"
"0.016709202212303927","0.0119234929681034","-0.09809457709394709","0.0005610506022959699","-0.008795099601372779","0.007260934678529796","-0.16144783265079646","-0.5338583461602349","0.2873440007403555"
"0.016792004674952826","0.013200803765288949","-0.09678933772452189","0.0030220528864995017","-0.004611472751293508","-0.0023915094774825457","-0.16897106549909702","-0.4862855974955022","0.2605244044833878"
"0.016532043455008607","0.01292845206079025","-0.0982515362586248","-0.0009034623302157721","-0.014350133529946168","0.0028390314088588414","-0.19402064450140155","-0.5088450540170476","0.3125455957606141"
"0.016645656136317556","0.011810896001026135","-0.09762989535641438","-0.0009013442810970263","-0.006311288051683827","0.0007088100570922176","-0.15793699065492273","-0.5165099921685201","0.25720668477579217"
"0.016946055768253105","0.01469240196384018","-0.09830523281496191","0.0038243121277043973","-0.0012674145081315099","-0.004878094417580161","-0.13216295219315197","-0.5069453103099701","0.26073686929224865"
"0.016737123972964608","0.012809518917521363","-0.09904665834284743","-0.0013529701181895695","-0.014990340492176414","0.0040613313357377836","-0.10663968815965813","-0.5126709267604675","0.2796462372808602"
"0.01681896361628038","0.012773371551706894","-0.09756587253924322","0.0013339388563712185","0.0016028666500095554","-0.0012654354854805025","-0.1548719698648742","-0.5203358649119401","0.2729617675251626"
"0.016111291406432204","0.01424004053245504","-0.09755967678274277","0.00047248976979337654","-0.0041544487456580395","0.0035727996663627586","-0.10588736487482808","-0.5057051998345168","0.23381921235426825"
"0.016258602764400613","0.012542153056583282","-0.09639074405632717","-0.001613490159795287","-0.01687554058245217","0.0057366090872011674","-0.10783783265031352","-0.5295047668315156","0.2570105634137668"
"0.01638762055503959","0.01431223139234314","-0.09887111190866842","0.0009884176526318393","-0.005501898920630941","-0.0025613913297242333","-0.10753133057130854","-0.5171168547416143","0.27940108557832855"
"0.017005750566906962","0.011201272753999868","-0.09827218878029291","-0.0004523178679229441","-0.014081605600367725","0.002087449825705581","-0.19003611747433882","-0.5182118459061104","0.25815460469224805"
"0.01648005121101975","0.01451374256958474","-0.0977207664517541","0.0035210460038839937","-0.0044394904249164405","-0.0014168730223359494","-0.07676966736936836","-0.5148609090894598","0.2663426715568068"
"0.016314446285721956","0.01415123019403155","-0.09899089653434351","0.0012545697793942216","-0.007975730421600265","-0.001462741122441205","-0.16663050416851474","-0.495929435341847","0.24723718220616983"
"0.016952795503584996","0.012068186303102137","-0.09625030690898397","0.0026154837306602763","-0.014475542295631643","0.0030112916070319127","-0.14896483888769013","-0.5129215873884848","0.266424388790984"
"0.016211424617077395","0.014031050589872513","-0.09920981326402556","-0.0020266060129106363","-0.0018743546412963343","-0.0075814000634661","-0.1801444594700917","-0.5263253346550872","0.27940108557832855"
"0.016563816493001787","0.011951746081613564","-0.09750598022640566","-0.0031053669390717843","-0.013823847507537079","0.0023599160478652136","-0.17278840957397545","-0.5166683041441099","0.2839445637985827"
"0.016584998518330576","0.013677782799254636","-0.09712803907987906","0.002388948749914432","-0.0031011587117233414","-0.0033244035346497555","-0.08880683992664934","-0.532605043020149","0.2922797216846604"
"0.01658788697632995","0.014004355552475046","-0.09798305347693924","-0.000574587067050535","-0.013962419407025419","0.003268662613178069","-0.15225277028065118","-0.5085416227305005","0.23862418572388952"
"0.01657922160233181","0.012244041160354728","-0.09685129528952625","0.0010182340077261817","-0.005673737649184704","-0.0023461267540979807","-0.17551906445965504","-0.5294388035083532","0.2770476292340242"
"0.016176763121084826","0.014435838763950102","-0.09735521681822838","-0.0006020254306342858","-0.008168366901562557","0.002423815893144122","-0.13149422038441438","-0.5390958340193305","0.28961573985048256"
"0.016788153397620326","0.011467184410566105","-0.09637009153465906","0.0006535126887253731","-0.015418740665033293","0.005149545943525964","-0.1320793607170601","-0.5269453898928139","0.2877035565707354"
"0.016621585652989393","0.014560484852965523","-0.09792935692060213","0.000754228812570528","0.0018759418439926242","-0.0021524614425424567","-0.16130851352397593","-0.5334229882273629","0.26235487052895784"
"0.016289412983060667","0.012849301794265456","-0.09753902426107465","-0.001124413363284923","-0.009409650419172714","0.002328657787052743","-0.16105773909569945","-0.5099268525169112","0.2637930938504771"
"0.016442501257027807","0.014050890092374136","-0.09701238495853759","0.0038667693850392535","-0.009246642956752147","-0.0014809427494671002","-0.1729555925261599","-0.5122091834983307","0.2755603755719986"
"0.016258602764400613","0.013832759436597144","-0.09820403545878813","0.0022304801658482786","-0.004351177763584493","-0.008169919337303374","-0.14915988566523855","-0.5326182356847815","0.28642876771757053"
"0.016580184421664937","0.01170910169499687","-0.09655183372533852","0.0010760374936759501","-0.009737771445422311","-0.0015569042062551694","-0.15974813930358764","-0.5128292387360575","0.2823592494555443"
"0.01645501790835846","0.013583882745529682","-0.09840229966680207","0.0017649907345239457","-0.0004297605388582898","-0.009269540298027783","-0.11463660603914816","-0.5242277009785224","0.2587919991188305"
"0.016612920278991257","0.01202798793939466","-0.09775794099075673","-0.0009619012309011643","-0.009172307150221786","0.0032270658282148898","-0.16551595115395165","-0.5038054561274392","0.2549512891125006"
"0.016925836562257438","0.013307583914878827","-0.09643824485616384","0.0013658154956083409","-0.002980536540147998","-0.0036685356296193455","-0.15442614865904913","-0.5119321375410485","0.2674540259416171"
"0.01613825034775976","0.012932087571719864","-0.09778065876459166","0.001626932441965705","-0.008673256848299352","0.0010994485225547712","-0.16649118504169438","-0.4900982775742897","0.2535620961314876"
"0.016582110060331185","0.012275410426090278","-0.09669227087268173","-0.0016126236851558005","-0.012883521094601513","0.002355426313198826","-0.1702249376404805","-0.5166683041441099","0.27096786701123815"
"0.016378955181041453","0.013556356734205445","-0.09844360471013831","0.002375277705602528","-0.005754774687469251","0.0016442280732070183","-0.16849738046790771","-0.5188978644669995","0.2975913419061805"
"0.016373178265042688","0.011505409211197502","-0.09772902746042135","-0.0002952741532639467","-0.00286805157855988","0.00730122094634711","-0.19452219335795495","-0.5213385074240088","0.27670441685047986"
"0.016689945825641386","0.013032219929895589","-0.09731597702705895","0.0026865346510981988","-0.008582574822882888","-0.0038578325506886542","-0.14857474533259313","-0.5206392961984871","0.27574015348718856"
"0.016657209968315087","0.01348354264387227","-0.09783848582526239","0.00021661018125691071","-0.006229844152899919","-0.003105498633618324","-0.16924970375273776","-0.5121696055044334","0.24303691636946004"
"0.01640591412236899","0.011596608599660451","-0.097359347322562","-0.0015291532948852322","-0.012940481564512092","0.0010878650071154915","-0.10677900728647849","-0.5104017884436806","0.2706083111808583"
"0.01623838355840495","0.013489047846137116","-0.09853654105764485","0.001590155407267485","-0.0021483871541014307","-0.0011355972126957843","-0.1909556237113532","-0.49764448174406983","0.27652463893528995"
"0.016841108460942295","0.012077430888037446","-0.09662411755117693","-0.002003114922684548","-0.008082208207580167","0.007549248450619973","-0.1558472037526169","-0.5313253545507982","0.23996434836439612"
"0.01636162443304516","0.013204958634922798","-0.09743782690490085","0.0009032239405782918","-0.0005472714242620477","0.00030932074712787213","-0.19435501040577066","-0.5248741415455142","0.3059264997922582"
"0.01695375832291812","0.012909443532215396","-0.09821023121528856","-0.002076283892241216","-0.00910936343767354","0.004364934474529713","-0.15333945946985","-0.48709035003808365","0.2673559652606045"
"0.016748677804962118","0.012714684018128797","-0.09644650586483108","0.0012009349992099846","-0.005475022194702546","0.002349480448370367","-0.15668311851353928","-0.5078687968342439","0.2519114080011075"
"0.016568630589667427","0.013240690513773884","-0.09841882168413657","0.0003409974295032475","-0.0036987649863734076","-0.0015496235554448108","-0.11641989086244897","-0.5218398286800431","0.24710643463148627"
"0.016719793224968315","0.012087506446899527","-0.09680172923752277","0.0007928158165156765","-0.009923730626600966","0.00475226509764076","-0.17256549897106277","-0.5456262030124095","0.30765890515681554"
"0.016251863029068708","0.013598320917507303","-0.09657455149917345","0.001801767769222166","-0.017978850524837754","0.0034543677465142682","-0.2092621569755516","-0.48029612775235503","0.27502104182642884"
"0.016236457919738684","0.012447318157190716","-0.09710532130604413","0.004513929665775999","0.004566486393298207","0.003293149868736907","-0.16743855510407285","-0.4687789315281976","0.26341719457326185"
"0.016204684881745503","0.01262452334707431","-0.09781163754709384","-0.0040121807867747605","-0.009163308353294737","0.00266033996913662","-0.2561291112379281","-0.4991880235060703","0.2529573885985761"
"0.01681607515828099","0.014563601005190911","-0.0965497684731717","-0.003082549773565297","-0.0055864062396453334","0.0021043652044216462","-0.11639202703708502","-0.5107184123948602","0.26333547733908463"
"0.016487753765684777","0.01149367170448188","-0.09671911915085028","0.004043530211494574","-0.0037545288077564538","-0.00044878915291867566","-0.14071714657992362","-0.5013911984996948","0.26189725401756536"
"0.01629230144106004","0.014567755874824758","-0.09666335734234636","0.0009095299504545574","-0.0017470312379668056","0.002689219884017707","-0.1370391216318654","-0.4931985537629231","0.3054688832808657"
"0.016819926435613503","0.01138855350274554","-0.09827425403245973","0.0008996617670604014","0.0029215733273511104","0.0013518004907206273","-0.16601750001050478","-0.5458636709757941","0.25120863978718333"
"0.016143064444425398","0.01295182320248064","-0.09755554627840914","-0.00041120846002728925","-0.00949461246462757","0.002340792205070006","-0.19156862786936302","-0.5002302440120364","0.23363943443907834"
"0.01674193806963023","0.014160474778966863","-0.09678933772452189","-0.000530108035556876","-0.007131887386142645","-0.0019177817980885821","-0.20349434512518758","-0.5189374424608969","0.2711639883732635"
"0.016547448564338634","0.012822295141645448","-0.09842708269280381","0.0026820097279808787","-0.008069188671600606","-0.0006427214216705796","-0.13244159044679268","-0.5068661543221752","0.24870809242136002"
