"AccX","AccY","AccZ","GyroX","GyroY","GyroZ","MagX","MagY","MagZ"
"0.006620781239801784","-0.022561197890644438","-0.03283467387485431","-0.0003230205967195151","0.004111281293424591","-0.009486018315455761","-0.10388116944861443","0.06215985660606912","0.6822507066252493"
"0.0069115526784060705","-0.023030698159269197","-0.031583131061766224","-0.0044598593505096405","-0.004303790481894179","-0.006978319488008109","-0.10959325364825008","0.05803055257610204","0.6861567904189209"
"0.007199435659010966","-0.02318338961831309","-0.032345209111319856","-0.008733697372298637","-0.003872997011982237","-0.007405693690576126","-0.1097604366004347","0.05944216769177769","0.6842282636923385"
"0.006333861078530013","-0.021946277184835015","-0.029439399312615355","-0.0025901996284168707","0.0007554001628105627","-0.005650571468559149","-0.1076149220474007","0.05766115796639252","0.6870556799948705"
"0.007199435659010966","-0.023028620724452276","-0.03188052737378715","-0.0016392918490600072","0.0001080133094151172","-0.006090565465865119","-0.11527747402252178","0.05871657113699115","0.6870556799948705"
"0.006909627039739805","-0.022563275325461363","-0.031273343236744425","-0.0017521261021131856","-0.004310013054237351","-0.0035491329563294735","-0.11508242724497321","0.05646062548483658","0.6890005501682887"
"0.007055012759041948","-0.02380038775893944","-0.0352923239533606","-0.002235811500866743","-0.005788831304562845","-0.0061378896961324465","-0.11254681913684235","0.059006809758905744","0.6881997212733518"
"0.007780978536219523","-0.025353270284589915","-0.036653325131289716","-0.005434932144812195","-0.0013679329844442964","-0.011255459150733109","-0.1174787162262837","0.05803055257610204","0.6880689736986683"
"0.0071301126670258305","-0.023651851169529392","-0.03188052737378715","-0.007760742627114827","-0.0017707248788119618","-0.010818862790471973","-0.1154446569747061","0.0554579829727679","0.6887717419125924"
"0.007783866994218896","-0.02613126962352785","-0.03711594161665561","-0.010403779102429598","-0.001773596835278041","-0.010406535266245364","-0.1186768607169391","0.055563524289827755","0.6918933402581626"
"0.007631741539584881","-0.024264694440521886","-0.03604201048991336","-0.011751628541631387","-0.0017680922520513888","-0.013609293557721863","-0.12271711539473004","0.05467961575945141","0.6937074628568972"
"0.007780015716886398","-0.024117196568520304","-0.03169671993094088","-0.010253590164918542","-0.0026126867827843013","-0.009543292768497245","-0.12151897090407496","0.0504975410709544","0.6980057893746195"
"0.007354449571644372","-0.02567423396380463","-0.03279749933585169","-0.004593200170030676","-0.004312406351292418","-0.01041842699590228","-0.12391525988538545","0.050391999753894544","0.696665626734113"
"0.007632704358918005","-0.02426573315793035","-0.035267540927358856","-0.0041149061690339255","-0.007265016928127765","-0.006579582511960835","-0.11959636695395377","0.04981152251006529","0.6980711631619616"
"0.0066217440591349085","-0.023025504572226886","-0.03422871908745241","0.0030389972794494674","-0.0039014772469375264","-0.0026924430443106785","-0.12505767672531265","0.04956086188204813","0.6964204750315813"
"0.007628853081585491","-0.024258462136071118","-0.03898706007978729","-0.0005657297707357806","-0.006010450611861988","-0.0005762005420999415","-0.12346943867956009","0.050853743016031426","0.6979567590341134"
"0.007914810423524137","-0.023018233550367653","-0.03525721466652479","-0.0032886744628032277","-0.0030552074082660684","-0.0031176330516355867","-0.1183703586379341","0.04894080664432144","0.698528779673354"
"0.0070530871203756985","-0.022561197890644438","-0.032196510955309385","0.0006698630651724903","-0.006428320277676571","-0.006562351638376319","-0.12411030666293402","0.04880887999799661","0.6988066182695566"
"0.006023833253263202","-0.016193860176773232","-0.024197789313246468","-0.012043341670258634","-0.020260619937138007","0.014359569218628883","-0.12137965177725459","0.044609654845477374","0.697613546650569"
"0.0044631031142647265","-0.02241681617086824","-0.03184335283478454","-0.004929681155031409","-0.02911198976559537","0.02540091886089719","-0.11675425676681792","0.03874683468280205","0.6954071813277838"
"0.01009944749038875","-0.03170502723733419","-0.049245167592342556","0.006719300173189959","-0.008381490004316214","0.011785373780446626","-0.11148799377300732","0.038262663890789944","0.6936257456227201"
"0.009358076603881148","-0.024564883771567365","-0.037826388362038936","-0.010128432716992661","-0.0034740343929026783","-0.0031319516648959577","-0.11207313410565305","0.03719010025616909","0.6957503937113282"
"0.005835120663970353","-0.023654967321754775","-0.032867717909523295","0.005272672625086665","0.0007355357972535122","-0.0033032896472997174","-0.11042916840917229","0.03480486649061621","0.696224353669556"
"0.00849346484273332","-0.02533768952346299","-0.042355486363857685","0.0034641475025576894","0.00027865538944134706","-0.009960959436651451","-0.11157158524909978","0.03730355717200845","0.6974664556290501"
"0.008646553116700477","-0.025046848649093668","-0.03227705578981506","-0.010253590164918542","-0.0022019970081349166","-0.009117617384451646","-0.11767376300383228","0.037663716916475236","0.6979404155872778"
"0.005486580065378459","-0.026534291978011052","-0.03504449369334316","0.0067782204486750664","0.009572545843380478","-0.017174628259554195","-0.1174229885755558","0.037221762651287064","0.7013725394227216"
"0.008485762288068306","-0.024011247392857194","-0.04328898034325671","0.006275568882812739","0.012062532099471501","-0.017580645886411825","-0.11984714138223024","0.0406175545276881","0.7010783573796836"
"0.008052493588161267","-0.020844198014456982","-0.03153769551409636","-0.007300355768667473","0.00790633243364329","-0.014592181417120199","-0.12667377859642914","0.04162547410560979","0.7025982979353801"
"0.005839934760635992","-0.02428131391905728","-0.03131671353224747","-0.00015492451665906308","-0.0032531330747200544","-0.009544748898659316","-0.12617222973987557","0.04141439147149005","0.7038894302353803"
"0.008916142529975971","-0.022385654648614382","-0.03769627747552978","-0.006929408348007151","-0.013587150428791016","0.0015191707611211017","-0.12547563410577373","0.04192758612569363","0.7034808440644942"
"0.006627520975133673","-0.024504638161876577","-0.034691335572818296","-0.007095386378948857","-0.012926600441592707","0.0010891269865892868","-0.1223270218396332","0.038884038394979885","0.7031539751277853"
"0.00908078463594064","-0.028754031079894046","-0.04650664321914983","0.003305293818651764","-0.005419545568966108","-0.010234711907120912","-0.12252206861718178","0.03797110600241206","0.6999506595480379"
"0.008339413749433039","-0.020842120579640057","-0.031835091826117295","-0.013589517526942976","-0.013557473545308193","-0.001682859465274363","-0.12385953223465755","0.035898538388649044","0.7018301559341142"
"0.006709360618449445","-0.02706923144336891","-0.03778095281436908","-0.0016881032537511007","-0.0051584368602583695","-0.008719851161845753","-0.12126819647579817","0.0355885107697857","0.7004082760594303"
"0.009135665337928874","-0.023164692704960774","-0.037064310312485305","-0.006413278287752808","-0.012754761713038944","-0.008543174035514396","-0.125196995852133","0.03665315880562704","0.699444012696139"
"0.006490800629829667","-0.02536677361089992","-0.0325248860498325","-0.009709636641240676","-0.020707927156729904","0.005741948231128764","-0.12196479210990031","0.031072661666086857","0.6993459520151264"
"0.009947322035754718","-0.029683683160467413","-0.04724187299053491","0.003018586987941555","0.003415071180105789","-0.015531628060016732","-0.11876045219303126","0.030162367806445555","0.7009149229113292"
"0.00905960261061185","-0.02199925177266657","-0.03614114259392034","-0.014699567815085593","-0.00809309770918072","-0.010432745609162653","-0.12048800936560418","0.03158717558675368","0.6987412444822148"
"0.006354080284525679","-0.0273881176877667","-0.03485035998966283","-0.0035605549496822175","-0.0013557271694634573","-0.009977704933515274","-0.12121246882507027","0.03041302843446272","0.6987249010353793"
"0.008925770723307235","-0.023639386560627848","-0.033972627818767726","-0.006117329060888073","0.0028354146333687226","-0.01207356161345701","-0.12672950624715704","0.029510650173600897","0.7017811255936077"
"0.007068492229705725","-0.026373290779699465","-0.034356764721794754","-0.005592052879439146","-0.001359077785340551","-0.012971508546734501","-0.12475117464630796","0.028641253574320295","0.7022550855518357"
"0.008500204578065208","-0.02504165506205136","-0.034918513311167625","-0.0006492964359662915","0.003455039240925399","-0.010361880607941834","-0.1296830717357493","0.026666311678837637","0.7016994083594305"
"0.0061971407332260245","-0.02466356192537124","-0.034398069765131","-0.002339210807845509","-0.0009313956016001955","-0.00353651316159152","-0.13180072246341906","0.02843149020666383","0.6995093864834808"
"0.008641739020034836","-0.024727962404695877","-0.03553189320471079","0.0013092250741538543","-0.004130755104812882","7.881534247193671e-05","-0.13046325884594362","0.0286689581700485","0.7025329241480385"
"0.008350004762097442","-0.0241036932422103","-0.03678550126996569","-0.0026556666011781005","-0.012750932437750835","0.002589426430243733","-0.12483476612240012","0.02884969767551353","0.700980296698671"
"0.008074638432823182","-0.027679997279544486","-0.04081893875174954","0.002356215263533817","-0.004763303516466917","-0.0005844519463516803","-0.13230227131997233","0.02682726218735392","0.702483893807532"
"0.00907404490060875","-0.024881692581148234","-0.035977987672742184","0.0034221716200225484","-0.00309350016114713","-0.006553372169043546","-0.12594931913696306","0.0283378222877732","0.7013725394227216"
"0.007065603771706352","-0.026368097192657154","-0.03714692039915778","-0.00228539310523738","-0.005365457055521609","0.0007044659354420373","-0.13154994803514228","0.026828581453817172","0.7022877724455068"
"0.009511164877848305","-0.027283207229512052","-0.041378622088955604","0.0031409524620290884","0.0002719541576871621","-0.0018333262486884294","-0.13037966736985113","0.027306155913513045","0.7029578537657599"
"0.007780978536219523","-0.024582541967511216","-0.03247118949349539","-0.0002342550836520827","-0.0015859623461608398","9.968654146162957e-05","-0.1250298128999487","0.02759903306835416","0.7033174095961398"
"0.007115670377028929","-0.02181539879136882","-0.031246494958575864","-0.004039137775558796","-0.022562732374406324","-0.01015947851541388","-0.16038900728696143","0.04582206072520252","0.6623117014860046"
"0.007743428582227581","-0.022970452549578413","-0.03529438920552741","0.0061744801748726055","-0.02699368254215615","0.013451672062577236","-0.0970823960597798","0.039139976088850024","0.7190234620050039"
"0.007639444094249894","-0.022520687911714424","-0.036537671009948244","-0.009727928883629841","-0.00888563802896594","0.02537446582961956","-0.0986427702801684","0.06929708817224227","0.6748307817619567"
"0.007731874750230052","-0.023726638822938642","-0.03185574434778541","0.005279893247082389","-0.003969446883301411","0.008798365441317069","-0.1463735031288309","0.04872972401020172","0.7184024110252568"
"0.007359263668310012","-0.025190191651461406","-0.037056049303818055","0.0031879346424812656","-0.00026964896587435163","-0.0026647765712313172","-0.08518454262931918","0.052700716064579003","0.6848329712252499"
"0.007753056775558843","-0.023771303671502503","-0.036120490072252216","-0.01058862702552013","0.002021214975235152","-0.005153788394932386","-0.0958285239183965","0.05213343148538226","0.6844243850543636"
"0.006718025992447582","-0.026050249665667824","-0.03130432201924661","0.0072682599947848595","0.0017919371173597963","-0.008564530611224778","-0.1519462682016462","0.058967231765008295","0.6702546166480315"
"0.007576860837596647","-0.02396035023984256","-0.032547603823667434","0.007439148048683658","0.01030680937987483","-0.008241512403605227","-0.13185645011414726","0.033186126540210595","0.7008168622303166"
"0.008078489710155698","-0.024175364743394167","-0.03541004332686888","-0.007247982190458489","0.013520528665417917","-0.01565952482591869","-0.08629909564388243","0.031216461710580932","0.6819565245822111"
"0.006909627039739805","-0.025592175288536145","-0.034150239505113554","0.0014059910363925488","0.008344784454131442","-0.017530166707460014","-0.08933625260856655","0.03724550944762552","0.6694864746467655"
"0.00600457686660066","-0.024256384701254192","-0.03938152324364838","-0.005469206030551897","-0.003825609730291924","-0.010961320857994646","-0.18738905406475154","0.040035758017395603","0.6913703499594285"
"0.004591158085570577","-0.022876967982816843","-0.03508992924101302","-0.007173561646422562","-0.013971274606129165","-0.009254008242965685","-0.1584106756861122","0.0469196904226251","0.6965839094999358"
"0.010084042381058724","-0.024335327224297293","-0.03239684041549015","0.002123903785191394","-0.01422759672072677","0.001011733668475181","-0.15974813930358764","0.0409566060087429","0.702369489679684"
"0.009438953427863796","-0.022967336397353027","-0.024451815329764343","-0.012779845113822469","-0.004663550895211752","0.0018546874192984348","-0.13843231290006922","0.022500068187899586","0.686009699397402"
"0.005947770525946177","-0.022493681259094414","-0.032033356034131245","-8.198660700625751e-05","-0.008231143083316947","-0.012467444822297379","-0.14330848233878252","0.04406347852969259","0.6938382104315808"
"0.008621519814039188","-0.01612322739299783","-0.04925962435751024","-0.006585995565890524","-0.002564581511977468","-0.001937682243636894","-0.0946861070784693","0.0582944058687517","0.7138589328050027"
"0.008662921045363627","-0.02236903517007899","-0.03766323344086079","-0.009260032578306935","-0.013622092565794984","-0.007320752764455282","-0.13361187111208414","0.05913873640523056","0.6897033183822129"
"0.005413405796060825","-0.03182759589153269","-0.03291108820502635","0.002855304655878252","-0.021388580839190777","-0.011732099090451215","-0.13642611747385572","0.052146624150014725","0.6977279507784171"
"0.00844917515340949","-0.024760162644358197","-0.04209939509517299","-0.013783992946027807","0.004096682181388684","0.008704202357503105","-0.1274818295319874","0.030857621232577393","0.7059160176429757"
"0.008121816580146404","-0.02368405140919171","-0.032452602223994084","-0.0062365174612974885","-0.005495173755906205","-0.015618995869741028","-0.09931150208890598","0.04797774212615021","0.6791127648328436"
"0.0059737666479406076","-0.02510605554137599","-0.03516634357118507","-0.005355697852779118","-0.003913204402507352","-0.0055544668778624235","-0.15813203743247145","0.023423554712173382","0.6882650950606937"
"0.0088343028866602","-0.02512163630250292","-0.04329104559542352","-0.004660592641990765","0.000936572749879085","-0.012253879065193542","-0.12015364346123523","0.041810171410464544","0.6697316263492972"
"0.0066236696978011576","-0.026641279871082623","-0.0315438912705968","-0.0010317968518197714","-0.0025234168026303265","-0.016582225971951397","-0.15007939190225322","0.01921905249380115","0.6823487673062619"
"0.009064416707277489","-0.024017479697307963","-0.03108953579389815","-0.0013097426611751693","0.005546062877936861","-0.010329117679295223","-0.08641055094533853","-0.006279729707861443","0.6973520515012017"
"0.008310529169439236","-0.020868088514851606","-0.037923455213879104","0.000623643382403062","-0.0019638639511558153","-0.008974431251847936","-0.1586893139397529","0.011898442889236477","0.694099705580948"
"0.007632704358918005","-0.02310340837786153","-0.03176074274811206","-0.002495079967993202","5.536077420365814e-05","-0.0012960142188840065","-0.1040204885754348","0.07511505327516715","0.6980548197151261"
"0.00783682205754088","-0.024242881374944188","-0.04900146783665874","-0.002193161693612001","-0.002490867962681424","-0.002874216626209283","-0.1231629366005554","0.03455816366198879","0.7005717105277848"
"0.007163811343685274","-0.022983955875888414","-0.03799367378755072","-0.006571554321899077","-0.0005355442686922225","-0.008086191852984257","-0.15467692308732578","0.059468553021042626","0.712731234973357"
"0.005849562953967255","-0.022531075085799043","-0.03289250093552504","-0.010043710752242835","-0.0035518165471923346","-0.007603970080978209","-0.15409178275468036","0.01618869742771986","0.6961426364353788"
"0.004503541526256041","-0.016306041656887114","-0.041892869878491786","-0.00974333287722072","-0.004521101854494203","-0.014080108976791683","-0.15186267672555417","0.0594289750271452","0.6783446228315776"
"0.010031087317736756","-0.0222952862340782","-0.03257032159750236","-0.01194032746311964","-0.003073396465884572","-0.018542905235180814","-0.1092867515692454","0.055022625039895995","0.6952927771999357"
"0.009410068847869992","-0.03181513128263115","-0.03523862739702348","-0.011035342839655581","-0.004096770286630941","-0.015276562593293855","-0.147488056143394","0.06403321498388168","0.7152808126796866"
"0.005782165600648385","-0.024547225575623513","-0.04375779258512304","-0.00421118112897691","-0.004432071204045734","-0.008613068283293833","-0.10165206341948825","0.054983047045998504","0.7289275907872845"
"0.008562787834718456","-0.02353966968941551","-0.03139106261025271","-0.004000050141821945","-0.007509181093685634","0.0006256892936739633","-0.13090908005176866","0.04456479978572692","0.6634557427644857"
"0.008526200700059638","-0.025262901870053738","-0.0313559533234169","0.0043994587384037906","-0.004751073768515528","0.006234362914269312","-0.07640743763963516","0.0222573231586619","0.7060957955581656"
"0.005682995209336321","-0.024994912778670574","-0.03767355970169484","0.0002077913949261333","-0.009218856777942827","-0.009966298580579047","-0.11290904886657524","0.03693152402937243","0.669028858135373"
"0.00840488546408566","-0.026576879391757985","-0.03474709738132223","-0.0027283541959350547","-0.019810680090785533","-0.0014479371324601436","-0.12611650208914738","0.012418233875756302","0.7129600432290533"
"0.008084266626154444","-0.023833626716010213","-0.04650251271481621","-0.000517303465884459","-0.027422800704129544","-0.006473770386850297","-0.14049423597701094","0.026060768372206677","0.6990517699720883"
"0.0058880757272923205","-0.02088678542820392","-0.03205607380796618","-0.010733039465434607","-0.010698919542736956","-0.006915705891039031","-0.16325898129946137","0.03477584262842476","0.6953908378809482"
"0.008872815659985267","-0.02412135143815415","-0.03776443079703457","-0.006105390965855143","-0.005527937992590062","0.007824457051251506","-0.11541679314934215","0.03482729402049144","0.6745692866125894"
"0.006661219651793116","-0.022544578412109047","-0.036938329930309766","0.006688203361128375","0.0012821648446306652","-0.01794055272480386","-0.16353761955310211","0.049297008589398485","0.7165229146391805"
"0.009152996085925149","-0.024337404659114218","-0.03267564945800978","-0.009644169668479446","-0.0010793013596032957","-0.010819833543913355","-0.12029296258805561","0.06477200420330069","0.7275220543594361"
"0.008415476476750063","-0.02878207644992252","-0.047192306938531416","0.005450781300981187","-0.007266141777743646","-0.012371340231600653","-0.09318146050880922","0.02443411282302156","0.7103124048417108"
"0.006735356740443874","-0.02075590703473772","-0.036201034906757884","0.0017475649667742653","0.015307364246730449","-0.00893632917927373","-0.14052209980237487","0.041109640918479705","0.7039548040227221"
"0.009072119261942502","-0.027082734769678915","-0.03486068625049688","-0.010708007975849431","0.009345661282560189","-0.011467568777674873","-0.07858081601803343","0.05747646066153776","0.7111132337366478"
"0.006560123621814803","-0.023212473705750025","-0.03398088882743497","0.007121344405911865","0.006038364082164011","-0.010550692152290453","-0.12620009356523984","0.04006742041251357","0.6933479070265174"
"0.010026273221071117","-0.02534496054532222","-0.0339684973144341","0.007717382682918885","-0.00621577156621613","-0.005048704334902883","-0.12246634096645358","0.025825938941748488","0.7120938405467745"
"0.009177066569253314","-0.029770935422778207","-0.035025906423841846","-0.008258291620100175","-0.013705618633016801","0.0022751450035966114","-0.1291536590538321","0.02810695065670474","0.6825122017746166"
"0.006405109709181398","-0.021983671011539644","-0.03419774030495023","-0.0006674924033955157","-0.009080308811425035","0.005492464596693828","-0.15136112786900077","0.04857141203461192","0.7211317666467764"
"0.00889881178197968","-0.027500299167880583","-0.03558972026538153","-0.00612012103472642","-0.003726766561917684","-0.0034731714995414045","-0.09816908524897879","0.012114802589209208","0.6958321109455055"
"0.007028053817714393","-0.023543824559049357","-0.03680202328730018","-0.0074283051904317","-0.011483681647093208","-0.009167125809962078","-0.046760327452257916","0.018959157000541235","0.7221123734569032"
"0.008429918766746964","-0.0262933095392479","-0.04118861888960889","0.0029536976649399828","-0.0033091362258086065","0.002603381010963586","-0.1499122089500689","0.0241808136620779","0.7060467652176594"
"0.00627705473787553","-0.024926357429712095","-0.0360667935159151","-0.012511237975581542","-0.013403345214961922","-0.004775194552793767","-0.16899892932446114","0.0077097718684232186","0.6920731181733526"
"0.00869661972202307","-0.024665639360188167","-0.037380293894007544","-0.0004057207873105391","-0.01952731371946568","0.003695721320877637","-0.14283479730759338","0.01008181296934362","0.6972703342670246"
"0.008448212334076366","-0.024808982362555902","-0.04128981624578268","-0.007407509799084016","0.004893410771020271","-0.0074865089145711","-0.1609184199688791","0.027314071512292544","0.7000487202290505"
"0.008003389802171797","-0.02423249420085957","-0.03239064465898972","-0.010032157757049676","-0.008784018636007822","0.016724567290193518","-0.1084508368083232","0.03711754060069044","0.6677704127290436"
"0.009130851241263234","-0.027597938604275996","-0.031194863654405564","0.0054763904403260216","0.0009971231653722644","0.025434895231345532","-0.14085646570674398","0.03101329467524068","0.7156076816163957"
"0.007057901217041338","-0.02489519590745824","-0.035259279918691606","-0.01616487270541783","0.005814830137220813","0.009779069105472295","-0.09894927235917308","0.02145652841547022","0.6959792019670243"
"0.009408143209203744","-0.02648962712944719","-0.036744196226629444","-0.0021543628847549776","0.0041282737025155605","-0.004140079113770201","-0.09674803015541117","0.021625394522765986","0.7067005030910772"
"0.007903256591526625","-0.02734241412179438","-0.031905310399788896","-0.006894653087467733","0.0075152676948454485","-0.004368691549215444","-0.1308812162264047","0.05336034929620314","0.7118650322910782"
"0.007111819099696431","-0.02466148449055432","-0.03733485834633768","-0.004705167948444367","-0.0022445976957150976","-0.010204375862077755","-0.0986984979308963","0.0463101893166044","0.7095606062872805"
"0.007773275981554509","-0.02177073394280496","-0.0359284216207387","-0.0018567769835712107","-0.0027120086105695542","-0.015325828330443944","-0.10669541581038633","0.028398508545082628","0.7054093707910768"
"0.00765484920357992","-0.023189621922763862","-0.031591392070433474","-0.003906567155717306","-0.012097083682306711","-0.012915204847134397","-0.1377914449166956","0.02907793077365547","0.6896706314885418"
"0.007910959146191639","-0.022597552999940602","-0.032431949702325956","0.001404720206921301","-0.007913289301433585","-0.015587931759616832","-0.16275743244290797","0.027478979820198576","0.6747327210809438"
"0.007353486752311247","-0.023554211733133976","-0.03490199129383313","-0.002750882536561713","-0.0035376960945674427","-0.009644493814761223","-0.08490590437567845","0.03133783422519977","0.7280613881050059"
"0.007877260469532197","-0.025311721588251443","-0.03410480395744369","0.0025860235929177225","-0.01352013811124916","-0.009619011536924968","-0.10053751040492533","0.06721264716031","0.6536823615568887"
"0.006717063173114457","-0.02372456138812172","-0.039342283452478956","0.003423134369621978","0.0013853159477040249","0.0002827949093421344","-0.1630360706965487","0.08037892646352773","0.7271461550822208"
"0.007639444094249894","-0.025977539447075496","-0.0350011233978401","-0.001784474488654029","-0.0010094170855953575","-0.0012440789097701189","-0.07986255198478069","0.03330090272251318","0.701748438699937"
"0.008078489710155698","-0.023993589196913342","-0.03219444570314258","0.0018056187676198851","-0.02100996124507928","-0.012159230604658889","-0.1304075311952154","0.0518036148695702","0.6683751202619552"
"0.006963544922394914","-0.024247036244578034","-0.024340291712756493","0.0009114265671654341","-0.030816495928213616","-0.0027264194147590152","-0.13890599793125868","0.042278511004917675","0.6708756676277784"
"0.005877484714627934","-0.02569500831197387","-0.032035421286298056","-0.005354927653099574","-0.011370239366683063","-0.003911709366685304","-0.1283734719436378","0.04933658658329591","0.728911247340449"
"0.004499690248923543","-0.024230416766042647","-0.04883831291548059","0.007728358028352386","-0.004251616606093733","-0.011270748517434861","-0.030515717265001373","0.010052789107152148","0.6819238376885403"
"0.009916511817094666","-0.023072246855607673","-0.037469099737180454","-0.009669201158064621","-0.000880897033738295","0.004185345087874215","-0.07685325884546021","0.01585096521312831","0.6558560399860033"
"0.009304158721226056","-0.024296894680184204","-0.03294000173536171","0.005398503997732147","-0.0002124491662582661","-0.016923445806596844","-0.15225277028065118","0.04667694539338741","0.6909454203417068"
"0.005962212815943079","-0.022964220245127637","-0.041568625288302304","0.003450669008165672","0.00011806515704639592","-0.007105730877189373","-0.14723728171511735","0.044067436329082325","0.6932661897923402"
