"AccX","AccY","AccZ","GyroX","GyroY","GyroZ","MagX","MagY","MagZ"
"-0.25434851297093514","0.2745450662149296","0.32193705961486135","0.20899819376352605","0.1208656690806412","-0.08323832890298953","-0.12625459203019307","-0.2746710542215685","0.2116836615496561"
"-0.05373114123107257","-0.09102346736583931","0.3082656452126269","0.1889865241356631","-0.1948877958277007","0.3188883068556765","-0.10518231548574948","-0.3185110482005081","0.13339823505747156"
"0.084934657808916","0.09733521463273807","-0.12276713584973785","-0.028978418027276416","-0.5500105940910762","0.41602362596630016","-0.07453714799463124","-0.37686300935783273","0.04903238709016592"
"0.3366862516773323","0.06355210410772334","0.034284796742293226","0.13652349835450892","-0.7000705168791027","0.48152446552641104","-0.028574361950353643","-0.44582441799830713","-0.07899140235846497"
"0.4320697552847553","0.0815679677515933","-0.17260452133689244","0.1387545290900477","-0.46271337665165396","0.49171348501353945","0.023138116892808463","-0.49187752920701217","-0.15645236492181952"
"0.2609647976780897","0.1282637936984849","-0.4011684677252269","0.14963925479979748","-0.4951217554134787","0.518787165365052","0.09400630801411936","-0.5190938029257295","-0.26997074212259786"
"0.06034742593822719","-0.02466907570889534","-0.3383369999704987","0.6165331414552752","-0.16978271368825898","0.3556658152901684","0.12081338178024828","-0.5037033464653002","-0.4145997503878201"
"-0.4795531165814865","-0.4553263124693856","-0.04521260643106491","0.35732793418086145","-0.22798085864787385","-0.03287546115232647","0.12464651031283791","-0.48870145257192904","-0.4514558644562979"
"-0.4913374531991109","-0.252560325464126","0.09358700758484088","-0.5867361019119697","0.3714600344361594","-0.3554307066305615","0.06718930386319105","-0.5089658351452385","-0.2810108294195868"
"0.05148983375408285","0.24064077275060633","0.3166253497167311","-0.14857518685055182","0.45909959390475585","-0.4276271875679282","0.023138116892808463","-0.4960672473213771","-0.232702396089705"
"0.13115659082224554","0.24352223375194276","0.08011166301106089","-0.5171009001663656","0.30961024116535296","0.2518348548022889","0.04037726490466245","-0.5288247611268352","-0.08777709610005949"
"0.0190377820401218","-0.40673195380666016","-0.31921127943125804","-0.15046818262616052","0.036991871932960926","0.010597688659421197","0.04229382917095725","-0.5435563506257313","-0.06151019061749173"
"-0.23075405344111838","-0.15017420651944216","-0.39104413476503236","-0.241331979855376","0.15783860823145537","-0.36086485035703","0.00015424127446978867","-0.5042439552542506","-0.000564271128512772"
"0.2865190155950825","0.11813828588070446","-0.34874652540844514","0.011923812124267756","0.5122767224364824","-0.408898799367778","-0.04198038142961789","-0.44628900367631136","0.05083590193448151"
"0.2619446768716778","0.08085433488677633","0.14597330084190357","-0.08238794169623491","0.4236101368803633","-0.5085571137799764","-0.07262058372833644","-0.384431532403137","0.11373992325443165"
"0.1783584030291631","0.18390022761214006","0.19274486719322462","-0.21192293834145579","0.3325471571200247","-0.44325035078152497","-0.08794813266629531","-0.34018608183248483","0.1596393760422634"
"-0.08421054141057353","0.2631000108357895","0.12119720433720226","-0.18041808007596888","0.10443325168027935","-0.31409239899706926","-0.10901544401833922","-0.29628695876725375","0.18370341696498851"
"-0.2828681547632601","0.4007099708061562","0.2864484206646021","0.15153225057540615","0.09975457728156521","-0.10701270770628905","-0.12050489923130867","-0.2856183821978124","0.18398682644052383"
"-0.07339319083925316","-0.025423102886815156","0.2857532640000817","0.24618203935583893","-0.06993295517911581","0.2967635788264835","-0.09560942453907491","-0.32931477696718703","0.12212626728049913"
"-0.010461738945791157","0.0602128408912213","-0.003752749977874101","0.07750259435071048","-0.4563229921070687","0.3621673801057646","-0.06879242038814652","-0.3803769664860097","0.027261386469499167"
"0.39077300453393393","0.031169329770274038","-0.0018455252829078816","0.20933622872345617","-0.6252117264996766","0.4300941766866203","-0.013251778204794527","-0.4527087330450964","-0.12239169886203081"
"0.40159035510525437","0.055352058547845334","-0.18379832608865673","0.19743739813391603","-0.49523586942320336","0.4685213358952187","0.04228886397855754","-0.4878905393885035","-0.19895090400322757"
"0.3150386573874075","0.12108707073721234","-0.4625917976210547","0.20899819376352605","-0.5158905051833804","0.5501305300730754","0.11315208990746868","-0.5045818357473445","-0.31740318252809785"
"0.04068537633004654","-0.03270754401636197","-0.313257886458186","0.6664947085329465","-0.19066557746788548","0.31966461310231487","0.13613596552580737","-0.477145939708116","-0.4611561978689382"
"-0.4264462429184728","-0.4140837187913784","-0.009207056114880287","0.4126304536254286","-0.29861743066748486","-0.10089929601401204","0.13613596552580737","-0.4622960920366371","-0.4977675492085447"
"-0.6329686761144315","-0.4368661113813843","-0.014411818833853509","-0.6507599233227338","0.24376645755418083","-0.29284101549534436","0.09017317948152972","-0.4901881267415424","-0.3551997007653974"
"-0.017346679595475374","0.23362562704174517","0.2570022973367125","-0.27067341437731013","0.378078647000194","-0.42869460865705594","0.038460700638367616","-0.484511734457564","-0.28027654123297263"
"0.03182778414590225","0.10564297836089033","-0.0809151397396381","-0.6348046732140323","0.2378325290484946","0.3844861846966172","0.05952801199041149","-0.5285544567323601","-0.09840495143263348"
"0.20981768240225204","-0.073371152539895","-0.23194238123915906","-0.1311325829181578","0.09861343718431788","-0.0019202495676222187","0.049950155851337094","-0.5322035660577747","-0.082250611327121"
"-0.29368550533458043","-0.20954038200959357","-0.373077008666659","-0.10550953295545491","0.0857185540854228","-0.3027389201399834","0.011643696487439303","-0.49640512781447094","-0.053961192769142165"
"0.3160314297282795","0.11197142074700311","-0.3954646181701877","-0.09983054562862896","0.5565529582096795","-0.4952628693062946","-0.04006878235572284","-0.43852619934747794","0.018823513447879806"
"0.2599720253372177","0.12423782715923441","0.15094634467270332","-0.07921041307289181","0.39976030884789365","-0.5023466638068695","-0.07645371226092611","-0.3694972146083847","0.07118985517747173"
"0.1429538205871539","0.2162426076364865","0.17766531493208987","-0.16453043695925337","0.3055021368152625","-0.42917980006120493","-0.09560942453907491","-0.3181731677074141","0.11746289318305457"
"-0.09700054351635398","0.2984181052587123","0.14467211016216025","-0.15675563288086067","0.11493174057495499","-0.322243614586772","-0.12050489923130867","-0.2671785542872102","0.15254125690499276"
"-0.27598321411357585","0.45108167924540693","0.267197928416345","0.0931198094994819","0.09039722848413694","-0.1639741785533781","-0.12817115629648793","-0.2635970210604144","0.15265719714498446"
"-0.061595961074344785","-0.04964622597748931","0.2782134878695144","0.28113485421261303","-0.12185482960387026","0.31801496232820836","-0.10901544401833922","-0.3000712202899059","0.08024607614571358"
"-0.05668367195912066","-0.04862290337888384","0.1456524593044326","0.11279344416741469","-0.5107553747457674","0.36595187305812654","-0.08220340505981051","-0.3511334098087285","-0.003771951101616928"
"0.4006104759116664","0.17458260605641654","-0.2551499191162246","0.05221757934793772","-0.6125450714202311","0.3860387971898939","-0.051558237568692426","-0.4020520001179864","-0.09307170039301453"
"0.3750433648473895","0.027183757544126427","-0.07727893564830064","0.2102827266112605","-0.6042147487103254","0.5118004091453069","-0.009418649672204854","-0.4377152861640525","-0.18639071133745827"
"0.39076011138665","0.05335927243477153","-0.3745207955852783","0.18026522216946608","-0.5206832935918193","0.515487863816839","0.046121992511147174","-0.4617554832476868","-0.2676390550738756"
"0.06329995666627528","0.10444461373883919","-0.37421777857766686","0.4569806403682599","-0.22843731468677278","0.5093744521245619","0.09783447135430931","-0.45614666706232726","-0.39035535798066345"
"-0.24746357232125088","-0.31961488521485265","-0.04118426268281853","0.5506163242689023","-0.14821516585028408","-0.043452633762774015","0.09208477855542481","-0.4304170675132232","-0.4483254779765216"
"-0.6968800072014816","-0.5849920575295258","-0.014572239602588992","-0.5611130519492668","0.08412095794927653","-0.2712014788703003","0.05761144772411665","-0.4543221123996199","-0.32126785719448836"
"-0.10781789408767432","0.22581605984186132","0.18023204723185746","-0.4052789354214828","0.41128582383009193","-0.5159320231230407","-0.011340179130899406","-0.43785043836129006","-0.22971371434769633"
"0.1429538205871539","0.3887397893566791","0.3290133979690818","-0.1766996955167376","0.3234180363420459","0.3082140959643992","0.007815533147249382","-0.4667561145454772","-0.13344466840790778"
"0.21277021313030015","-0.18232807974930865","-0.35111718787975826","-0.47646909798276543","0.04235523039002347","0.20370386751071112","0.01739338928632374","-0.49235056189734366","-0.07495925845653084"
"-0.3644817770713147","-0.264907520502563","-0.28853526354306314","-0.0283699550994022","-0.07620922571397624","-0.12147141154992833","0.00015424127446985922","-0.4745189188743106","-0.0528533193647769"
"0.3238962495715518","-0.069843382528913","-0.3450033741379507","-0.07332860477010777","0.5329313581966595","-0.5405797464538084","-0.0553864009088822","-0.40962052316329084","0.02571551660294295"
"0.25407985702840563","0.09295916404659625","-0.11629683151074029","-0.0661622636195893","0.469826310818881","-0.4316057570819497","-0.08220340505981051","-0.34741672438469523","0.08877412490954871"
"0.19900033183093171","0.17780068633361007","0.14953820681380303","-0.2734453010487371","0.3080126450292067","-0.4775048639144423","-0.0975259888053697","-0.28109078359035344","0.16333658147311034"
"-0.03602885001006795","0.26697786489366276","0.15094634467270332","-0.18325757373938187","0.15646924011475855","-0.3366052801495815","-0.11093200828463395","-0.2258473229694932","0.20463707140793733"
"-0.25730104369898327","0.42384244744305344","0.22814438349418634","0.024701533609626188","0.09507590288285106","-0.20929105570089185","-0.12242146349760347","-0.2113184617664535","0.23237255326373357"
"-0.1520800687138278","0.05947227848433577","0.2780530671007788","0.2886392303230616","0.02831920719388107","0.17769760824832634","-0.11093200828463395","-0.24441385606500557","0.20881092004763913"
"-0.03504897081647997","-0.0033004840774890714","0.11126894120546224","0.1275317684203678","-0.3603531099285665","0.35498654732435986","-0.08794813266629531","-0.2956111977810658","0.13552380612398637"
"0.3593008320135609","0.0423316249576942","0.010595996559021261","0.21738146076979292","-0.6494038965613204","0.3491642504745722","-0.05921952944147187","-0.36888902972081555","0.012060332781696345"
"0.3160314297282795","0.04241241358389988","-0.13465609726602257","0.1861470304722501","-0.5375721670310801","0.45221890471581333","-0.02282963434386899","-0.42333002417057763","-0.07729094550525313"
"0.37011818258488133","0.1038386990422965","-0.4428243940068721","0.13280511379527765","-0.4861067486452245","0.49297498266432677","0.02696628023299842","-0.45135721107272053","-0.16982413926753082"
"0.09869164596100041","0.05393825758924568","-0.4184760862187987","0.714563279835009","-0.24715201228162936","0.3991389651019161","0.05569984865022157","-0.4465593080707865","-0.3260085247852608"
"-0.2484434515148389","-0.38718110626488206","-0.08469394006985154","0.6155866435674708","-0.2209057900449403","0.00040866917229283756","0.06143961106430657","-0.43156586118974266","-0.3899431260162484"
"-0.6575430148378363","-0.5285612021248478","-0.00605211432974925","-0.26972691648950586","0.21603675319107024","-0.1271966701188862","0.034632537298177696","-0.45878213490846004","-0.2626020957586799"
"-0.2828681547632601","-0.00786504145811082","0.2784630312875473","-0.5005371871297898","0.43741793205705626","-0.4103543735802249","-0.01900147100367893","-0.44920322292924664","-0.1823070384399723"
"0.10656935895155671","0.2102642492972651","0.35542935122085684","-0.17947158218816453","0.3259285445559901","-0.0008528284784944846","-0.007502085405910053","-0.4673642994330462","-0.10147092666797002"
"-0.13338500515195115","-0.026298313004043516","-0.35958383956301954","-0.9164554018278058","0.18180255027364972","0.28317821951031236","-0.0017573577994253315","-0.48572810423270224","0.06035588386269023"
"0.04362501391081061","-0.21810397638739717","-0.23727191566714875","0.08061251598206755","0.1670818430191589","-0.042482250954476074","0.009732097413544184","-0.4926884423904376","0.06031723711602632"
"0.010193083003261535","-0.17082916528603145","-0.3848055493142083","-0.16507129289514155","0.3089255571070046","-0.5062281950400612","-0.034319089556838364","-0.42001879533825703","0.11800394763634924"
"0.3248761287651399","0.1523388043077819","-0.21399307967064526","-0.10794338466695176","0.5522166258401396","-0.40686099547035226","-0.05539136610128195","-0.3613289536878384","0.2081539253543527"
"0.18720310206602336","0.11929625618965278","0.22992683648013604","-0.2197653494118345","0.3343729812756205","-0.4313146422394603","-0.06879738558054627","-0.30236036063061744","0.2822783854557234"
"0.02691549503067811","0.2003407130449989","0.1660258969338381","-0.2238217689309959","0.15703981016338223","-0.32534883957332533","-0.08220340505981051","-0.2508335854337906","0.3124743768491216"
"-0.21107911068565371","0.4731504389705959","0.08037903095895335","-0.2185484235560861","0.02249939269791958","-0.24820340631363919","-0.0994425530716645","-0.2253742902791617","0.3462645156822629"
"-0.1796069381652807","0.21687545187509777","0.2746664064274744","0.26301618036035873","0.03847535405938248","0.10938265854415141","-0.08985973174019035","-0.2585288136640052","0.3116885596669555"
"-0.025211499438747613","-0.055759232027053546","0.25341956683495354","0.17776376346598322","-0.35818494374379656","0.3881736393681493","-0.06879242038814652","-0.31351041690271764","0.21637280014487664"
"0.2865319087423666","0.10626235782846732","-0.12027170166940823","0.06878129238451346","-0.6022748105450049","0.3749764331752974","-0.04964167330239748","-0.37598452007578836","0.104194176828447"
"0.35241589136387674","0.005020744421697489","0.004107867690164224","0.19993885683739893","-0.6527132028433378","0.47152952260094233","-0.013251778204794527","-0.4341337529372567","-0.0016979090306540002"
"0.3858478222714258","0.09977233818994319","-0.3283552632491802","0.13341357672315185","-0.5590256008593303","0.4389246602421316","0.030799408765588055","-0.4734461483087374","-0.0952101537084173"
"0.13409622840300955","0.20809642116074561","-0.5020553067299818","0.5003843292232869","-0.44650918727074146","0.4452321484960682","0.06910586812948585","-0.48316021248518837","-0.2736937120512208"
"-0.1491275379857797","-0.3349243298808318","-0.1687009492976625","0.7816970228771304","-0.2697465862071269","0.014188105050123571","0.07293899666207548","-0.4496593615949235","-0.396229663473577"
"-0.6113210818245068","-0.45807312576037923","-0.08171724358331542","-0.27506786885640166","0.2022289580143773","-0.14049091459256796","0.04228886397855754","-0.46560732086895784","-0.2951684209474642"
"-0.20910645915119364","-0.01606508701798884","0.22532810777638573","-0.42556103301728976","0.48694341227759125","-0.3822132721395846","-0.01708490673738413","-0.4674318755316651","-0.18324744260879397"
"0.06427983585986331","0.21633686103372646","0.36132927060435044","-0.12173521103210054","0.3291237368282826","-0.04170594470783773","-0.013251778204794527","-0.4712837131529361","-0.1236412770041638"
"0.05248260609495495","-0.008753716346373466","-0.1204142979082842","-0.6854423102115639","0.187280022740437","0.22476117445077642","-0.0017623229918250123","-0.49289117068629407","0.010888048132891215"
"-0.09602066432276596","-0.2724343275107269","-0.36808614030599973","-0.1389073869965505","0.08560444007569806","0.013605875365144814","0.005898968880954511","-0.49282359458767516","0.054674812103096125"
"0.023962964302630015","-0.10730237554628681","-0.37564374096642666","-0.12268170891990487","0.37899155907799187","-0.3991949712847986","-0.030490926216648444","-0.4310336994131197","0.10110243709533456"
"0.2176825022455243","0.10615463966019302","-0.238929596944082","-0.030803806810899045","0.45647497168108697","-0.41113067982686324","-0.05539136610128195","-0.37618724837164474","0.16371016669086141"
"0.2629374492125498","0.1221777171909892","0.11372872632607288","-0.16953335436621908","0.46240890018677316","-0.4826478927984214","-0.07070898465444146","-0.3247196022611094","0.2318443810593268"
"0.12327887783168917","0.20720774627248298","0.1827453059420466","-0.20070017767177592","0.2913519996093954","-0.40559949781956495","-0.08220340505981051","-0.26940011852930296","0.2949287538637085"
"-0.09404801278830587","0.31555875878535394","0.2067192986030705","-0.16202897825577048","0.09496178887312633","-0.3578566636513063","-0.10135415214555962","-0.2219954853482222","0.32466098429713974"
"-0.25828092289257126","0.4318539862084514","0.2409423959333054","0.07222924897580064","0.0463492207303892","-0.11332019596022563","-0.10901544401833922","-0.2257797468708744","0.3187093853108984"
"-0.07339319083925316","-0.0022098376237121866","0.26700185858789055","0.24151715690880332","-0.16476169726037063","0.3081170576835694","-0.09369286027278002","-0.2735222605450491","0.24540938913835764"
"0.16556840092338268","0.1546682096967128","-0.1426414866430774","0.07128275108799632","-0.4736683215852284","0.3386841161449545","-0.07262058372833644","-0.33964547304353443","0.12761410530677372"
"0.2599720253372177","0.09396902187416745","-0.01995524762015718","0.2976309602572027","-0.670286760340947","0.340333766919061","-0.04772510903610268","-0.39448347707268205","-0.00013915691520981278"
"0.4517446980402201","0.08650953872117496","-0.2977683700102828","0.30486490839970726","-0.37849723747479935","0.35430727935855133","-0.026657797684058772","-0.43082252410493593","-0.08878191151332102"
"0.2403099757290371","0.13425561680874057","-0.4326287629272396","0.37260711436970273","-0.4904430810147646","0.3625555332290838","0.007815533147249242","-0.44082378670051686","-0.21318578902443272"
"0.050509954560494875","-0.07104174715096415","-0.3006915929072403","0.7123998560914564","-0.1477587098113851","0.2634794485018642","0.02122155262651366","-0.42548401231405164","-0.34743170468595236"
"-0.3231850263204934","-0.4505867130653182","-0.07494392223670648","0.36949719273834564","-0.16795688953266322","-0.029382083042453898","0.023138116892808463","-0.4254164362154328","-0.36340569330703326"
"-0.6349284345016075","-0.4438812570902456","0.042501905007521504","-0.5229827084691495","0.19036110100300485","-0.13282489040701423","-0.007502085405910053","-0.44825715754858364","-0.2522318854038652"
"-0.04193391146616419","0.12582667014127977","0.2960558422588712","-0.20664959296654595","0.3300366489060806","-0.44325035078152497","-0.04773007422850236","-0.43163343728836145","-0.19804914658106973"
"0.03280766333949028","0.2234597249108619","0.11975341741858299","-0.3412551140107186","0.1885352768474091","0.42728006654255635","-0.013251778204794527","-0.47864106089005676","-0.08064033021612493"
"0.13016381848137343","0.05391132804717712","-0.416836229471725","-0.6114126539868683","0.21603675319107024","0.0663947001365527","-0.0017623229918250123","-0.49687816050480255","0.010707696648459658"
"-0.22976128110024635","-0.3245833857265029","-0.3135965525255164","0.016656301563289396","0.14152030484081823","-0.0918747358968412","-0.01900147100367893","-0.47519467986049846","0.022482072132062856"
"0.3435582991797324","-0.049457719183009355","-0.31042378621052585","-0.007749822543665058","0.481009483771905","-0.5274795785417862","-0.0630476927816618","-0.4024574567096992","0.07480976711499088"
"0.28062684728627035","0.12519382590266842","0.08574421444666205","-0.14891322181048197","0.439243756212652","-0.43121760395863057","-0.08411500413370564","-0.34748430048331397","0.15929155532228823"
"0.09083971926501219","0.2668297524122857","0.13344265635067695","-0.2278781884501573","0.2354361348442752","-0.3973512439490326","-0.10518231548574948","-0.2776444025607952","0.22303292281995635"
"-0.07438596318012525","0.28223345047550485","0.15196234287469468","-0.12139717607217043","0.12759839565440056","-0.3803695448038185","-0.12625459203019307","-0.22638793175844352","0.25838181376854186"
"-0.26025357442703134","0.4177294413934892","0.21618412395846362","0.09034792282805493","0.12748428164467585","-0.2449041047654262","-0.13391091871057298","-0.21929244140347062","0.26398559203480815"
"-0.08027813148893741","0.002839451514143731","0.27734008590639897","0.30013241896068565","-0.07883384793764514","0.23863764860943693","-0.12433802776389827","-0.25974518343914343","0.201906034643688"
"-0.00455667748969492","0.0782690988481941","-0.06661986679232125","0.0902803158360689","-0.4203770790437772","0.3417893411315079","-0.10518231548574948","-0.3073609919284078","0.12329855192930428"
"0.2639044352588538","0.12021186061998396","-0.049597440776501266","0.15687320294230198","-0.6490615545321463","0.35663619809846636","-0.08411500413370564","-0.3623425951671203","-0.010019841812281651"
"0.28948443947041474","0.017314080375997375","-0.07740370735731711","0.28458281080390024","-0.5132658829597115","0.4610493882713245","-0.04964167330239748","-0.41326963248870535","-0.09919076861479956"
"0.45960951788349214","0.15309283148570174","-0.4505424154360345","0.19371901357468474","-0.5068754984151264","0.4695887569843465","0.0020708055407646603","-0.4519653959602897","-0.19785591284775025"
"0.1026369490299206","0.04787911062381857","-0.37822829779605377","0.6496605675284266","-0.14867162188918298","0.45542116798319654","0.04420542824485237","-0.45068145008653265","-0.35923184466733155"
"-0.2248360988377381","-0.3246911038947771","-0.11818623167584703","0.5678561072253383","-0.18301993881632822","0.01011249725527223","0.04803359158504229","-0.42825463235742206","-0.4229989766627755"
"-0.6811503675149372","-0.6031156393416699","-0.008654495689235877","-0.3987210571988385","0.09016900046468745","-0.14854509190144083","0.021221552626513696","-0.44724351606930174","-0.32721945618072984"
"-0.15501970629459189","0.10184591292922268","0.2978204707149614","-0.287575162373816","0.3132618894765445","-0.5062281950400613","-0.04772510903610268","-0.4281194801601844","-0.2631302679630866"
"0.10950899653232074","0.17898558618462693","0.2916175343238563","-0.238560093183949","0.25837305079894696","0.31626827327327206","-0.01708490673738413","-0.4677021799261402","-0.19410717842135142"
"0.267849738327774","0.1363157267769858","-0.30306225537855347","-0.8068644678184619","0.20736408845199036","0.15052688961598404","-0.009418649672204854","-0.5045818357473445","-0.03352994603282415"
"-0.29269273299370835","-0.3990301047750507","-0.2852020764593371","0.014425270827750624","-0.0023774614220726637","0.17323384733015582","0.005898968880954511","-0.5040412269583943","-0.038373671614700296"
"0.11148164806678086","-0.15286716072629863","-0.37216795764382465","-0.04114767658476063","0.48956803450126013","-0.622674132035814","-0.0534698366425874","-0.4169778709004115","0.025290402389639987"
"0.31013926141946735","0.13824118903488816","-0.11847142415359899","0.031935481752130686","0.5265409736520743","-0.48158047170929363","-0.09943758787926475","-0.35173314768397035","0.08248758745222008"
"0.18327069214438724","0.12034650833032676","0.2228326735960561","-0.11855768240875743","0.35959217742478694","-0.4745937154895485","-0.12050489923130867","-0.28933506762184574","0.14572654724325743"
"-0.07929825229534941","0.23283120555072248","0.16435039112704536","-0.1938042644892015","0.1832860324000713","-0.33379117000551745","-0.14157717577575224","-0.23064522597142725","0.20873362655431132"
"-0.2071467007640176","0.46104560981077597","0.2356841596247537","0.06627983368103059","0.09051134249386167","-0.16504159964250584","-0.1530666309887217","-0.21990062629103974","0.22536460986867865"
"-0.00850198055861511","0.03799596868465524","0.20368912852695595","0.23522970665410314","-0.10359658804791266","0.26425575474850255","-0.13966061150945752","-0.2602857922280937","0.15248972790944088"
"0.1400012898591058","0.10931886085324943","-0.08783105732512307","0.18276668087294895","-0.4963770095204508","0.3761408925452549","-0.11667673589111874","-0.32262474320392687","0.024169646736386732"
"0.2304725043513047","-0.01591697453661174","0.07763405336059076","0.32704000177112297","-0.7031515951416706","0.41340359238389573","-0.074542113187031","-0.38801306562993293","-0.12002136506664463"
"0.4045428858333025","0.003903168425852048","-0.2166845836794293","0.191487982839146","-0.5060767003470532","0.4462995695851959","-0.034319089556838364","-0.4346067856275882","-0.19788167734552617"
