"AccX","AccY","AccZ","GyroX","GyroY","GyroZ","MagX","MagY","MagZ"
"-0.4017429727222275","-0.05590734450843065","0.15536682807785865","-0.4803903035179548","0.4377602740862304","-0.3243784567650274","0.10752652691857742","0.36183666568113576","-0.5482144358538292"
"-0.057960093540241925","0.5003223469177779","0.21399170678574544","0.34962073709445474","0.04315402845809662","-0.6471277788049221","0.09811748732109377","0.4568740013761354","-0.5576184775420463"
"0.035618369447413804","0.1508038204098737","0.07453258516503822","-0.02160925590079986","-0.19454545379852645","-0.010944809684793057","0.1043885253219496","0.454027358221819","-0.5906099169441336"
"0.28878820951707584","-0.3667146542927727","0.26222488458554527","-0.009237176367357575","-0.48336801241183097","-0.15475554187454765","0.12320660451691694","0.4484185420364596","-0.6605734106546904"
"-0.46381058374765805","-0.11835695256543272","-0.2898364542228064","0.1405123108816843","0.11618699468192707","0.01428514333095336","0.11379756491943327","0.4665880655525864","-0.6383257668251688"
"0.3922170370297479","-0.3962428971709541","0.012806238261598926","0.16316065319700215","0.4888833504429117","-0.4036587322029691","0.09654848652277985","0.5184189331931978","-0.5667906387502798"
"0.31537387921679283","0.04458024172041936","0.16306702497716152","-0.19928043084006938","0.5261986316229","-0.41782632120411906","0.082442374915154","0.557934056860535","-0.46446693583314613"
"0.20210758032638845","0.29835078140354093","0.06435477861526524","0.03680318517512438","0.7826128114743797","-0.6648857841967744","0.07459737092358452","0.6560461050426897","-0.33286188119366006"
"-0.041211895218257216","0.26715290691710847","0.13556377540395712","0.14416308844892955","0.5922706432535217","-0.5608607471472353","0.0714593693269567","0.7174981197241512","-0.22761390777895746"
"0.027740656456857492","-0.19169956038916927","0.4349089298643555","-0.008899141407427454","0.37123180641670994","-0.11021497097367225","0.06989533372104255","0.7266715751116519","-0.18599136162193128"
"-0.12593276602176862","0.17042199180682324","0.42888423877184534","-0.4914102432116766","-0.20835324897521942","0.05310045566287094","0.0714593693269567","0.7021245572883766","-0.2645601975896511"
"-0.2993069175504275","0.32830989695481944","-0.14998519294519028","-0.2049594181668954","-0.25685170310823185","0.3387811544257842","0.06989533372104255","0.6436627849707964","-0.31494267299049583"
"0.2917407402451239","-0.01154092395046994","-0.28067464587502483","0.29925352806486727","-0.37701375534837783","0.6551259499309124","0.06989533372104255","0.5606539948299412","-0.38442952349219794"
"0.3478903966671742","0.1825268209666432","-0.05526564127182143","0.17884547533775957","-0.4816563022659599","0.8200910273415621","0.08714441211769594","0.44738800653252303","-0.4847178310850325"
"0.5498228694300102","-0.09747309269126062","-0.13923700143991338","0.3862637267508795","-0.37895369351369834","0.6235885086612294","0.10438852532194964","0.4202139678754423","-0.5622689693906029"
"-0.015606104712128262","-0.5015239418880088","-0.028225829474963954","0.16985374540361847","-0.4813139602367857","0.16411224893215517","0.12633964092114497","0.41152199219060054","-0.6587054845659351"
"-0.4687357660101662","-0.20791114471444536","-0.1663837604159278","-0.20428334824703512","-0.29838920264803537","0.1846843644680715","0.1373127161245428","0.3658067614749895","-0.6501774358020999"
"-0.4864767366730229","-0.21177553400128443","0.07843615720426814","-0.43103719936815765","0.53920762873152","-0.1696994371223359","0.11536160052534743","0.3651816825627657","-0.5599630468396565"
"0.0070471550659526394","0.4974408859164414","0.48706350423324474","0.3158848480934291","-0.009110187995832032","-0.47963970609269774","0.1106595633228055","0.4388311830449187","-0.5853668416467304"
"-0.009688150108747956","0.1369485710155971","0.056547634536805405","-0.12396624176763932","-0.1368037648778105","-0.07751307033403168","0.11536160052534743","0.4358493876933646","-0.6138494939380287"
"0.3094688177606966","-0.16209052888478218","0.18352958525586446","-0.1322819017819202","-0.27590874273226257","0.017390368317506774","0.12947764251777277","0.41160646231387393","-0.6667311256231394"
"-0.6036883386323476","-0.15533121382557236","-0.557578717242316","-0.023569858668394544","-0.22535623642420496","0.13597114749151495","0.1388817169228567","0.4150443963311048","-0.6840191036307931"
"-0.1151025223031642","-0.24974618831796097","-0.07551430719221039","0.32555264794743044","0.23931601117491622","-0.21986822831133937","0.12320660451691694","0.46071739198507916","-0.6544672246817934"
"0.3143940000232048","-0.32794957848507356","0.06943476962522198","-0.04060682064887244","0.5073698200183188","-0.3027389201399834","0.1043885253219496","0.49092390806767794","-0.5727293554876333"
"0.3469105174735862","0.1304989456901758","0.13055508251343836","-0.2079341258142804","0.5855379166797622","-0.4805130506201659","0.08557541131938202","0.5395786990732063","-0.47129452774376945"
"0.0966932081319722","0.3167167290943022","0.06144938024816717","0.10380171423327357","0.7904866781453864","-0.6990432590488618","0.07459737092358452","0.6407147776685519","-0.33150924506042334"
"-0.06190539660916207","0.0920704891583336","0.18761140259368936","0.159847910589687","0.4830635359469502","-0.3423305387185393","0.07302837012527058","0.6959751323140667","-0.22154636855272428"
"-0.012640680836796097","-0.13948317831822188","0.5330151422110287","-0.20130864059965012","0.2481027899237208","-0.08352944374547891","0.07302837012527058","0.6990498448012218","-0.2260036266679614"
"-0.23034147272802868","0.35211561214343085","0.12408477817444084","-0.4306991644082276","-0.2285514286964975","0.0713436524588722","0.07302837012527058","0.6744943799656191","-0.28341980996163696"
"-0.26876305163450626","0.28112933925069367","-0.16937828143232342","0.05045979755630111","-0.17400493204807418","0.3375196567749969","0.06989533372104255","0.6313639350221769","-0.3019316016136477"
"0.4207753582639249","-0.06694845675654228","-0.16000257872622778","0.3022282357122523","-0.24521207411630883","0.6516325718210398","0.06989533372104255","0.5483466978689941","-0.35789209078298284"
"0.2996184532356803","0.0847456537156839","-0.0822341549492409","0.3665224850909606","-0.6312597690150875","0.7597332166654303","0.08557541131938202","0.475009736842953","-0.4701093608460763"
"0.520271775854961","-0.029395210341928487","-0.1216441904685895","0.26619370898370187","-0.4758364877699984","0.5464430754015432","0.1028195245236357","0.43874671292164524","-0.555634611213299"
"0.1774687758665634","-0.4786876902138657","-0.019206617366058297","0.2628809663763867","-0.5772838424152879","0.19205927381113583","0.12320660451691694","0.4391944045749947","-0.6569019697216194"
"-0.2727083547034264","-0.28573752129259805","-0.10283931146681984","-0.19562965327282414","-0.5422508414297942","0.1176309124146839","0.14515275492371255","0.40292293364135956","-0.6961412998343715"
"-0.5288178323538526","-0.19773177781252782","-0.13526213128124548","-0.5060809604726437","0.27263730201453884","0.03437206746272071","0.13261067892200082","0.35662485907516145","-0.5983135017791388"
"-0.19785074157221547","0.1827018629900889","0.3530586887495437","0.08548021940506123","0.29945409429985154","-0.5564940245098946","0.11536160052534743","0.4358493876933648","-0.5932378957172791"
"0.08191766134444761","0.40889655159499994","0.2849333356265449","-0.03526586828197659","0.04680567676928814","-0.21734523300976474","0.11222359892871965","0.4511300329935384","-0.5903909187130382"
"-0.1525184357214856","-0.19759713010218502","0.03858050843843209","-0.09692344497322995","-0.2652961398278622","0.03534245027101865","0.12163760371860295","0.44529314747534043","-0.6404771023894597"
"0.12329177097897329","-0.1272706309901277","-0.43318132335288406","0.028149490200913375","-0.44810678340688775","0.00875396132365511","0.13731768131694252","0.4365167016672251","-0.6777712129201284"
"-0.17321193711239044","-0.20567599272275447","-0.13825665229764109","0.22319566208059097","0.26613280346022894","-0.16378010199171847","0.12006860292028915","0.4912280005114625","-0.6359296685320067"
"0.3803940209702714","-0.35623906242810094","0.07929173463752401","-0.001868014240881018","0.503832285716852","-0.35426624726060396","0.10125052372532183","0.5185456383781081","-0.5624235563772585"
"0.3321349706860616","0.13257252042945525","0.15073245031438937","-0.19759025604041885","0.5300785079535411","-0.4350020969109925","0.08713944692529618","0.5672933465192372","-0.46508528377976854"
"0.14496515156346612","0.2655775287060974","0.03492647981723513","0.13814606616217348","0.7967629486802469","-0.7240791355029487","0.07930437331852622","0.6685307892625111","-0.3379246050066317"
"-0.06683057887167028","0.2321848965410769","0.15697103576521343","0.22691404663982223","0.5758382258531598","-0.4922546826005709","0.07930437331852622","0.7300165919932818","-0.22837396046334757"
"-0.05893997273382993","-0.12428145182051702","0.3420253047665148","0.10447778415313382","0.40763417551890035","-0.18862190188414574","0.07773537252021231","0.7391900473807825","-0.1909639096926871"
"-0.0067356193806998605","0.04478221328593361","0.5096650080950873","-0.481066373437815","-0.058179212177468104","2.051604897365947e-05","0.08087337411684009","0.7269925615800912","-0.24505647277326678"
"-0.29635438682237936","0.4164502881452325","-0.16087598068934317","-0.3086685438734553","-0.22889377072567174","0.23378573456794727","0.07616637172189837","0.6838536696243215","-0.3010298441914899"
"0.2070198694416126","0.14116304434932747","-0.06849144242756844","0.2131898272666595","-0.18975266539008762","0.5775923635479071","0.0714593693269567","0.6037337576994194","-0.3370099653355859"
"0.29863857404209226","0.03366031241161628","-0.0038775216868905766","0.13483332355485833","-0.585842393144643","0.8950045801421631","0.08557541131938202","0.4688687588809705","-0.4483512424742975"
"0.5517955209644702","0.0998261972740803","-0.11362315203181571","0.23151132209487182","-0.5302688704086971","0.7191712152785764","0.1028195245236357","0.4140138608271684","-0.5493094270093066"
"0.35774076119219056","-0.5164025138808909","-0.014679186781745963","0.41154874175365214","-0.5302688704086971","0.36963932772965874","0.12947267732537304","0.4146389397393922","-0.6546089294195611"
"-0.25891268710948984","-0.38794859821383615","-0.1251556228509105","-0.07961605502480795","-0.6204189380912377","0.17730945512500715","0.1529927937228823","0.38469428103894115","-0.7109301215577593"
"-0.5800423065133945","-0.14729274551810573","-0.22238843323446852","-0.481066373437815","0.2039406681602483","0.0489278095871898","0.14358375412539864","0.32895244669076723","-0.6168381756800376"
"-0.3150623435315401","0.029903641293051484","0.21782398070553738","-0.2506617447494472","0.49618664706529475","-0.4839093904492087","0.1169306013236613","0.3775227675730221","-0.5615475634528767"
"0.23262565994774173","0.5166012550982254","0.3770683304702866","0.33454437788157154","0.1435743570158635","-0.42131969931399166","0.11222359892871965","0.4265830151702632","-0.5627713770972337"
"0.21391770323858092","0.16137366567178543","0.15695321123535394","0.10745249180051884","-0.48302567038265676","0.11345826633900274","0.13261067892200082","0.4179755096086949","-0.6547506341573287"
"-0.3308306626599367","-0.5919937384673527","-0.4247324961994823","0.030786162888368298","-0.32395074082637604","0.0683354657531486","0.14044575252877084","0.4212782914286882","-0.6717294381916712"
"0.31142857614787267","-0.1188147547805983","-0.18673937351547382","0.034098905495683444","0.4139104460537608","-0.27682969915842837","0.1169306013236613","0.45746529223904986","-0.6034406368365501"
"0.18534648885711977","-0.19227854554364346","0.11850570032841816","0.06810522246465323","0.47895543159685977","-0.33320894032053866","0.09968648811940767","0.5092370307933699","-0.5277058956241835"
"0.3528155789296824","0.04945448883482962","0.2815644994830999","0.07648848947092012","0.6956579360641316","-0.5238891621510838","0.082442374915154","0.5886811817320841","-0.40756604249498934"
"0.017890291931841114","0.19693412597332544","0.08437172564748076","0.09480998429913248","0.7971052907094212","-0.6619746357718805","0.07773537252021231","0.6930271250118222","-0.246615224888711"
"-0.01658598390571624","0.15699761508564364","0.2726700590832107","-0.019581046141219156","0.5125049504559319","-0.29623735532438716","0.07773537252021231","0.7206995373962164","-0.17246500028956435"
"0.031685959525777685","-0.06051229620215525","0.5678620980863461","-0.27932710935152116","0.1403791647435709","-0.05402980637322156","0.07773537252021231","0.7177177420446623","-0.19338577248362515"
"-0.26285799017841005","0.3601271509088289","0.08442519923705925","-0.43610772376710943","-0.24749435431080352","0.13422445843657865","0.07930437331852622","0.6869790641854404","-0.262975680976431"
"-0.1948853176968833","0.19840178601606223","-0.21402872873036424","0.18749917031197058","-0.24692378426217987","0.4355283204130888","0.07459737092358452","0.6314990872194144","-0.2929526741387336"
"0.4158501760014168","-0.038995592089371874","-0.12205415465535796","0.2755234738777731","-0.43646715441496475","0.8014596774222417","0.07930437331852622","0.5362843642655403","-0.3820849541945877"
"0.3922170370297479","0.044337875841802286","0.04799186020424668","0.128140231348242","-0.7123948299293742","0.8337734249385631","0.09654848652277985","0.4569669185117363","-0.48505276955611976"
"0.5626257646830747","-0.19766445395735643","-0.05606774511549879","0.21650256987397462","-0.5125811989013631","0.553138716778799","0.1169306013236613","0.4204335901959533","-0.5705780199233426"
"0.16861118368241912","-0.5014162237197345","-0.015142624558092906","0.16079440847749132","-0.6152838076536247","0.23640576815035166","0.1373127161245428","0.4057780238080034","-0.6535525850107476"
"-0.33378319338798484","-0.2344367436519818","-0.2085565980634986","-0.26492682005849816","-0.4791457940520158","0.13956156388221733","0.15769483092542425","0.35720770292574855","-0.6741255364848333"
"-0.5869401403103628","-0.24438720944631656","-0.16893266818583597","-0.5777443719778286","0.4363909059695336","-0.07334042425835055","0.1404507177211706","0.3229466209260224","-0.5710417808833095"
"-0.09145649018421126","0.570541127861561","0.3959088585317753","0.275185438917843","0.10671553187477405","-0.49147837635393254","0.12320660451691694","0.40840504464180877","-0.5693155595323217"
"0.02084282265988921","0.1999367699139704","-0.028243654004823458","0.011450563180365591","-0.05544047594407446","-0.0917776976160114","0.12633964092114497","0.4239053122624936","-0.5917564370951628"
"-0.30718463054098377","-0.6264904818571843","0.246984911555675","0.13050647606775284","-0.29120002003537704","-0.08818728122530901","0.13574868051862862","0.4517551119057622","-0.6439166628425472"
"-0.12986517594340471","-0.016469030149017315","-0.3444151646525873","-0.23436845968081557","-0.2431580219412636","0.20535351828481763","0.14672175572202645","0.4060821162517879","-0.6500614955621081"
"-0.05008238054968562","-0.05662097737324762","-0.020703877874256083","0.2789038234770742","0.3217063261961749","-0.33563489734128354","0.12790864171945887","0.47929237209291886","-0.6176111106133155"
"0.3409925628702059","-0.3901433558924242","0.15285356936766953","0.1358474284346487","0.5196941330685901","-0.3781376643447332","0.1106595633228055","0.527989398160084","-0.5373804645390478"
"0.3212918338201731","0.158680711464929","0.16615066864285455","-0.16730232363068032","0.6543486645437775","-0.44722892029554656","0.09341545011855182","0.576686424227249","-0.4273918235335728"
"0.056298977691034584","0.2627229972468295","0.0377962291246142","0.003134903166084713","0.76309931581145","-0.694676536411521","0.08713944692529618","0.6718166770578495","-0.3039154679423949"
"-0.042204667559129265","0.05494811541681686","0.3113136398186009","0.04079199770229976","0.47712960744126404","-0.2698429429386833","0.08401137571346787","0.7086287567804351","-0.21363666773551163"
"0.029700414844033542","-0.08153080378667017","0.46127140952655205","-0.36937962267690433","0.0082351414823277","-0.010556656561473879","0.08713944692529618","0.693339664467934","-0.24622875742207193"
"-0.26974293082809425","0.41031035255359966","-0.12340881892467977","-0.3290182484612484","-0.23448535720218375","0.19720230269511493","0.08557541131938202","0.6595262741215575","-0.2986208636494398"
"0.2976458017012201","0.08652300349220923","-0.2538665529663408","0.2628809663763867","-0.21177666926696148","0.5300436059413081","0.082442374915154","0.5917474472069115","-0.339831177842051"
"0.2316457807541535","0.07996565999851366","0.01751191414450623","0.18148214802521448","-0.4883890288397193","0.8641464068382885","0.0949794857244659","0.46913906327544563","-0.43101173547109195"
"0.6049926466584724","0.01237250940641571","-0.13602858606520385","0.22549429980811572","-0.4459386172221178","0.7281957753957473","0.11222856412111937","0.4144108704065538","-0.5149138224784308"
"0.29370049863229997","-0.5149079242960855","-0.026104710421683774","0.34962073709445474","-0.5343769747587874","0.21398992527866928","0.12947267732537304","0.4147740919366297","-0.6078592482051234"
"-0.25300762565339363","-0.35691230097981513","-0.038706653032348395","-0.06555380069171508","-0.5666712395108875","0.11239084524987503","0.1529927937228823","0.38776899352609595","-0.6636780326366909"
"-0.6066408693603956","-0.1854249770871937","-0.1828358014762439","-0.38134606025843043","0.10945426810816768","0.0683354657531486","0.14672175572202645","0.3445456314470529","-0.5970381591392299"
"-0.24906232258447347","0.07373147100964089","0.2726522345533512","-0.08428093747184358","0.4472317368933834","-0.3780406260639035","0.12477560531523081","0.39926537730361755","-0.5642399534704621"
"0.01593053354466511","0.5205733625533387","0.4874378193602941","0.4262194590146193","-0.02805311361013805","-0.4779900553185913","0.12477560531523081","0.4484185420364595","-0.57655538340736"
"-0.05598744200578181","0.081029376910222","-0.06838449524841152","-0.038916645849221845","-0.2600468953805244","-0.13709457476352516","0.12790367652705917","0.445428299672578","-0.6065194943207747"
"0.3892516131544158","-0.2421789869966942","0.09392567365217135","-0.09394873732584491","-0.30158439492032796","-0.11487280845350237","0.13888171692285667","0.43036727669291536","-0.639085819509559"
"-0.6125459308164919","-0.030782081758459576","-0.6140824768969225","-0.1990100028721253","-0.148671621889183","0.2737655062698223","0.14201475332708471","0.430502428890153","-0.6469568735801078"
"0.4335911466642736","-0.42667327970843255","0.07171630944723764","0.3459023525352235","0.4459764827864114","-0.45266306402201506","0.1169306013236613","0.512801669995511","-0.5868483002688468"
"0.29863857404209226","-0.20567599272275447","0.22142453573715581","-0.10990398743454645","0.52403046543813","-0.372606482337435","0.10125052372532183","0.5461673686885381","-0.4967756160441711"
"0.19716950491659616","0.3265594767203627","0.1251007763764322","-0.14661458408295716","0.6206850316749807","-0.5453346222144683","0.09027744852192404","0.6134985039498344","-0.3923649888071865"
"-0.02447659004355662","0.22814546523079215","0.03626331955669743","0.18452446266458558","0.6372315630850673","-0.6107384234937494","0.08713944692529618","0.6902649519807792","-0.2799673672596614"
"-0.009688150108747956","-0.09841562666366038","0.29138581543568287","0.12516552370085698","0.4475740789225576","-0.24927082740276693","0.08401137571346787","0.7178528942419","-0.2059202006516185"
"0.008039927406824732","-0.06141443586145219","0.4898263063614668","-0.3470017083295306","0.08469152799790018","-0.0357866095772203","0.08401137571346787","0.7086709918420718","-0.24758139355530862"
"-0.3081645097345718","0.46554284333622625","-0.05408922230109459","-0.4007492669584192","-0.16350644315339855","0.11404049602398153","0.08401137571346787","0.674806919421731","-0.2865630786903013"
"-0.09439612776497526","0.2193798992874743","-0.09130684064772505","0.2841771688519841","-0.1617947330075275","0.505104767768051","0.07773537252021231","0.6131437294320857","-0.30428905316014593"
"0.3498630482016343","-0.0862704031907376","-0.1739591856062142","0.3545560475094345","-0.5016262539677885","0.8575478037418629","0.08400641052106815","0.5149387641143303","-0.3757855344883711"
"0.4503393449862582","0.04752902657692723","-0.09793756575545806","0.2155560719861703","-0.5423649554395189","0.7580835658913238","0.09968648811940767","0.4415933560759617","-0.47526226040126374"
"0.4040400530892243","-0.4114176941265905","-0.051861156068657425","0.2684923467112267","-0.5157763911736557","0.3320855130485285","0.12320660451691694","0.42074612965206526","-0.5958529922415368"
"-0.1416881920028812","-0.4004035114205474","-0.08089731520977858","-0.056900105717504076","-0.616424947750872","0.11976575459293934","0.14829075652034032","0.39378326630316823","-0.6687536386985504"
"-0.590885443379283","-0.1906089139353924","-0.17820142371277453","-0.3907434321444877","0.02249939269791958","0.14664535838279227","0.14672175572202645","0.34147936597222533","-0.6010187740456121"
"-0.3672795900319542","0.10018974609200594","0.18249576252401362","-0.2556646621564129","0.45773022578805905","-0.3390312371703263","0.1247706401228311","0.37770860184422383","-0.5497216589737216"
"0.11443417879482891","0.5074856051080161","0.37095451672847907","0.31960323265266033","0.21158630681180557","-0.46256096866665397","0.11536160052534743","0.4327746752062097","-0.5417089001654052"
"-0.17420470945326252","0.05541938240301674","-0.06795670653178353","0.06114170229009281","-0.2414463117953926","-0.024530169000964202","0.121637603718603","0.4391521695133579","-0.5719693028032432"
"0.1833867304699436","-0.6053777208754294","0.2511023779532189","0.053502112195672163","-0.20938027506274204","-0.12282994748154545","0.13104167812368694","0.4516284067208519","-0.6227768924173909"
"-0.5110897548382799","-0.061468294945589315","-0.5494329070965257","-0.28263985195883623","-0.18404696490385083","0.23475611737624516","0.1388817169228567","0.4242600867802424","-0.6253018131994328"
"0.2454414483480901","-0.2966574506014011","0.012431923134549484","0.3165609180132893","0.4271476711818301","-0.4711003373796758","0.1184996021219752","0.5066437980088738","-0.5735795839142392"
"0.3794141417766835","-0.40930372507420815","0.12800617474353024","0.0841956865573268","0.5487932055483976","-0.359409276144583","0.10595752612026348","0.5279471630984474","-0.5075709406122888"
"0.29370049863229997","0.22595070755220414","0.15549159978687516","-0.23903334212785118","0.5615739746375679","-0.421125622752332","0.09341545011855182","0.5736201587524213","-0.410129610023695"
"0.07994500980998753","0.2861113045333782","0.05155676617614614","0.11414558400713516","0.8181022684987723","-0.7078737426043731","0.08713944692529618","0.6686997295090579","-0.27820249916200973"
"-0.022503938509096502","0.027830066553771987","0.2946120553402519","0.1234753489012064","0.4985830412695142","-0.3677545682959453","0.08401137571346787","0.7086287567804351","-0.19663209920339322"
"-0.02545646923714455","0.005801701141685875","0.5047276133240066","-0.4163664821071906","-0.033644700086650076","0.0028346261930376846","0.08557541131938202","0.6963721418934522","-0.23804852937821194"
"-0.2963414936750953","0.3973976371317227","-0.13406788778065917","-0.377019212771325","-0.24909195044694984","0.24436290717839476","0.08401137571346787","0.6470922719757001","-0.2935066108409163"
"-0.1180550530312123","0.23257537490107114","-0.09995173762958126","0.260852756616806","-0.15882776875468443","0.535768864510266","0.08087337411684009","0.5824810746838102","-0.3143887362883132"
"0.41289764527336875","-0.07753176678948828","-0.16080468256990518","0.3318400982021306","-0.46841907713789066","0.8961690395121207","0.0887084477236101","0.4874015039271735","-0.3987932310022828"
"0.4355637981987336","0.061020727153278255","-0.042182436354950364","0.21954488451334567","-0.563476047238595","0.7681755470976224","0.10752652691857742","0.41722372551156084","-0.4898964951379959"
"0.5094415321363566","-0.29661705628829826","-0.009706142950946222","0.269506451591017","-0.4325872780843238","0.4049612619517037","0.12633964092114497","0.4025174770496468","-0.5771866136028705"
"-0.05698021434665388","-0.4748233009270266","0.004072218630445233","0.01084210025249138","-0.5649595293650166","0.1417934443413026","0.14515275492371255","0.3875071361439482","-0.6517233056686561"
"-0.4480422646192613","-0.14375151073608944","-0.20902003583984552","-0.3086685438734553","-0.23665352338695372","0.13432149671740845","0.1529927937228823","0.33243261576963484","-0.6212696692974986"
