"AccX","AccY","AccZ","GyroX","GyroY","GyroZ","MagX","MagY","MagZ"
"-0.10093295343799011","0.03718808242259829","0.31582324587305377","0.258013262953393","0.020787682552048554","0.18070579495404995","-0.2277629854502226","-0.13709456444604076","0.005928382311023348"
"-0.03602885001006795","0.04513229733282495","0.10000383833425992","0.051879544388007605","-0.4264251215591881","0.35256059030361503","-0.20669567409817863","-0.19579285310878666","-0.08420871315809224"
"0.3150386573874075","0.2330601066583053","-0.21878787820285003","0.1130638721353588","-0.6352537593554534","0.378955002689319","-0.1779670708733552","-0.24306233409262978","-0.2113307451845653"
"0.3760103508936935","0.11597045774418502","-0.2284844224464166","0.3238624731477799","-0.34175252634343467","0.46493091950451626","-0.14157717577575224","-0.2937950901306859","-0.2732943623356937"
"0.4094551749485266","-0.07579481132606586","-0.3879426665694798","0.16309304620501613","-0.498431061695496","0.4112687502056403","-0.10710384494444403","-0.3408618428186727","-0.32964131897166793"
"0.13016381848137343","0.11735732916071608","-0.46271656933007116","0.3254850409554444","-0.18872563930256497","0.594088871288972","-0.07070898465444146","-0.3545797908382869","-0.3839013512877912"
"-0.12847271603672702","-0.3329584733098266","-0.12018257902011074","0.5253313092661296","-0.07917618996681935","0.15751364583572922","-0.061131128515367","-0.34288912577723635","-0.4365897492395823"
"-0.7342443480306667","-0.5729276226828086","0.06292881622650545","-0.05115351139869209","-0.09321221316296176","-0.11467873189184277","-0.07837027652722091","-0.3468085394971261","-0.3996949884244405"
"-0.3517046681128183","-0.15095516323943053","0.3173383309111111","-0.40750996615702156","0.3617603436095569","-0.5945330305951738","-0.13199931963667785","-0.32317379900520454","-0.35116755686346324"
"0.03675296640841046","0.32336832598523774","0.36206007632858983","0.02132118401032501","0.15772449422173063","-0.18221737534937935","-0.14349374004204704","-0.3310041794326568","-0.35731238958302425"
"0.17147346237947877","-0.014799398540766295","-0.026104710421683774","-0.7756300375209192","0.15110588165769598","0.38681510343653225","-0.12433802776389827","-0.39719496802976095","-0.2741832375089635"
"-0.1550325994418759","-0.2531931697027373","-0.3556089694043516","-0.16196137126378446","0.0486315009248839","0.20593574796979636","-0.10901544401833922","-0.4262357964111857","-0.25406116474595675"
"0.1439336997807419","-0.10149905923051107","-0.4276735436262994","-0.01214427702275658","0.3980485987020227","-0.5730875705317893","-0.15689479432891162","-0.3389105829710551","-0.17912512296464406"
"0.24522226484426124","0.08189112225641608","-0.23399220217300118","0.07628566849496206","0.44803053496145656","-0.4750789068936974","-0.1856283627461348","-0.27305767486704496","-0.11047561864065995"
"0.2540798570284055","0.06977282832556186","0.18700536857846645","-0.14140884570003334","0.43216868760971844","-0.4575149780635047","-0.19903438222539913","-0.19923078712601755","-0.04075688765897448"
"0.06525971505345134","0.2224498670832907","0.11971776835886398","-0.19630572319268436","0.17826501597218294","-0.37939916199552054","-0.20860727317207375","-0.158710468991726","-0.016692846736249326"
"-0.21599139980087786","0.2926013241719023","0.07815096472651618","-0.13268754373383634","-0.03067773583380696","-0.302447805297494","-0.22201825784373774","-0.12210111756499688","-0.003733304354953021"
"-0.30057044598426463","0.4551749696398288","0.18039246800059291","0.06472487286535206","0.20337009811162465","-0.1730957769513787","-0.22967954971651727","-0.10752157428799307","0.045618591134854274"
"-0.07438596318012525","-0.02843921159849443","0.34229267271440733","0.3116932145902956","-0.03524229622279637","0.22291744711501033","-0.22010169357744294","-0.140540945475599","0.016801000372468754"
"0.08196923393358384","0.052968794074777344","-0.07531823736375594","-0.003355368064573536","-0.43829297857056054","0.3892410604572771","-0.19711781795910424","-0.1991716580397261","-0.07869511063404169"
"0.30717383754413524","0.10900917111946094","-0.011149929869565499","0.1952739743903633","-0.683181643439842","0.3770142370727231","-0.1645560862016912","-0.25373935767439854","-0.20076730109643112"
"0.34652372305506457","0.1250995725054285","-0.21632809308223938","0.2043333113164904","-0.43897766262890897","0.4616316179563033","-0.13391588390297265","-0.30101728567056907","-0.26808993378495444"
"0.3897802321930619","0.03721501196466686","-0.440346784356402","0.0859534683489634","-0.4882749148299945","0.4419328469478552","-0.09369286027278002","-0.347822180976408","-0.3133839208750517"
"0.011172962196849559","0.021824778672482","-0.32240187027610806","0.488823533593677","-0.0940110112310349","0.4340727462006419","-0.05539136610128195","-0.36132050667551113","-0.39402679891373443"
"-0.42545347057760075","-0.4815422216731336","-0.07401704668401263","0.32825692762687136","-0.17685778229119253","-0.014923379198814599","-0.051558237568692426","-0.350052192230828","-0.4152953918277704"
"-0.5700243310736856","-0.3341029788477406","0.2746129328378959","-0.37999392041871","0.1983490816837363","-0.4169529766766509","-0.10327071641185442","-0.3444433760454685","-0.3509099118857039"
"0.038699831648302443","0.31328321248056024","0.4012205684299055","0.06972779027231779","0.11093775023458924","-0.4015238900247136","-0.12817115629648793","-0.3193895374825524","-0.36687101825789686"
"0.2825866056734464","0.28866961102989186","0.13230188643966911","-0.6966650708812437","0.15624101209530908","0.32529283339044296","-0.10901544401833922","-0.3929376738167772","-0.2897965231611814"
"-0.22780152271307028","-0.3784693994057013","-0.35143802941722924","-0.17980961714809465","-0.06308611459563172","0.30598221550531396","-0.08411996932610531","-0.42171664481605403","-0.2745697049756026"
"-0.1491275379857797","-0.16031317910825685","-0.416729282292568","0.009760388380715003","0.44882933302952976","-0.5556206799824264","-0.13774901243556234","-0.34937643124464013","-0.21178162389564417"
"0.31307889900023145","-0.006006903055379841","-0.29864177197339814","0.18932455909559323","0.524486921477029","-0.5535828760850008","-0.1760505066070604","-0.27643647979798436","-0.13752834130539376"
"0.2609647976780897","0.027399193880674945","-0.03849275867403442","0.06377837497754772","0.5126190644656566","-0.4738174092429101","-0.1856283627461348","-0.21733273454352575","-0.0795453390606476"
"0.19606069425016764","0.15865378192286045","0.13319311293264396","-0.23511213659266184","0.3437303300730487","-0.3999712775314369","-0.19520125369280944","-0.1656708071494613","-0.01665419998958542"
"-0.09995307424440208","0.20353186378012386","0.12887957670664563","-0.1763616605568075","0.06631917243221783","-0.3252518012924956","-0.20860727317207375","-0.12527719420007996","-0.008937732905692303"
"-0.23271381182829443","0.37636566477617356","0.08950519024701599","-0.10577996092339902","0.09770052510652","-0.31923542788104836","-0.22010169357744294","-0.09231695209876546","0.03635625418440492"
"-0.1963164570454132","0.16344724041106493","0.32298870687657166","0.17871026135378754","0.0635804361988242","0.10035809842698057","-0.22010169357744294","-0.11082435610798641","0.04053010282410672"
"-0.02914390936038378","-0.009332701500847614","0.29029851911425353","0.036329936231222215","-0.37712786935810255","0.3606147676124879","-0.20477910983188383","-0.1585753167944884","-0.043629629160991446"
"0.3848679430778378","0.20070426186292453","-0.30775010673160125","0.040318748758397596","-0.6122027293910568","0.3625555332290838","-0.17987866994725024","-0.2245633770957362","-0.18842610666175733"
"0.34455107152060455","0.11593006343108211","-0.09868619600955691","0.3245385430676401","-0.3981248471474538","0.49879727951411434","-0.14923846764853177","-0.2754904144173213","-0.2505829575462053"
"0.46058939707708024","-0.004202623736785992","-0.3606533113545894","0.19493593943043316","-0.4865632046841235","0.5039403083980936","-0.11859330015741347","-0.3338423755746459","-0.2915356267610571"
"0.1734332207666549","0.1274693722074622","-0.4864410185730621","0.22928029135933303","-0.15563257648239182","0.632224915655081","-0.07645371226092611","-0.36206384376031775","-0.3517730225611978"
"-0.13141235361749107","-0.24720134659248158","-0.1624445393169789","0.5587967702992112","-0.07278580542223419","0.2923968561891428","-0.061136093707766674","-0.3541067581479554","-0.4158750930277289"
"-0.7499868808644954","-0.5830800600426576","-0.02435790649545304","0.04315824242181057","-0.13554851077083846","-0.02278347994602791","-0.07070898465444146","-0.36145565887274866","-0.37328637820410515"
"-0.32613755704854147","-0.11065510353382316","0.3106006586242211","-0.31820112974348463","0.4553338315838396","-0.6068568922605575","-0.1434887748496473","-0.32357080858459003","-0.31353850786170734"
"0.07607706562477166","0.3323762578071727","0.3403319744298626","0.028825560120773613","0.09336419273698003","-0.21336666349574315","-0.16072792286150128","-0.320470755060453","-0.3191551683768616"
"0.31013926141946757","0.1534025212194902","-0.08264411913600934","-0.6341962102861581","0.13558637633513201","0.3112222826701228","-0.1434887748496473","-0.3867291197561759","-0.23651554176054365"
"-0.2897402022656602","-0.38526910877801396","-0.4167827558821465","-0.2547181642686086","-0.02782488559068858","0.19856083862673207","-0.13391588390297265","-0.408606881684009","-0.2210954898416454"
"0.32290347723067975","-0.03526585051287563","-0.4445533734032433","0.020104258154576594","0.48876923643318704","-0.6593546021894761","-0.18179523421354513","-0.31378072129719287","-0.14023361357186717"
"0.24620214403784918","0.07177907920966993","-0.24201324060977508","0.05688246179497333","0.39325581029358375","-0.46527804052988825","-0.19903438222539913","-0.24381411818976384","-0.07636342358531939"
"0.24226973411621314","0.03146555473302824","0.1283626653407202","-0.16764035859061044","0.39827682672147213","-0.4776989404761019","-0.2066907089057789","-0.16607626374117404","-0.000770387110720268"
"0.08885417458326805","0.21029117883933365","0.09845310423648365","-0.2347741016327317","0.177808559933284","-0.3930815595925216","-0.21627353023725304","-0.12561507469317393","0.012202037519464"
"-0.23075405344111838","0.3299525990210019","0.032858834353533435","-0.13823131707669026","-0.06034737836223807","-0.3078819490239625","-0.23159611398281216","-0.08893814716782601","0.03045618419371535"
"-0.2887603230720722","0.4783478405898289","0.22707491170261646","0.10907505960818342","0.17632507780686243","-0.12593517246809888","-0.23542427732300206","-0.07800771321623683","0.07464229787944728"
"-0.13142524676477513","0.016061856669809107","0.37644447192520425","0.32325401021990563","0.07248132895735353","0.2071002073397539","-0.23351267824910696","-0.11494649812373256","0.06701600653776993"
"0.021990312768169897","0.057102478782302055","0.04505081277742962","0.08095055094199767","-0.24715201228162936","0.4117539416097893","-0.22010169357744294","-0.15911592558343873","0.010115113199613111"
"0.3347136001428721","0.18357707310731727","-0.026104710421683774","0.15842816375798052","-0.6955059564901135","0.4241748415560028","-0.1932896546189143","-0.21760303893800093","-0.1232548095375247"
"0.4006104759116664","0.053372737205805806","-0.1559207613884029","0.24834546309939168","-0.4360106983760658","0.49617724593171003","-0.15881135859520656","-0.2832532187461547","-0.19171108012818927"
"0.49894651024713743","0.0036338730051664104","-0.3895825233165536","0.08122097890994177","-0.5616502230829993","0.47230582884758066","-0.12050986442370834","-0.34505156093303757","-0.2597808832522148"
"0.09083971926501219","0.10035132334441732","-0.4030043943007551","0.4057345404428541","-0.18975266539008762","0.661433438184849","-0.0630476927816618","-0.3801742381901534","-0.35799514877408656"
"-0.36841418699295087","-0.35164757550541065","-0.09414094089538512","0.5880705978291593","-0.2738546905572173","0.11869833350381162","-0.04389694569591276","-0.3683484209318652","-0.42719858980025327"
"-0.7185147083441221","-0.5022645042948942","-0.0862803232273468","-0.34402700068214553","0.15498575798833697","-0.24548633445040496","-0.0764586774533258","-0.3765251288647387","-0.347612056170384"
"-0.16976946678754834","0.05648309931472507","0.22962381947252458","-0.40467047249360855","0.46286535622567204","-0.5241802769935732","-0.13966061150945738","-0.3420106364951921","-0.28790283257465"
"0.1222989986381012","0.32518607007486594","0.3136308287003356","0.048769622756650526","0.30299162860131834","-0.10555713349384213","-0.1511500667224268","-0.36099107319474455","-0.2401483359469508"
"0.34159854079255636","-0.0474245387568327","-0.1311446648837016","-0.6869296640352563","0.07864348548248923","0.1016195960777679","-0.14540533911594217","-0.3905133812788282","-0.19315389200364172"
"-0.29368550533458043","-0.3127074576742657","-0.27625416246986945","-0.19664375815261448","0.0723672149476288","0.18322879025562458","-0.13583244816926746","-0.4161754047293134","-0.16194020294809408"
"0.18917575360048342","-0.08544905215764638","-0.48287611260116264","0.0475526969009021","0.41299753397596295","-0.617045911747686","-0.1760505066070604","-0.31729467842536985","-0.09142277253535457"
"0.23833732419457693","0.06580072087044854","-0.06724372533740362","0.09406630738728623","0.5135319765434545","-0.48652942403161314","-0.19711781795910424","-0.2251715619833053","0.006405025519878181"
"0.23146527669217684","0.14949773761954832","0.19411735599240587","-0.16831642851047068","0.37111769240698517","-0.49167245291559214","-0.20477910983188383","-0.1585753167944884","0.07580170027936443"
"-0.09602066432276596","0.22479273724325582","0.11060943360066085","-0.18291953877945172","0.023298190765992727","-0.2717837085552791","-0.21627353023725304","-0.11811412774648831","0.07817203407475065"
"-0.25828092289257126","0.38246520605470347","0.12449474236120928","-0.1161238306972606","0.00526817722948459","-0.2526671672318097","-0.22584642118392775","-0.09988547514406988","0.09019117228722526"
"-0.17665440743723257","0.17551167525778208","0.27650233300300264","0.20778126790777762","0.0902831144744122","0.13286592250496154","-0.22584642118392775","-0.11845200823958225","0.09955656722877836"
"-0.0144070420147113","-0.029543322823305587","0.1961493523963886","0.10278760935348324","-0.3117405417858294","0.40234122836929925","-0.21244040170466344","-0.1737039158727699","0.036523723419948514"
"0.33274094860841213","0.15539530733256401","-0.20310229192649235","0.03754686208697064","-0.6163108337411473","0.41912885095285357","-0.19136812516021978","-0.22868551911148235","-0.0967946703216374"
"0.298329138507275","0.056510028856793626","-0.1338896424820642","0.23773116535758596","-0.4187794829076309","0.47725478116990017","-0.15881135859520656","-0.29068658959422156","-0.16507058942787042"
"0.4596095178834923","-0.006235804162962648","-0.3536482711198069","0.12340774190922038","-0.48724788874247194","0.4299971384057906","-0.13199931963667785","-0.34174033210071697","-0.22193283601936337"
"0.15475105035206224","0.12737511881022223","-0.45997159173170854","0.1961528652861816","-0.2524012567289671","0.5689559565540554","-0.09177629600648522","-0.38098515137357886","-0.2778289139442586"
"-0.05667077881183662","-0.15254400622147588","-0.21659546103013183","0.5141085485964497","-0.0776927078403978","0.3455738340838698","-0.07645371226092611","-0.38436395630451825","-0.35871655471181285"
"-0.46381058374765805","-0.47250736030913","-0.05754718109383707","0.3442121777355729","-0.2746534886252905","-0.0026965558142605685","-0.06688082131425147","-0.38774276123545776","-0.36917694080884317"
"-0.39988635951332385","-0.11252670670758841","0.2598542221142321","-0.37309800723613556","0.42189842673449224","-0.4185055891699276","-0.12625459203019307","-0.3712626401848006","-0.2941764877830907"
"0.00724055227521344","0.3083012471978757","0.4206849550364766","-0.07177364395442923","0.1264572555571532","-0.1669823652591017","-0.14349374004204704","-0.37187082507236957","-0.26778075981164323"
"0.3150515505346915","0.12574588151507402","-0.33888956039614315","-0.6938255772178307","0.2266493560954706","0.3063703686286331","-0.12433802776389827","-0.43434492824544035","-0.17918953420908387"
"-0.33202972535735364","-0.2891575731353057","-0.2332079228591834","-0.20259317344738456","-0.0529299677301303","0.14189048262213239","-0.12050986442370834","-0.43792646147223624","-0.1466360912691875"
"0.22162780531444443","-0.07143222551095833","-0.4070327380490015","0.1084665966803092","0.5018923475515314","-0.6657591287242426","-0.166472650467986","-0.350390072723922","-0.08791880083782713"
"0.2619446768716778","0.04256052606527699","-0.29220711669411964","0.1159709727907578","0.4668593465660379","-0.48070712718182546","-0.1894565260863247","-0.2805586218137305","-0.024177433340159014"
"0.267849738327774","0.036460984786747044","0.1589852076393366","-0.1398538848843548","0.42555007504568376","-0.47963970609269774","-0.19903438222539913","-0.20666415797408438","0.05102913566780104"
"0.09673188757382437","0.21027771406829934","0.12267664031554054","-0.21381593411706443","0.20610883434501828","-0.3946341720857982","-0.20860727317207375","-0.15134467424227796","0.07643293047487491"
"-0.2268087503721982","0.3238934520555748","0.07497819841152566","-0.12511556063140172","-0.07301403344168367","-0.308561216989771","-0.22967954971651727","-0.11116223660108035","0.08386598808323273"
"-0.3172799648643972","0.48446084663939315","0.16374435711182242","0.05972195545838632","0.20439712419914724","-0.14078202943505735","-0.23542427732300206","-0.10400761715981602","0.13234189064865817"
"-0.09995307424440208","-0.018300239009679732","0.36386035384439896","0.33454437788157154","0.026721611057734775","0.24911778293905468","-0.22584642118392775","-0.14074367377145539","0.10889619767255551"
"0.06034742593822719","0.05097600796170353","-0.018261917283504937","0.019766223194646472","-0.42071942107295135","0.4101042908356827","-0.21052383743836856","-0.1996446907300576","0.013116677190509764"
"0.3534086637047488","0.1300950025591473","-0.07988131700778726","0.1993303939095247","-0.5977102501560155","0.415635472842981","-0.18370683328744025","-0.26184004249632586","-0.1313577440880569"
"0.42715746616953115","0.049252517269315385","-0.20060685774616271","0.16687903775623342","-0.4378365225316616","0.43649870322138673","-0.15497823006261682","-0.3277605266989549","-0.2109442777179262"
"0.31307889900023145","0.021232328746973575","-0.4178344031438569","0.019428188234716356","-0.5036803061428339","0.5263561512697759","-0.10518728067814923","-0.38166091235976674","-0.27803502992646617"
"0.049517182219622785","0.015711772622917765","-0.34159888893478674","0.4453522377466639","-0.14650345570441303","0.48288300145802826","-0.0726255489207362","-0.4027953372027931","-0.3597728991206262"
"-0.32909008777658955","-0.35172836413161634","-0.09734935627009464","0.40384154466724553","-0.2229598422199855","0.05834052282767981","-0.05921952944147187","-0.39860561908842806","-0.4132728787523593"
"-0.7421220610212231","-0.4728978386691242","0.07766970242030975","-0.38526726579361986","0.054108973391671186","-0.2924528623720253","-0.09560445934667515","-0.4033359459917433","-0.322646257825501"
"-0.09700054351635398","0.14308850660722988","0.2663780000428081","-0.16885728444635886","0.387550109807347","-0.5104008411157425","-0.1530666309887217","-0.37564663958269445","-0.30619562599556527"
"-0.03209644008843183","0.17731595457637586","0.18110544919497285","-0.39682806142322985","0.29409073584278905","0.292299817908313","-0.14349374004204704","-0.42009481844920316","-0.20047100937200785"
"0.42125240471343495","-0.137342279723771","-0.2783396324634307","-0.20915105167002884","0.15270347779384227","0.163724095808836","-0.11667673589111874","-0.44886534243615267","-0.16889661734759706"
"-0.3045028559059008","-0.32862281703678764","-0.30509425178253613","-0.19387187148118754","0.08708792220211961","0.09162465315229912","-0.1281661911040882","-0.43819676586671136","-0.14147030946511216"
"0.24719491637872132","-0.019983335388965042","-0.45540851208767724","0.051000653492189296","0.4263488731137569","-0.5970560258967484","-0.17413394234076554","-0.3580937479664639","-0.07240857317671308"
"0.21867527458639632","0.10218253220507975","-0.2308907339774487","0.032814372647948994","0.4867151842581417","-0.45615644213188766","-0.1913730903526195","-0.28811869784670757","0.002334234871280134"
"0.21375009232388817","0.09907217009616047","0.18541898542097118","-0.12640009347913617","0.42212665475394173","-0.4766315193869741","-0.20286751075798873","-0.2104484194967366","0.07784997785255143"
"-0.049798731309436475","0.2136035125137671","0.1376670699273778","-0.1685868564784148","0.06837322460726307","-0.2719777851169387","-0.22010169357744294","-0.15891319728758235","0.09718623343339214"
"-0.26810550112301956","0.3905440686752729","0.1718545181978937","-0.15445699515333589","-0.014131204423720371","-0.22685498453108455","-0.23159611398281216","-0.1371030114583681","0.1254112407469311"
"-0.23467357021547047","0.24119282836301187","0.24131671106035485","0.09190288364373346","0.0883431763090917","0.07706891102783005","-0.2277629854502226","-0.15566954455388046","0.12953356039108102"
"-0.06159596107434481","-0.03149571462327654","0.30929946794447777","0.1349685375388304","-0.29040122196730395","0.362943686352403","-0.21244040170466344","-0.2071371906644159","0.050552492458946205"
"0.13212357686854945","0.04680192894107599","-0.19720237254299874","-0.08394290251191344","-0.5735180800943716","0.3559569301326578","-0.1894565260863247","-0.26205121780450963","-0.055558591631250265"
"0.3642131211287851","0.14823204914232577","-0.07314364472089727","0.12496270272489891","-0.650887378687742","0.37429716520948886","-0.16072792286150128","-0.3093206987883527","-0.17182088784516591"
"0.4330496344783432","0.10371751610298793","-0.2277001431325987","0.3173722019171216","-0.3844311659804856","0.4528011344007921","-0.13199931963667785","-0.3603913353195028","-0.23411944346738153"
"0.25801226695004165","0.04252013175217415","-0.44170144862572375","0.10934548757612751","-0.441145828813679","0.6050541970227388","-0.074542113187031","-0.41766207889892676","-0.29577388664519877"
"0.022983085109041988","-0.021572178371010373","-0.27497079631998567","0.5087675962295539","-0.09914614166864799","0.410007252554853","-0.04772510903610268","-0.413066904192849","-0.38692867977646384"
"-0.3871092505548275","-0.370781015145126","-0.03820756619628246","0.4406873552996283","-0.20470160066402787","0.007104310549548616","-0.04198534662201764","-0.4016465435262737","-0.43469605865305094"
"-0.7008124171231177","-0.4104751601541907","0.08772273726106625","-0.5033766807932027","0.12383263333348431","-0.34824987384915673","-0.08219843986741084","-0.4069174792185392","-0.3441338489706324"
"-0.0468590937286724","0.23477013257965917","0.3511514640545775","-0.1573640958087349","0.30515979478608835","-0.472458873311293","-0.1377440472431625","-0.38260697774042973","-0.3224143773455176"
"0.5235337421178264","0.375961721645145","-0.1425523639937799","-0.5917390193189355","0.2898685174829738","0.40272938149261844","-0.11284360735852907","-0.45622269017327344","-0.22846413620556336"
"-0.4431686549458893","-0.510881957756835","-0.19442174588491715","-0.31252214241665865","-0.1896385513803629","0.15499065053415456","-0.09943758787926489","-0.478041323014815","-0.2083807101892205"
"0.17048069003860672","-0.04428724710584489","-0.5112349396076229","-0.07359903273805185","0.5432016190718856","-0.6997225270146703","-0.16264448712779608","-0.37646599977844736","-0.12213405388427145"
"0.34257841998614436","0.12406278513578876","-0.41489335571703984","0.11029198546393185","0.5620304306764669","-0.5637718955721291","-0.19711781795910424","-0.3068964062504037","-0.03713697572145532"
"0.2412898549226251","0.05870478653538167","0.09492384732430317","0.05688246179497333","0.5191235630199664","-0.5460138901802768","-0.20860727317207375","-0.21450298541386392","0.03925476018419784"
"0.14884598889596606","0.18194783581216906","0.22135323761771786","-0.03648279413772501","0.3197663880308544","-0.4525660257411852","-0.21818512931114808","-0.15168255473537193","0.08613326388751517"
"-0.2002617601143334","0.2421488271064459","0.1591456284080721","-0.11794921948088324","0.048060930876260226","-0.22879575014768042","-0.23734084158929686","-0.12291203074842232","0.10438741056176654"
"-0.3310627393110497","0.4300093125767547","0.13493991685887471","-0.026814994283723664","0.07168253088928038","-0.17755953786954923","-0.24116900492948679","-0.11534350770311794","0.13164624920870785"
"-0.13929006660804738","0.07962904072265661","0.3394407479368877","0.2733600501342203","0.10180862945661044","0.1320896162583232","-0.23542427732300206","-0.1411491303631681","0.13021631958214336"
"0.022983085109041988","-0.04675130020511858","0.036673283743465866","0.10096222056986061","-0.3055783852606937","0.3573154660642749","-0.22010169357744294","-0.19633346189773698","0.06182446023591864"
