"AccX","AccY","AccZ","GyroX","GyroY","GyroZ","MagX","MagY","MagZ"
"-0.20276303068743962","-0.3701212413644462","-0.04330538173609871","0.04052156973435567","-0.560851425014926","0.17032269890526197","0.05108221971847498","0.2649663283111011","0.12431624959145378"
"-0.5701919419883782","-0.23072046684651984","-0.155350376432899","-0.4757254210709192","0.13193472802394052","0.08987796409736283","0.05891729332524498","0.2836764606161785","0.21652738713153227"
"-0.29436884214063525","0.19908848933881063","0.21274398969558062","0.05384014715560229","0.3226192382739728","-0.4431533125006952","0.05891729332524498","0.338928368249366","0.275502322540652"
"0.02281547419434928","0.4760992238271037","0.22748487588938493","0.10846659668030921","0.24547816770005187","-0.18765151907584782","0.055789222113416664","0.351184983136349","0.2789032362470757"
"0.41684294834228885","-0.14722542166293434","0.23999769585075206","0.14314898356913922","-0.2828696973254714","-0.014923379198814602","0.04480621652521938","0.34480748882920065","0.18953907571123826"
"-0.5396609692197409","-0.36143646404733404","-0.4799350651743456","0.058843064562568013","-0.25365651083593926","-0.012400383897239964","0.04637521732353325","0.3478399662547189","0.1811012026896189"
"0.30454363549818847","-0.25779812139646185","-0.13802493340946764","-0.053925398070119056","0.4780425195190619","-0.23937292275812797","0.049513218920161105","0.38482098622385136","0.26707733176792064"
"0.28091049652651956","-0.1846844146803081","0.07148459055906418","-0.10625320986730118","0.4467752808544845","-0.3572744339663276","0.055789222113416664","0.4464926232258239","0.3471018618599808"
"0.2543119336795185","0.15000939891885107","0.1429253062359295","-0.09131206463838999","0.546054469315004","-0.5127297598556575","0.07930437331852622","0.5209445898790751","0.4607104148029751"
"0.07107452447855918","0.24271434748988582","0.046048986449561465","0.13517135851478845","0.8337358878310609","-0.6906009286166698","0.10909056252449158","0.5833849050028365","0.5668086166442836"
"-0.06288527580275009","0.17322266418195403","0.2357376332143322","0.12448945378099677","0.418132664413576","-0.3025448435783238","0.12477560531523081","0.6021372723695504","0.6300733409330969"
"0.04349608243797011","-0.14765629433603134","0.5197002184059843","-0.11287869508193146","0.3037904266693915","-0.059755064942179394","0.13104167812368694","0.6331547016355747","0.64926789177617"
"-0.212613395212456","0.2648773606123147","0.360954955477301","-0.39601677751939757","-0.17605898422311939","-0.006966240170771502","0.12477560531523081","0.6820291149616141","0.5973137820109929"
"-0.25202774645980563","0.28907355416092034","-0.07448048446035956","-0.056900105717504076","-0.13338034458606848","0.29453169836739823","0.11379259972703352","0.6356888053337795","0.5798325702700198"
"0.3794141417766835","-0.17175823448739697","-0.25288620382406846","0.2628809663763867","-0.4614581225446818","0.6492066148002951","0.08713944692529618","0.5180979467247586","0.5207416946209082"
"0.30061122557655234","0.1618449326579853","0.018260544398605114","0.0825055117576762","-0.536316912924108","0.7385788714445352","0.06989533372104255","0.3946279675359032","0.4115131062998233"
"0.544897687167502","-0.07641419079364284","-0.12895224771098346","0.23090285916699763","-0.48850314284944407","0.6304782266001447","0.0636242957201867","0.29606822770039887","0.30484808550744424"
"0.12033924025092516","-0.48028999796694527","0.00692414340796481","0.28289263600424963","-0.5722628259873996","0.2091380112371796","0.054220221315102755","0.26197608594721966","0.18836679106243315"
"-0.2933889629470472","-0.28064783784163927","-0.09649377883683875","-0.09793754985302029","-0.47925990806174046","0.15528176537664393","0.05735325771933082","0.2437136452954918","0.14780058931422035"
"-0.5308033770355967","-0.21174860445921587","-0.08257282101657136","-0.4857312558848506","0.29203668366774377","0.02224228235899647","0.06519329651850057","0.2837693777517792","0.26763126847010327"
"-0.26186521783753797","0.20596898733732896","0.2717966571200953","0.07946319711830516","0.29329193777471585","-0.523792123870254","0.05891729332524498","0.3266295183007463","0.28933785784633015"
"0.0001622144162684236","0.4121011671011591","0.18408214568150888","0.12043303426183535","0.13900979662687407","-0.1828966433151879","0.055789222113416664","0.3449933231004025","0.28817845544641296"
"0.11442128564754489","-0.0768315986957056","0.12406695364458133","0.013478772939946294","-0.18016708857320984","0.05329453222453053","0.047944218121847196","0.3326015560161819","0.23286207872147632"
"-0.4332667178317368","-0.25039249732760654","-0.5030000068125351","0.09812272690644763","-0.4123890983630457","0.05368268534784971","0.04637521732353325","0.3263592139062712","0.1869497436847566"
"0.2040673387135645","-0.2534355355813544","-0.13907658067117787","0.0544486100834765","0.380246813184964","-0.21511335255067948","0.049513218920161105","0.3571485738394572","0.2566555924175541"
"0.293713391779584","-0.19577938601255687","0.053178798393360406","-0.006532896687916636","0.48648695623869226","-0.38289254010539314","0.055789222113416664","0.41882865785375717","0.34094414689153196"
"0.23262565994774173","0.15909811936699172","0.1170084398202204","-0.017552836381638456","0.7739401467352999","-0.5780365228541088","0.08871341291600977","0.5089244913372579","0.5003233301334782"
"0.04646150631330223","0.30206705820900287","0.07305314918669994","0.09048313681202698","0.7511173447903529","-0.5998701360408124","0.11536160052534743","0.5588716752288706","0.6033555567394502"
"-0.034326954568573","0.05290147021960593","0.23399082928810147","-0.030871413802885068","0.3794480151168908","-0.17173724101976162","0.12790864171945887","0.5868988621310134","0.6524626895003861"
"-0.027416227624320645","0.041846893200460034","0.6448105934897961","-0.23828966521600495","0.22082954159950913","-0.08799320466364943","0.13731768131694252","0.6271319818461751","0.6579247630288847"
"-0.24315726112837724","0.23494517460310482","0.1646534081346568","-0.30630229915394447","-0.19602893592494802","0.15770772239738878","0.12790367652705917","0.6391605274003196","0.6225629898314112"
"0.1262443017070214","0.1054006124822733","-0.04182594575776043","0.06181777220995305","-0.1535785243073466","0.4586234312505797","0.10752652691857742","0.5709509028569792","0.5893010232026766"
"0.14002707615367388","-0.1462963524615688","-0.21962563110624642","0.2552413762819661","-0.6062688008853706","0.6848196638648294","0.08557541131938202","0.45656146192002356","0.4961237169960006"
"0.42866596440176535","0.22127843200330813","-0.08485436083858702","0.06114170229009281","-0.6184789999259173","0.7448863596984718","0.0714593693269567","0.35469894026452603","0.4021863581049342"
"0.5626257646830747","-0.07547165682124307","-0.07667290163307774","0.23725791641368382","-0.5265031080877809","0.5979704025221638","0.0636242957201867","0.289868120652125","0.2968095622013519"
"0.10753634499786068","-0.48543354050204124","0.008760069983493032","0.21021511961927447","-0.5930315757573013","0.2170951502652227","0.054220221315102755","0.246602523511445","0.18965501595123"
"-0.2904364322189991","-0.2596293302571243","-0.11280322365827879","-0.16628821875088998","-0.41900771092708033","0.13839710451225978","0.05735325771933082","0.2466954406470459","0.16427698564193205"
"-0.5603544706106459","-0.17151586860877988","-0.10638639290885982","-0.4394204663744246","0.23840309909711832","-0.06499513210698828","0.06205529492187276","0.28680185517729745","0.26307095236376243"
"-0.11016444689337199","0.43777848546353587","0.40859992379173743","0.29391257569797147","0.1573821521925564","-0.4342257906643542","0.05735325771933082","0.3297042307879013","0.28817845544641296"
"-0.035306833762161025","0.2731985891115013","0.02492691856605712","-0.02323182370846442","0.06015701590708215","-0.16610902073163353","0.054220221315102755","0.35104983093911135","0.27885170725152386"
"0.43949620812036966","-0.27032035845834457","0.246949262495956","0.030786162888368294","-0.44057525876505527","-0.0468489735918168","0.04323721572690547","0.3538964740934279","0.1677680750905715"
"-0.5829948372414427","-0.2137817848853925","-0.6203923604671846","0.001106693406504019","0.026036926999386374","0.05979609704012672","0.04480621652521938","0.35091467874187376","0.1881864395780016"
"0.38729185476723976","-0.2921602170759507","-0.12212545277479595","0.054110575123546376","0.47119567893557784","-0.36591084096017923","0.047944218121847196","0.39707760111083423","0.2744846248785025"
"0.2877954371762038","-0.22763703427966916","0.11347918290803992","-0.08590350527950813","0.44631882481558555","-0.38619184165360615","0.05578425692101691","0.4680156106359083","0.3463289269267028"
"0.2336184322886136","0.17211855295714285","0.1813371680831463","-0.08326683259205322","0.5976340017105842","-0.5362130238164676","0.08086840892444037","0.5425182593631236","0.463196688838353"
"0.05039391623493839","0.21985116627367415","0.026638073432568868","0.16687903775623344","0.7907149061648359","-0.680605985691201","0.1106595633228055","0.595633072877492","0.5788277548567582"
"-0.056967321199369834","0.09305341744383623","0.20368912852695595","0.11617379376671588","0.4408413523487983","-0.3258340309774744","0.13104167812368694","0.6238798821001461","0.6324694392262589"
"0.007060048213236708","-0.0825002673011385","0.5805888124060272","-0.20401292027909104","0.2719526179561904","-0.10322821475392709","0.13731768131694252","0.6701779566663439","0.6415514246922768"
"-0.2668032932473302","0.37425169572379113","0.013519219455978821","-0.3780333176511153","-0.18667158712751977","0.08599643286417108","0.12790864171945887","0.7098789146048826","0.5878324468294481"
"0.29469327097317205","-0.010396418412555924","-0.19798665185681663","0.1681635706039679","-0.20584274076127526","0.5048136529255616","0.10595752612026348","0.610871483116029","0.5589246803248469"
"0.141019848494546","-0.09269309897409034","-0.11002259700019727","0.3162228830533592","-0.484623266518803","0.7274194691491089","0.08087337411684009","0.49332285956864497","0.4843493415123973"
"0.4040271599419404","0.19729767479125107","-0.10604772684152936","0.10745249180051884","-0.5722628259873996","0.7977722227507095","0.06832633292272865","0.37921217003849184","0.39574523366094994"
"0.48185019694848347","-0.287501406298089","-0.07296539942230229","0.34022336520839747","-0.5238784858641119","0.5462489988398836","0.05891729332524498","0.29900778799031624","0.27467785861182203"
"0.014937761203793016","-0.47008370152295925","0.019918225675538366","0.17316648801093362","-0.5526352163147452","0.1927385417769444","0.05265122051678889","0.2711579883470477","0.1707954035792441"
"-0.36529404535021004","-0.20827469353237102","-0.16255148649613593","-0.1869083513066271","-0.24338624996071306","0.15751364583572922","0.05891729332524498","0.26519439764393954","0.18402547318718773"
"-0.5435933791413771","-0.21563992328812348","0.04016689159592736","-0.40974099689256027","0.3471537503647908","-0.07993902735477654","0.06048629412355892","0.302175417613072","0.27368592544744846"
"-0.11115721923424401","0.4077251165150174","0.4867783117554928","0.30452687343977713","-0.004773855626292101","-0.4232604649305875","0.054220221315102755","0.32957752560299103","0.2339184231302897"
"-0.04416442594630531","0.3612447269046743","0.06660066937756191","-0.15094143157006265","-0.07038941121801476","-0.09740591790413947","0.05265122051678889","0.34503555816203907","0.24479104119173511"
"0.39024438549528784","-0.12587029480256232","0.16556245915749115","-0.06386362589206449","-0.4091939060907531","0.0568849486152329","0.04480621652521938","0.33857359373161733","0.16030925298443777"
"-0.5298106046947246","-0.3062309028067759","-0.3253250931730656","0.15721123790223207","-0.03330235805747587","-0.01307965186304852","0.04480621652521938","0.34472301870592725","0.16466345310857114"
"0.3311421983451895","-0.25836364177990173","-0.16855835305878647","-0.03756450600950138","0.4491716750587039","-0.3642611901860727","0.047944218121847196","0.39400288862367927","0.25775058357303143"
"0.28681555798261577","-0.07446179899367189","0.13265837703685907","-0.11362237199377774","0.4750755552662187","-0.44063031719912055","0.06048629412355892","0.47737490029461066","0.36168456760116124"
"0.15678816762294262","0.21449218740202974","0.13461907532140377","-0.0529112931903287","0.7019342065989921","-0.5409678995771275","0.08871341291600977","0.5611861566065641","0.47891303248167455"
"0.004094624337904544","0.15291778946225604","0.07918478745836705","0.16518886295658286","0.7236158684466918","-0.6482922381748795","0.1184996021219752","0.6050852796717952","0.5868405136650746"
"-0.058952865881113946","-8.240380029556441e-05","0.324040354138282","0.030110092968508056","0.45168218327264814","-0.27032813434283215","0.13731768131694252","0.6331040195616107","0.6449136916520366"
"-0.022503938509096502","0.030832710494416972","0.5479699227631472","-0.3202969464950513","0.12417497536265851","-0.14049091459256796","0.1388817169228567","0.7070745065122029","0.6129914789076506"
"-0.2214838805438844","0.4241656019478762","-0.0008830006704950362","-0.37140783243648506","-0.21771059777264767","0.11151750072240686","0.12633964092114497","0.7129113920304009","0.5702481770973712"
"0.26514217739812285","-0.10141827060430537","-0.3068232311789074","0.2599062587290017","-0.33673150991554635","0.5934096033231634","0.09811748732109377","0.6075687012960357","0.5263583551360626"
"0.08881549514141589","0.10954776196083227","-0.03095298254346704","0.2285366144474868","-0.47937402207146523","0.6728839553227647","0.07616637172189837","0.4962708668708896","0.44567683035071587"
"0.5153465935924527","0.18109955523700924","-0.17636549713724634","0.2525370966025251","-0.5873258752710646","0.8031093281963482","0.06205529492187273","0.3636612203438429","0.3500776613531016"
"0.3656184741827468","-0.42328015740779334","-0.049437020007765786","0.4039091516592315","-0.5480706559257557","0.436789818063876","0.055789222113416664","0.2896484983316139","0.22003135882905966"
"-0.057960093540241904","-0.4588002233962305","-0.008208882442748436","0.030448127928438175","-0.4950076414037539","0.26930174535165186","0.054220221315102755","0.25890137346006475","0.1419391660701947"
"-0.4687357660101661","-0.1847921328485824","-0.15909352770339344","-0.26668460185013476","-0.1578007426671618","0.20777947530556246","0.06519329651850057","0.2530644879418667","0.18528793357820866"
"-0.414558761122576","-0.08691671220038315","0.14636544049881253","-0.2720255542170306","0.34863723249121237","-0.23733511886070224","0.0636242957201867","0.30533460022350034","0.2522369810489809"
"-0.09440902091225933","0.4284743286788466","0.36539326341231587","0.18749917031197058","-0.039350400572886815","-0.28983282878962074","0.055789222113416664","0.338928368249366","0.23744815932559307"
"0.4552645272487665","0.42590255741129873","0.09217886972594058","-0.13099736893418576","-0.2716865243724474","0.03543948855184845","0.05108221971847498","0.3233774185547172","0.18307218676947806"
"-0.5908725502319989","-0.5188127078960274","-0.3510637142901798","0.07878712719844493","-0.45095963365000613","0.14043490840968545","0.05108221971847498","0.3141532810932524","0.1362838588083765"
"0.2188428855010891","-0.28199431494506744","-0.12271366226015935","-0.08029212494466818","0.254493174468306","-0.29633439360521696","0.047944218121847196","0.3601810512649753","0.1926050509465748"
"0.2592242227947426","-0.18871038121955855","0.007048915116981286","-0.08793171503908884","0.45909959390475585","-0.3535869792947954","0.05265122051678889","0.421759771131347","0.27818183030934945"
"0.3340947290732377","-0.053604868661568356","0.17028595957025794","-0.07691177534536701","0.4589854798950311","-0.5432968183170426","0.0636242957201867","0.5020570703151235","0.36821586778736126"
"0.13511478703844979","0.26961696001638213","0.12428084800289531","-0.1092279175146862","0.621369715733329","-0.5903603845194926","0.08557541131938202","0.573392089419583","0.4522725417813556"
"-0.01953851463376438","0.2040839193925294","0.06207323879324958","0.21684060483390474","0.7238440964661412","-0.6849727083285417","0.11379259972703352","0.61724053041085","0.5601227294714279"
"-0.07766082259027468","-0.037070129831469484","0.23621889552053862","0.12313731394127629","0.4270335571721054","-0.29371436002281254","0.13261067892200082","0.6392112094742837","0.6229881040447142"
"0.06221693229441485","-0.08870752674794273","0.5329081950318719","-0.29169918888496343","0.11253534637073555","-0.08993397028024532","0.13417967972031475","0.7069393543149656","0.591581181255847"
"-0.26975582397537834","0.44437622327033427","-0.03216505057391287","-0.40467047249360855","-0.17754246634954093","0.05969905875929692","0.12790864171945887","0.7252524770406573","0.5439812716148035"
"0.395169567757796","-0.01710187438762859","-0.11852489774317748","0.1878372052719007","-0.23243130502713852","0.5794360908836732","0.09654848652277985","0.607526466234399","0.5135533997414218"
"0.168598290535135","-0.05880227028080138","-0.08866881022851943","0.27849818152515815","-0.50961423464852","0.8417305639666061","0.07459737092358452","0.480846622361151","0.4299218399607303"
"0.5320818987671534","0.22934382985284332","-0.17007343809684378","0.10853420367229522","-0.5129235409305373","0.8186354531291151","0.0636242957201867","0.36062874291832475","0.33764629117621203"
"0.4660947709673709","-0.46271847176720665","-0.09715328644164015","0.4262870660066053","-0.5179445573584257","0.4489196031676004","0.05578425692101691","0.2866160209060957","0.20759998865217008"
"-0.14662626741267346","-0.48752058001235493","-0.0044479066423944915","0.1681635706039679","-0.6876320898191066","0.17711537856334758","0.054220221315102755","0.26197608594721966","0.095202367104645"
"-0.5465459098694253","-0.23352113922165063","-0.12620727011262087","-0.33767194343545937","-0.0051161976554663065","0.12403543894945028","0.06205529492187276","0.265278867767213","0.1671368448950611"
"-0.4243962325003084","-0.05783280676633304","0.057599281798515756","-0.4287385616406329","0.4742767571981456","-0.2809053069532797","0.06048629412355892","0.32979714792350207","0.26471988022142234"
"-0.025443576089860573","0.5623814766147858","0.35797825899076496","0.36855069485054126","0.17837912998190766","-0.42287231180726836","0.055789222113416664","0.3512694532596224","0.26563451989246817"
"-0.1456334950718014","0.14952466716161683","-0.020080019329173658","0.06242623513782726","-0.23813700551337527","-0.07081742895677591","0.05265122051678889","0.3541752255002304","0.22303292281995635"
"0.38729185476723976","-0.3352205548435861","0.25543373870907676","0.10684402887264464","-0.5932598037767508","-0.16872905431403798","0.04480621652521938","0.3631206115548926","0.14148828735911578"
"-0.47563359980713454","-0.13635935143826836","-0.3736652181520224","0.05113586747616135","0.11481762656523024","0.1061803952767682","0.04637521732353325","0.35710633877782033","0.15912408608674464"
"0.41191776607978065","-0.36236553324869947","-0.054641782726739","0.09480998429913248","0.47655903739264033","-0.38745333930439346","0.049513218920161105","0.4094186861210906","0.24376046128069767"
"0.2789249518447754","-0.16357165369855323","0.09385437553273335","-0.11531254679342832","0.4456341407572372","-0.40501726813458616","0.05892225851764473","0.47117479324633676","0.33664147576295045"
"0.2523392821450584","0.22912839351629483","0.13780966616625379","-0.06825808037115602","0.7577359573543875","-0.617045911747686","0.09028241371432372","0.570460976141993","0.4654382001448595"
"-0.0008305579246036693","0.27713030225351176","0.06250102750987752","0.09683819405871318","0.686871157315327","-0.7248554417495869","0.11536160052534743","0.6295900624334336","0.5513756824764973"
"-0.035306833762161025","0.13203392958808396","0.2661462811546346","0.06114170229009281","0.42121374267614387","-0.15067993407969632","0.13417967972031475","0.6363138842460032","0.6137644138409287"
"-0.04416442594630531","0.03391614306126766","0.6047232258357866","-0.241331979855376","0.0999828053010147","-0.05732910792143456","0.13261067892200082","0.6792753889428985","0.5938613393090174"
"-0.23725219967228103","0.2239175271260275","-0.08214503229994341","-0.28568216659820733","-0.28800482776308445","0.24436290717839476","0.11536160052534743","0.6786418630183474","0.5470214823523639"
"0.08979537433500391","0.1696275703158006","-0.09538865798554994","0.1791835102976897","-0.16795688953266322","0.4680361444910698","0.10282448971603544","0.5861893130955161","0.5312922564601544"
"0.19322420184767594","-0.1273514196163334","-0.14290885459096986","0.332921810073907","-0.5260466520488819","0.7406166753419609","0.07930437331852622","0.45024309669916673","0.44541918537295644"
"0.4325983743234016","0.14065138305002475","-0.029954808871335205","0.11245540920748458","-0.5965691100587681","0.7399374073761523","0.06676229731681449","0.34842281010530585","0.3472950955933004"
"0.4414688596548298","-0.31439055405355104","-0.023555802651775645","0.2942506106579016","-0.48736200275219665","0.4820096569305601","0.06205529492187276","0.27450300522867777","0.24285870385853986"
"-0.0028032094590637407","-0.3989089218357421","-0.004519204761832489","0.08615628932492148","-0.5844730250279463","0.1686730481311555","0.05891729332524498","0.2559195781085106","0.1380100801593643"
"-0.37417742382892244","-0.1249816199142997","-0.1466520058614643","-0.16561214883102976","-0.2605033514194234","0.10753893120838533","0.06205529492187276","0.25605473030574827","0.14687306739428663"
"-0.5475386822102973","-0.1966007370456481","0.005409058369907537","-0.403047904685944","0.375910480815424","-0.1161343061042897","0.06519329651850057","0.2991851752491905","0.23375095389474612"
"-0.10228673390281566","0.3305854432596132","0.4703619197548957","0.39653998953275504","0.06985670673368462","-0.5169024059313386","0.055789222113416664","0.3327367082134195","0.21272712370958155"
"0.09078814667587601","0.40298551711095","0.05357093805026936","-0.08860778495894905","0.08286570384230443","-0.09527107572588397","0.05108221971847498","0.33879321605212837","0.21552257171827072"
"0.26316952586366293","-0.2957149166290013","0.17023248598067944","-0.05994242035687514","-0.48074339018816203","0.24882666809656528","0.05265122051678889","0.3141532810932524","0.14591978097657696"
"-0.3121098128034919","-0.3290940840229875","-0.1178297410786571","0.18384839274472534","0.15064942561879707","-0.171543164458102","0.049513218920161105","0.3387002989165276","0.15622558008695173"
"0.3478775035198901","-0.2210392964728708","-0.1713211551870086","-0.08428093747184356","0.46742991661466154","-0.31050198260636686","0.05108221971847498","0.38486322128548806","0.24588603234721246"
"0.293713391779584","-0.06848344065445047","0.10326572729854794","-0.09259659748612445","0.42897349533742585","-0.392402291626713","0.05892225851764473","0.4435108278742699","0.3389860450605607"
"0.12821695324148147","0.1835636083362829","0.17345872588524847","-0.004910328880252072","0.7724566646088783","-0.6263615867073462","0.09184644932023787","0.5428307988192356","0.48909000910316963"
"-0.022491045361812477","0.1960993101691999","0.13142848447655373","0.09183527665174744","0.6374597911045167","-0.5759016806758533","0.11536160052534743","0.5988344905495571","0.5659970349643415"
"0.016910412738253087","0.021676666191104903","0.47021932351601975","-0.07589767046557666","0.33494355132424414","-0.14844805362061106","0.12477560531523081","0.6237447299029084","0.5982541861798147"
"-0.19586519689047133","0.3179824175715248","0.28814175100125444","-0.4644350534092533","-0.3115123137663799","0.11045007963327914","0.1106595633228055","0.6664359302053284","0.5301070895624613"
"-0.24808244339088545","0.17386897319159955","-0.16798796810328256","-0.09428677228577505","-0.28309792534492084","0.4930720209451566","0.09184644932023785","0.6135407390114711","0.4831255278680403"
"0.3803940209702714","-0.0351446675735671","-0.1977727574985027","0.13780803120224336","-0.354989751471504","0.690641960714617","0.06989533372104255","0.49916819209917024","0.42394447647671296"
"0.22376806776359726","0.10004163361062883","-0.011096456279987003","0.19851911000569242","-0.4057704857990111","0.8405661045966487","0.06676229731681449","0.3760952224897002","0.35770395269477895"
"0.5251969581174691","0.06877643526902495","-0.11214371605347742","0.304256445471833","-0.29439521230766963","0.6560963327392104","0.06833129811512839","0.2747226275491888","0.27288722601639437"
"0.23854361455112186","-0.5467790373342322","-0.01355624140059765","0.4229067164073041","-0.4969475795690744","0.2441688306167352","0.06205529492187276","0.23448950783402708","0.14448985135001244"
