"AccX","AccY","AccZ","GyroX","GyroY","GyroZ","MagX","MagY","MagZ"
"0.00336163779716772","-0.008302724024688481","-0.026277498245226162","0.001776158629877332","-0.0030580793647321473","0.0017091957472714463","-0.06339503119461161","-0.20937684392554304","0.7342718979024756"
"0.0033587493391683296","-0.00783322375606372","-0.02689913914743658","0.0011061811836340987","-0.002635901764218445","6.696904407603819e-07","-0.06322784824242698","-0.2086354161731975","0.7372137183328558"
"0.0036504835971057407","-0.008611223095001654","-0.026884682382268894","-0.0020765727171210458","-0.007263102290483712","0.0016766755069851805","-0.06322784824242698","-0.2086354161731975","0.7372137183328558"
"0.003653372055105131","-0.009158627169261054","-0.025953253655036677","-0.0011022701224980365","-0.007689587825696535","-0.0021827974875856153","-0.06487181393890744","-0.20954571003283884","0.7346477971796908"
"0.003505097877803597","-0.008301685307280019","-0.02627130248872573","9.298350519412362e-05","-0.004320543561279644","-0.0017265433701365116","-0.06503899689109206","-0.20751272041297322","0.733373008326526"
"0.0035070235164698636","-0.008613300529818577","-0.026116408576214827","-0.00025273987596113596","-0.007268846203415872","-0.0015345768771034046","-0.06671082641293677","-0.2097172146730611","0.7352361612657667"
"0.003505097877803597","-0.008300646589871558","-0.026892943390936144","-0.0005303968604367049","-0.003474513052313691","0.0012769677774965244","-0.06590277547737852","-0.21073832691561525","0.7358898991391847"
"0.003218177716531826","-0.008303762742096946","-0.025973906176704795","-7.915612318393378e-05","-0.005159154849374891","-0.0017321252024244528","-0.0660978222549271","-0.20933330813225584","0.7333566648796903"
"0.003651446416438865","-0.008845973229314035","-0.026265106732225287","-0.0002790229400255708","-0.0038978873013549267","0.0019142674117631979","-0.0644817203838106","-0.20938871732371228","0.734876605435387"
"0.003506060697136739","-0.0084574929185493","-0.026116408576214827","0.002122459660792249","-0.008117509339142397","0.0008161025812008605","-0.06506686071645633","-0.20978581652915002","0.7371646879923495"
"0.0035041350584704726","-0.007912166279106823","-0.026118473828381637","0.0011029078349960371","-0.006007817985101416","-2.3113768873075874e-05","-0.06392444387652914","-0.2102990111833536","0.7374098396948812"
"0.003649520777772616","-0.008300646589871558","-0.026265106732225287","0.0005554884127602239","-0.003477624338485277","0.0042753824695623095","-0.06239193348150479","-0.21227659161176274","0.7366253542467797"
"0.003218177716531826","-0.008302724024688481","-0.026283694001726598","0.0010675749246969615","-0.005580614460772073","0.004261063856301939","-0.06841051976014544","-0.21109716739361878","0.737295435567033"
"0.0036504835971057407","-0.008612261812410116","-0.026574894557247087","-0.0004625230136769004","-0.008110090118271691","0.002955885854365088","-0.06439812890771814","-0.2109032352235213","0.7355139998619693"
"0.0036504835971057407","-0.008612261812410116","-0.026265106732225287","-3.929828976753792e-05","-0.008953727330182577","0.0033786489780865446","-0.06409162682871344","-0.2108728920948666","0.7344680192645008"
"0.0035041350584704726","-0.008222742784236917","-0.026892943390936144","0.001091258564842936","-0.004321979539512684","0.0016999735895783263","-0.06253125260832515","-0.21188740800510447","0.7347131709670324"
"0.0033626006165008446","-0.00845853163595776","-0.02596771042020436","0.00161451297213306","-0.007693177771279134","0.0001768614400514249","-0.06512258836718422","-0.2112422867045761","0.7359062425860202"
"0.0037920180390753856","-0.008143800261193818","-0.02657076405291347","0.002462887919150645","-0.0106500962828136","0.000799357084337037","-0.06027428275383503","-0.2096024384907585","0.7356120605429821"
"0.0037198065890908763","-0.008143800261193818","-0.02688261713010208","-9.157559301657892e-05","-0.008324768864111142","-0.00046966035190836876","-0.06551268192228138","-0.21221062828860032","0.7350563833505769"
"0.0030679779005640603","-0.007058340569351174","-0.02598423243753886","-0.0025176083086198603","-0.0080959696656468","0.002535792302607429","-0.06590277547737852","-0.21351274428782635","0.7342065241151335"
"0.0037236578664233745","-0.00861433924722704","-0.025486506665337163","-0.0014617608229251428","-0.003053053440916508","-5.882895288561879e-06","-0.06333930354388341","-0.2123544283330944","0.7338633117315893"
"0.003216252077865577","-0.007991108802149923","-0.026595547078915215","-0.001647186395775332","-0.007680493296887281","0.0012490586160568186","-0.06161174637131049","-0.21311564508238864","0.7311666430037407"
"0.0033606749778345955","-0.007991108802149923","-0.02596977567237117","-0.00027449801690825065","-0.00684379664643609","0.0008270235574163975","-0.06336716736924736","-0.21496789519678924","0.7323924015163991"
"0.003503172239137348","-0.007679493579611364","-0.025963579915870734","-0.0007708917103742816","-0.007687912517757988","-0.0013190696131168064","-0.05874177235881069","-0.21356155714696656","0.734402645477159"
"0.00336163779716772","-0.008302724024688481","-0.02596771042020436","6.12127684129385e-05","-0.00431647495628603","0.0019142674117631979","-0.062921346163422","-0.21466446391024213","0.7332422607518424"
"0.003501246600471099","-0.007521608533525162","-0.02658315556591434","0.0009474237746881163","-0.0015842870382222934","-0.0014891941537188392","-0.060469329531383606","-0.2155747577698834","0.7354159391809567"
"0.003145003447214192","-0.007915282431332209","-0.025358461030994817","-0.0005349217835540252","-0.010632146554900603","0.0008010559028594539","-0.056094708949223415","-0.21472383090108826","0.7338469682847539"
"0.003505097877803597","-0.007914243713923746","-0.02503421644080533","-0.0006145411754268739","-0.009372314985113681","0.00016739659399795946","-0.054339287951286855","-0.21664072507218804","0.730741713386019"
"0.003506060697136739","-0.007993186236966847","-0.024724428615783528","-0.0011164225416096553","-0.0055794178122445404","-0.0008766487322073834","-0.06306066529024268","-0.2154243613930731","0.730921491301209"
"0.003359712158501471","-0.00768157101442829","-0.025350200022327567","-0.002067619145846348","-0.0038885534428401685","0.00042124861891910964","-0.06289348233805836","-0.2176301749196242","0.7321962801543739"
"0.0033587493391683296","-0.007602628491385188","-0.02565998784734937","5.4088421377157655e-05","-0.0034728377443751447","0.0025661283476505876","-0.06066437630893218","-0.21631618552222895","0.7324741187505763"
"0.003359712158501471","-0.007835301190880644","-0.026124669584882073","-0.0004626192886368434","-0.0045246918000768025","0.0029854938343272103","-0.05832381497834959","-0.21570536514974498","0.7337979379442474"
"0.0035070235164698636","-0.008303762742096946","-0.02503215118863852","0.001763739160044687","-0.007693417100984641","0.0025336081073643216","-0.05921545739000031","-0.21548240911745606","0.7320818760265255"
"0.0033568237005020805","-0.007213109463211989","-0.02550715918700528","0.001247127724990629","-0.0038974086419439145","0.0029937452385789495","-0.06030214657919898","-0.21794679887080382","0.7314281381531077"
"0.0033481583265039428","-0.007064572873801944","-0.02534606951799394","-0.0002986630318539397","-0.004970802371141169","0.002798381108501009","-0.05732071726524307","-0.21867239542559036","0.7318694112176648"
"0.003352009603836458","-0.007843610930148338","-0.02534400426582713","0.00040289260125059257","-0.007292061184850015","0.0008510497050905792","-0.058769636184174946","-0.21835577147441076","0.7328827049214626"
"0.003491618407139837","-0.007063534156393482","-0.025649661586515313","0.0011902292236643246","-0.001819787468440822","-0.0008198596558865903","-0.06428667360626203","-0.21904179003529986","0.7344189889239945"
"0.0033471955071708182","-0.006907726545124204","-0.02565585734301575","-0.002002633547884833","-0.0018059063455214367","0.0021785550361791946","-0.06353435032143198","-0.21904179003529986","0.73443533237083"
"0.0036389297651082293","-0.007840494777922953","-0.025951188402869866","-0.0020761876172812736","-0.004338493289192641","0.0008707074622785458","-0.059326912691456415","-0.22008401054126603","0.7294996114265251"
"0.0034945068651392104","-0.007840494777922953","-0.026422065896903","0.001033108489037373","-0.0018207447872628478","-0.0021090202260406533","-0.06189038462495122","-0.2202555151814883","0.7302840968746265"
"0.003352009603836458","-0.007842572212739877","-0.025498898178338034","0.0016316499150029115","-0.006033904923001638","-0.0025662450969311384","-0.05941050416754857","-0.21922648734015462","0.7341248068809563"
"0.00320566106520119","-0.007530956990201319","-0.026124669584882073","0.000923258759742427","-0.003289750519662569","0.00045231272904330393","-0.06294920998878625","-0.2171684316574873","0.7327683007936144"
"0.0033510467845033164","-0.007841533495331414","-0.02627336774089254","0.001712713431274905","-0.0035061045734405675","-0.0016923243113278288","-0.061026606038665075","-0.2183425788097783","0.7328173311341207"
"0.003420369776488452","-0.007374110661523579","-0.02627130248872573","0.002420912036615503","-0.007724290632994997","-0.00493197123357681","-0.06392444387652914","-0.21641644977343583","0.7356937777771593"
"0.003710178395759597","-0.00783945606051449","-0.02625891097572485","0.0014276432748837257","-0.007089109594580389","0.0012801227261810127","-0.06230834200541263","-0.21958268928523164","0.7357428081176656"
"0.003131523976550432","-0.0070624954389850204","-0.026595547078915215","-0.0002642928711542942","-0.003075071773823119","-0.0008293245019400559","-0.061778929323495116","-0.2183425788097783","0.7328009876872854"
"0.0033481583265039428","-0.007296206855888938","-0.02627543299305935","-0.0002782527403460268","-0.002234067188672806","0.0008886664009440957","-0.06512258836718422","-0.21768294557815418","0.7339777158594374"
"0.0032046982458680488","-0.007219341767662762","-0.026281628749559787","0.0005887032739405538","-0.0018145222149196756","-0.00039248545331857363","-0.06439812890771814","-0.21832938614514583","0.7331605435176651"
"0.0034213325958215766","-0.007606783361019035","-0.02673598422625843","-0.001466670845882235","-0.006024331734781374","-0.00042500569360483963","-0.06570772869982965","-0.2213636990106168","0.7348112316480452"
"0.0034964325038054594","-0.008153148717869974","-0.0259573841593703","0.0007815420187063531","-0.005190985700207273","-0.002990707039175012","-0.06342289501997557","-0.21974100126082144","0.7357101212239948"
"0.003422295415154701","-0.007684687166653675","-0.02658109031374753","0.0004087653738071147","-0.006029596988302519","0.00043168421841395613","-0.062280478180048685","-0.21828980815124832","0.7367887887151341"
"0.003491618407139837","-0.007216225615437375","-0.026888812886602515","0.0007415879103300142","-0.008137613034404953","0.0012752689589741073","-0.06155601872058259","-0.2192528726694196","0.7355466867556404"
"0.0034232582344878256","-0.007686764601470599","-0.02534193901366032","-0.0004284416778570836","-0.00855596135963055","-0.0021556163912269453","-0.06308852911560663","-0.21890986338897506","0.7354976564151339"
"0.00313537525388293","-0.007609899513244421","-0.02550922443917209","0.002718209112919441","-0.005611487992782429","0.00043605260890017104","-0.06236406965614053","-0.21825023015735093","0.7355303433088048"
"0.003491618407139837","-0.0070624954389850204","-0.025959449411537112","0.0004027000513307066","-0.006029596988302519","0.0008631841231078425","-0.06161174637131049","-0.21776210156594905","0.7355466867556404"
"0.0033471955071708182","-0.007063534156393482","-0.025965645168037548","-0.0005182662154838887","-0.0030769864114671723","-0.0012574267695891087","-0.06077583161038829","-0.2197673865900864","0.7359879598201975"
"0.0036389297651082293","-0.007685725884062137","-0.025486506665337163","-0.0009419723141929663","-0.0009725603109473363","-0.001459828862117062","-0.06319998441706304","-0.2177225235720516","0.7346641406265261"
"0.003420369776488452","-0.007218303050254299","-0.026116408576214827","0.00036072416879556513","-0.0077171107418297965","-0.004289089767022195","-0.060107099801650715","-0.21939799198037688","0.7347458578607033"
"0.0034213325958215766","-0.007529918272792857","-0.025961514663703923","-0.0010326633264592584","-0.006025767713014413","-0.001280724852182254","-0.05782226612179633","-0.21975419392545395","0.7348112316480452"
"0.003350083965170192","-0.007529918272792857","-0.026118473828381637","0.0017862675006713455","-0.0035053865843240476","-0.00040583331313756343","-0.056930623710145616","-0.22013678119979593","0.7365109501189318"
"0.0033491211458370673","-0.007606783361019035","-0.02658315556591434","-0.0006055876041521762","-0.003498206693158848","-0.0008351490225883423","-0.05785012994716028","-0.2177752942305815","0.735432282627792"
"0.0033491211458370673","-0.007529918272792857","-0.02627543299305935","-0.00033996498966948037","-0.0005501433807281269","-0.0016702396705364096","-0.0628098908619659","-0.21838215680367573","0.7344680192645008"
"0.0036389297651082293","-0.007840494777922953","-0.026260976227891666","-0.00026207854707560553","-0.007294933141316094","-0.001291403140037446","-0.057460036392063436","-0.21794679887080382","0.7354486260746276"
"0.0033510467845033164","-0.007686764601470599","-0.025963579915870734","-9.744836557310096e-05","-0.0049739136573127545","-0.00041723966607379087","-0.06161174637131049","-0.22070406577899265","0.7340757765404502"
"0.0034945068651392104","-0.007685725884062137","-0.0259573841593703","0.0009254730838211157","-0.005610770003665909","6.736899449392043e-06","-0.06456531185990276","-0.21956949662059919","0.7356774343303237"
"0.003350083965170192","-0.007453053184566681","-0.025653792090848934","0.0009418398270114232","-0.0018178728307967687","-0.0016782483864278034","-0.06501113306572781","-0.2203478638339157","0.7341901806682983"
"0.0033491211458370673","-0.0072972455732974","-0.025965645168037548","0.0013052778007961918","-0.0032952551028892227","-0.004257782968537656","-0.06267057173514552","-0.22024232251685577","0.7355139998619693"
"0.003420369776488452","-0.007218303050254299","-0.025961514663703923","-0.0024842008975196443","-0.005178540555520928","-0.0017017891573812944","-0.06356221414679593","-0.21902859737066738","0.7342228675619691"
"0.0037159553117583613","-0.008853244251173268","-0.02594499264636943","0.001136892895855911","-0.004774312682920222","-0.004275984595563552","-0.06420308213016987","-0.22021593718759083","0.7350563833505769"
"0.0033491211458370673","-0.007528879555384395","-0.02658522081808115","0.0016265473421259332","-0.003927085525426736","-0.0016940231298502456","-0.06353435032143198","-0.21822384482808593","0.7348602619885515"
"0.0034945068651392104","-0.007684687166653675","-0.0262671719843921","8.220070968050919e-05","-0.003923734909549644","-0.0012666489272822286","-0.065679864874466","-0.21859323943779543","0.7364782632252608"
"0.0034964325038054594","-0.007997341106600695","-0.0259573841593703","0.002498894754169321","-0.0018260100407839941","-0.0033940550940688473","-0.06364580562288809","-0.21931883599258203","0.7382270120366535"
"0.003493544045806086","-0.007993186236966847","-0.027816111109501114","0.0031709902495313","6.828457830101685e-05","-0.0014542470298291206","-0.06659937111148036","-0.21769613824278664","0.740041134635388"
"0.0034964325038054594","-0.008152110000461512","-0.026576959809413905","0.001128709524260757","-0.004771201396748636","-0.0034163824232206126","-0.06308852911560663","-0.21694415635873515","0.7363475156505771"
"0.003639892584441354","-0.008227936371279228","-0.02688055187793527","0.0023349384973864176","-0.004777423969091809","-0.004273315023599753","-0.06503899689109206","-0.21559850456622187","0.7362821418632354"
"0.003352009603836458","-0.008152110000461512","-0.02658315556591434","0.00283364278989108","-0.0039318721195368694","-0.002553382613832839","-0.06052505718211181","-0.21282408719401077","0.737033940417666"
"0.003783352665077231","-0.008227936371279228","-0.026874356121434833","0.004037753713897995","-0.0016237764396308885","-0.002965952826419794","-0.06545695427155317","-0.21312224141470487","0.7369031928429822"
"0.00342422105382095","-0.007997341106600695","-0.026114343324048016","0.00181351331433521","-0.00308703825909845","-0.0034032772517619673","-0.0669337370158493","-0.21180693275084636","0.7377040217379193"
"0.0037092155764264726","-0.0076836484492452135","-0.026723592713257555","0.00027523200436619435","-0.0051926610081458185","-0.0038456981326713915","-0.0698037110283491","-0.21119875091128892","0.7401391953164006"
"0.0031989213298693015","-0.006437395302572674","-0.027522845301813807","0.0007678709743944492","-0.003290468508779089","-0.001470749838332599","-0.0666272349368443","-0.2112831839649368","0.7423292171923507"
"0.003639892584441354","-0.008305840176913866","-0.027190339702957075","-0.0014575247246876517","-0.006870601573452832","-0.001291403140037446","-0.06554054574764533","-0.2134072029707665","0.7408909938708313"
"0.003500283781137975","-0.008931148056807907","-0.02642000064473619","-0.0004235316548999915","-0.00813641638587742","-0.0021592567166321243","-0.06698946466657751","-0.21374757371828457","0.7414793579569073"
"0.0034232582344878256","-0.008227936371279228","-0.02750838853664612","-0.0006287898694984357","-0.003919426974850523","0.0021562277070274302","-0.06935788982252374","-0.21303516982813053","0.7403680035720971"
"0.003783352665077231","-0.008304801459505405","-0.02718414394645664","-0.0007706991604543958","-0.006453210567049262","-0.0015025420135378288","-0.07019380458344625","-0.21283859912510653","0.7395018008898184"
"0.0034213325958215766","-0.00783841734310603","-0.027510453788812932","-0.0004299820772161714","-0.007713999455658211","-0.0015090945992671514","-0.06888420479133474","-0.2166803030660855","0.7399757608480462"
"0.0037111412150927386","-0.008226897653870767","-0.027341103111134347","-0.001796797683526731","-0.005185241787275113","-0.001493319855844709","-0.070165940758082","-0.21398899948105898","0.7390932147189321"
"0.003637966945775105","-0.007915282431332209","-0.027500127527978875","0.0002530887635793078","-0.007718546720062838","-0.0012952861538029702","-0.07052817048781519","-0.2143188160968711","0.7390768712720968"
"0.0036389297651082293","-0.007995263671783772","-0.026725657965424365","0.00041069087300597433","-0.004768329440282556","0.00043872218086396893","-0.07158699585164992","-0.21434915922552575","0.7403189732315907"
"0.0036370041264419633","-0.007915282431332209","-0.02780991535300068","8.903623183646121e-05","-0.0007664974345061239","-0.001460556927198098","-0.07286873181839748","-0.21362488193720247","0.7385865678670333"
"0.0036408554037744784","-0.008306878894322328","-0.02657076405291347","-0.000671632226673064","-0.00434567318035784","-0.0029860959603284524","-0.0689677962674269","-0.21468029510780112","0.7397469525923501"
"0.003350083965170192","-0.007917359866149132","-0.027202731215957943","0.0017059741840788959","-0.004770004748221103","-0.0008455846220831888","-0.06824333680796081","-0.2159903267058066","0.7389297802505777"
"0.003708252757093348","-0.00768157101442829","-0.02749806227581206","-0.0013606721149850083","0.0002906218747166791","-0.0020944589244199373","-0.06860556653769401","-0.21369216452682815","0.7399757608480462"
"0.003637966945775105","-0.008147955130827665","-0.027964809265511575","-0.000769351311015194","-0.008137373704699446","-0.0017282421886589282","-0.07002662163126162","-0.21503781631934135","0.7407765897429832"
"0.003785278303743497","-0.008616416682043963","-0.027491866519311625","0.0016231777185279287","-0.003932829438358896","-0.0008434004268400813","-0.0685498388869658","-0.21486895021204558","0.7404006904657678"
"0.003352009603836458","-0.008306878894322328","-0.027202731215957943","0.002316549980037307","-0.005615556597776042","-0.002138142829282086","-0.06732383057094614","-0.21573306974547318","0.7412832365948819"
"0.003210475161866813","-0.00854162902863471","-0.026742179982758865","-0.00023637313277082833","-0.005606701398672296","-0.0038524934067610582","-0.0666272349368443","-0.21489533554131054","0.7408746504239958"
"0.003352009603836458","-0.008306878894322328","-0.027202731215957943","0.0062508262181073925","-0.004153012767425","-0.0016988768970571508","-0.0681318815065047","-0.21177790888865491","0.7425089951075405"
"0.0036350784877757143","-0.007215186898028913","-0.027192404955123886","0.005930904526216854","5.6796752436697716e-05","-0.004233756820863474","-0.06846624741087363","-0.21080956730463066","0.7435386322581736"
"0.0034896927684735708","-0.006750880216446462","-0.026114343324048016","0.0009809274607482752","-0.003501796638741448","0.0034521835512711604","-0.07317523389740216","-0.20906549704021643","0.741724509659439"
"0.003639892584441354","-0.008304801459505405","-0.027500127527978875","-0.0019817418815772053","-0.0043401685971311875","0.00022515642376013333","-0.07083467256681987","-0.2109098315558375","0.7417898834467809"
"0.0035715324117893423","-0.009237569692304156","-0.028429491003044278","-0.0007082167114513982","-0.0005511006995501527","0.0021746720224136706","-0.07038885136099451","-0.21078450124182893","0.7430646722999457"
"0.003787203942409746","-0.00908280079844334","-0.027801654344333425","0.0002504893396608472","-0.005613881289837495","-0.00042985946081174477","-0.07038885136099451","-0.2114362188746736","0.7426560861290595"
"0.003714029673092112","-0.008849089381539419","-0.02780578484866705","-0.0012888509948675415","-0.0030800976976387584","-0.00041092976870481414","-0.06581918400128636","-0.21246524671600725","0.7427868337037431"
"0.0036447066811069765","-0.009163820756303363","-0.026723592713257555","7.960128576204867e-05","-0.008560747953740682","-0.0008785902390901454","-0.07027739605953841","-0.21246524671600725","0.7437184101733636"
"0.0034945068651392104","-0.00799422495437531","-0.027196535459457508","0.0010618947020603255","-0.0035025146278579674","0.004516372011385161","-0.07334241684958678","-0.21308925975312368","0.7429992985126038"
"0.003930664023045623","-0.00908280079844334","-0.02748567076281119","6.756691576917552e-05","-0.006035340901234678","0.0008520204585319602","-0.07002662163126162","-0.21159189231733685","0.7422474999581734"
"0.003497395323138584","-0.008617455399452424","-0.027349364119801593","0.001077780070450918","-0.0018185908199132884","0.003026265478865215","-0.06927429834643158","-0.21159716938318987","0.7422638434050088"
"0.003495469684472335","-0.008305840176913866","-0.027506323284479307","0.0004244581922778213","-0.0035039506060910077","-0.0008390320363538667","-0.0698594386790773","-0.21232144667151318","0.7443558045999459"
"0.003712104034425863","-0.008306878894322328","-0.026566633548579844","7.671303696375906e-05","-0.006665017356422633","-0.0006468228549604147","-0.06963652807616479","-0.21372910398779907","0.7414139841695656"
"0.003350083965170192","-0.007917359866149132","-0.027202731215957943","0.0014258140506448094","-0.001396652549105092","0.0021763708409360876","-0.0677139241260436","-0.21245205405137474","0.7427214599164013"
"0.0039316268423787645","-0.008930109339399445","-0.025936731637702184","0.003662666469960125","-0.006889029960776842","0.00042003517711738345","-0.06997089398053341","-0.21178450522097114","0.7430810157467811"
"0.0036350784877757143","-0.007216225615437375","-0.026727723217591183","0.00439204556648818","-0.004362665589448811","-0.004907459709181937","-0.07150340437555776","-0.2104573231589434","0.7434569150239965"
"0.0034174813184890615","-0.007675338709977517","-0.030920185116219565","-0.0016334190765034853","-0.0005479894133785666","0.00025330827356018416","-0.07311950624667427","-0.2103953176351707","0.7417408531062746"
"0.003641818223107603","-0.008926993187174059","-0.028117637925855667","-0.0033651167809979573","-0.00939146136155421","0.0016849269112369197","-0.06916284304497547","-0.2123003384081012","0.7435386322581736"
"0.003493544045806086","-0.007837378625697567","-0.027816111109501114","0.0005838895259434046","-0.0035037112763855","0.00044794433855708913","-0.06997089398053341","-0.21161827764660185","0.7430810157467811"
"0.0037111412150927386","-0.008459570353366223","-0.028115572673688853","0.0014213854024874319","-0.0009799795318180418","0.0030323326878738473","-0.07150340437555776","-0.21192698599900198","0.7426233992353887"
"0.0034174813184890615","-0.007059379286759635","-0.027512519040979743","4.1283851704740606e-05","-0.004762824857055903","0.0034410198866952784","-0.07061176196390735","-0.21363279753598197","0.7439145315353889"
"0.003785278303743497","-0.008694320487678603","-0.027182078694289822","-0.0009673889036179143","-0.010032386312900977","0.001254155071624069","-0.06802042620504828","-0.21494150986752425","0.7427214599164013"
"0.0037862411230766215","-0.008617455399452424","-0.02671739695675712","0.0009512747730858357","-0.0051952936349063915","-0.002565274343489758","-0.07367678275395573","-0.21457607305720447","0.7427868337037431"
"0.003636041307108839","-0.007680532297019828","-0.02796687451767839","0.0023601625368914795","-0.004352374412112027","0.002798381108501009","-0.07403901248368892","-0.21424757570785566","0.7429829550657685"
"0.0036389297651082293","-0.00799422495437531","-0.02688055187793527","-9.889248997224567e-05","-0.004767132791755023","1.0377224854571124e-05","-0.06946934512398016","-0.21364071313476146","0.7439472184290598"
"0.0036389297651082293","-0.008150032565644588","-0.027190339702957075","0.00024885266534181645","-0.006032947604179612","-0.0006419690877535091","-0.07169845115310633","-0.21446789320721812","0.7443067742594396"
"0.00392777556504625","-0.008536435441592398","-0.028107311665021607","0.0023795138038400195","-0.008992498742474651","0.0004057165638570125","-0.06707305614266966","-0.21338081764150155","0.7459084320493133"
"0.003495469684472335","-0.008304801459505405","-0.027816111109501114","0.002994325698035922","-0.0009842874665171614","-0.0008208304093279715","-0.0759058887830819","-0.2124454577190585","0.7441923701315915"
"0.003493544045806086","-0.007993186236966847","-0.027816111109501114","-0.0016148380092344892","-0.003077225741172678","-0.002548286158265589","-0.07133622142337344","-0.21363939386829817","0.7443231177062751"
