"AccX","AccY","AccZ","GyroX","GyroY","GyroZ","MagX","MagY","MagZ"
"0.0012829108569470604","0.004366169429576035","-0.0021867447697973947","-0.001543401988956794","-0.007378219878832404","0.0006998548565954772","0.11117183471132698","-0.17665639710405942","-0.5386538023231106"
"0.0009950278763421474","0.005066192252660737","-0.002347627913592052","-0.0009998335651187004","-0.004438772435799921","-0.0027931587138539642","0.10819040539737076","-0.17632394195532086","-0.5391441057281738"
"0.0011394507763111661","0.0052214805052257845","-0.0028044616928908674","0.0005464385665255834","-0.006079616896753405","0.0002574339756860538","0.10905418398365722","-0.17427116333850654","-0.5374607307041229"
"0.0012126250456288","0.005995948204974948","-0.0021805490132969594","-0.0018777649248387812","-0.003984285325042821","-0.0010319692828283545","0.1069086694306235","-0.1744360716464126","-0.5400756821977942"
"0.0011384879569780416","0.004600213236050661","-0.0024992174226360518","-0.0014403877818178002","-0.00786693113747695","-0.002375977422420448","0.10654643970089031","-0.1746088955530981","-0.5400756821977942"
"0.0009931022376758983","0.003825600115864314","-0.002817266256325103","-0.00014645232018408027","-0.004368648832086477","0.0002763636677929847","0.11145047296496771","-0.17304952259353862","-0.5387355195572877"
"0.0011384879569780416","0.004601023435629262","-0.002962246958435305","0.0015002345946807368","-0.0021833292911053992","0.001595374906269516","0.10465169957613307","-0.17446245697567755","-0.5375424479383001"
"0.001210699406962551","0.0049115480048889356","-0.003266458602606715","0.00019590143737317466","-0.005207260120181724","0.0011430038025859366","0.11142260913960376","-0.1723832930295983","-0.535744668786401"
"0.0011384879569780416","0.004601023435629262","-0.002962246958435305","0.0010635313763793562","-0.006919424833376185","0.0009075960930510265","0.11117183471132698","-0.17168408180407665","-0.5377058824066546"
"0.0012829108569470604","0.004833322196857673","-0.0031099124883623634","0.0031497134833839003","-0.0056100520145493885","0.0011211618501548622","0.10910991163438542","-0.17358778331054395","-0.5368396797243759"
"0.0009950278763421474","0.005379053936089449","-0.0037346512688229976","-5.44134584785865e-05","-0.006538890601620637","-0.0010576942490249529","0.10983437109385152","-0.17392683479159876","-0.5370358010864013"
"0.001137525137644917","0.004446659641557745","-0.003425896069884601","-0.0020662712964071464","-0.011679932005608648","0.00023632008833601565","0.11078174115623013","-0.1730759079228036","-0.5351072743598186"
"0.0012819480376139187","0.004212075702030718","-0.002804668218107548","-0.0022323456023087954","-0.008697644545290479","-0.000621825953844852","0.10752167358863318","-0.1725600747356735","-0.5377549127471609"
"0.0011384879569780416","0.004755387229700779","-0.002498391321769328","0.0007054848003513948","-0.006454407215576795","0.002888418490189103","0.10646284822479815","-0.17292815007891982","-0.5345515971674134"
"0.0011384879569780416","0.004600213236050661","-0.0024992174226360518","0.0026169278550594206","-0.008590664166929012","0.002423184903407225","0.10824613304809896","-0.17289912621672832","-0.5377222258534899"
"0.001427333756916062","0.004910717030962165","-0.003412884981233685","0.0016864303672104698","-0.004166893890344384","-0.001056723495583572","0.10682507795453135","-0.17222234252108198","-0.5373463265762748"
"0.001283873676280185","0.005529979575538958","-0.0021805490132969594","9.808607807110184e-05","-0.007328199970381517","0.002445026855838299","0.10766099271545355","-0.17376588428308246","-0.5368560231712114"
"0.0009950278763421474","0.0052210650182624","-0.0021925274758644695","0.002614232156181017","-0.008366651562574802","0.0028648777192356125","0.1093606860626619","-0.17291363814782407","-0.5346986881889323"
"0.0014995452069005715","0.0049103534798692035","-0.0034102001534168326","0.0005338265467730523","-0.006676744511992458","0.002664174445230076","0.1104473752518612","-0.17391759992635603","-0.5380981251307053"
"0.0011394507763111661","0.005297930106488578","-0.0021869512950140773","-0.0006728838011523229","-0.0078073380408057984","0.00025330827356018416","0.10752167358863318","-0.17238857009545128","-0.5377549127471609"
"0.0011384879569780416","0.004832709353586679","-0.0023437039344751066","-0.0001373061989894968","-0.006992659723261215","-0.0021587713399114335","0.1072708991603564","-0.17188065250710066","-0.536692588702857"
"0.0014263709375829374","0.004132935822680009","-0.0023370951275413104","-0.0003187844984820237","-0.004811648116979257","-0.00016994022688196308","0.10604489084433705","-0.1717091478668784","-0.5375751348319708"
"0.0012829108569470604","0.004599475746690653","-0.0024940542922190223","0.0007317678644158296","-0.006123174903155612","-0.0019401091272403474","0.11103251558450661","-0.17204160301561697","-0.5357610122332364"
"0.001210699406962551","0.00491182845858922","-0.0034207329394675716","0.0019121951482767698","-0.005755564475497422","0.005079651695746527","0.10660216735161852","-0.17272630231004282","-0.539258509856022"
"0.0012819480376139187","0.0046010961458478545","-0.0034197003133841657","-0.0007680034615759922","-0.00820175339548073","0.0020060036119737092","0.1064907120501624","-0.1741115320964535","-0.5375261044914645"
"0.0011384879569780416","0.004910561223350897","-0.002497565220902603","-0.001029004877981425","-0.00842289404336886","0.0017880694643836587","0.10877554573001648","-0.17273421790882232","-0.5364310935534897"
"0.0012819480376139187","0.004446192218723937","-0.0035748007511117483","0.002104359968322968","-0.004314560318641978","0.002014740392946139","0.10827399687346323","-0.1722144269223025","-0.5375261044914645"
"0.001137525137644917","0.004368527318093243","-0.0031177604465962502","0.0014243699262456644","-0.003948385869216827","-0.0008302952553814367","0.1072708991603564","-0.1734255135355644","-0.5368723666180468"
"0.0011384879569780416","0.004754847096648378","-0.0021898426480476125","0.0005331526220534515","-0.006894055884592482","0.002447453739441752","0.11039164760113299","-0.17187669470771094","-0.5351399612534895"
"0.0009940650570090229","0.004756124719060787","-0.002503760977403038","0.0019266363922682175","-0.007322216727743851","0.0017790899950508835","0.11069814968013766","-0.1735864640440807","-0.5359571335952618"
"0.0012829108569470604","0.00506608838091989","-0.0031086733370622776","0.0017798170783551654","-0.006131072783437332","-0.0028251935774195394","0.1075774012393614","-0.17359042184347045","-0.5375097610446292"
"0.000995990695675289","0.0058423219002634395","-0.0024977717461192855","0.0010514007314265403","-0.005583486417238152","0.0033318101245399085","0.10933282223729796","-0.17254952060396755","-0.5379346906623509"
"0.0011384879569780416","0.005066815483105814","-0.003113836467479309","0.0010581399786225494","-0.008622255688055887","0.0015541178850108203","0.10983437109385152","-0.17392683479159876","-0.5370358010864013"
"0.0011384879569780416","0.004601833635207862","-0.0034248634438011952","-0.0010103275357524859","-0.006548703119546409","-0.0010525977934577027","0.10651857587552636","-0.17464583501406905","-0.5345025668269071"
"0.0011394507763111661","0.005221688248707477","-0.0029587360297517245","0.0002086097320856487","-0.003964181629780265","-0.001043375635764582","0.11147833679033196","-0.1746141726189511","-0.5356956384458945"
"0.0011394507763111661","0.005454257076462087","-0.0028032225415907815","-0.0010384398240558372","-0.007739607734147422","0.0037679211080803546","0.11086533263232229","-0.17408910456657828","-0.5376568520661481"
"0.0012829108569470604","0.00506608838091989","-0.0031086733370622776","-0.002233597176788054","-0.006968248093299539","4.750854398739699e-05","0.10933282223729796","-0.1732553281618054","-0.535123617806654"
"0.001210699406962551","0.004676891355143316","-0.0021877773958808005","0.00019214671393539824","-0.009292378863474464","0.0006765567740023314","0.10927709458657005","-0.17409042383304155","-0.5387518630041231"
"0.0011384879569780416","0.004911381810103581","-0.0029603882314851756","0.0007209850689022153","-0.0075883513602672285","-0.00019275293275441814","0.11370744281945815","-0.17355744018188926","-0.5382615595990597"
"0.001210699406962551","0.004988911677471175","-0.003111771215312495","0.0003780536615853025","-0.007823851790485756","-0.0010710421088439425","0.1085247713017397","-0.1725508398704308","-0.5383759637269079"
"0.0011394507763111661","0.005220961146521553","-0.0024959130191691513","1.6830011879222324e-05","-0.007778618476145002","0.0013468620252759615","0.11236997920198237","-0.17254160500518806","-0.5370194576395658"
"0.0011384879569780416","0.004756467495805579","-0.003115488669212756","0.0005309382979747628","-0.00860502394925941","0.0026554376642576464","0.11287152805853563","-0.1746220882177306","-0.5335219600167802"
"0.0012829108569470604","0.004600015879743054","-0.002802602965940736","0.0009840082594664507","-0.007595770581137933","-0.0006346884369431514","0.11053096672795334","-0.17289384915087536","-0.5370358010864013"
"0.0009228164263576551","0.005222623094375093","-0.002812309651124754","0.0007178079952240968","-0.006067650411478075","0.000697913349712715","0.11117183471132698","-0.17494266996829994","-0.5382615595990597"
"0.0012819480376139187","0.004133943378566217","-0.002496532594819197","0.0010563107543836324","-0.0038780229357978768","0.002902737103449474","0.10459597192540518","-0.17445981844275105","-0.5379673775560216"
"0.0011384879569780416","0.004600213236050661","-0.0024992174226360518","0.0034980362884576206","-0.004319107583046604","0.0011296559427669468","0.10958359666557474","-0.17513396360547093","-0.5363657197661479"
"0.0011394507763111661","0.005532057010355881","-0.0029570838280182756","0.002788201008797991","-0.0051304352847140935","0.003761853899071723","0.10908204780902117","-0.17530151044630346","-0.5374443872572874"
"0.0011394507763111661","0.005611311148621521","-0.003882316798750056","-6.635155351151673e-05","-0.006924929416602838","0.0011330535798117806","0.11075387733086588","-0.1753028297127667","-0.5359081032547555"
"0.0010672393263266569","0.005221272761744093","-0.0024985978469860086","-0.0015365664668008422","-0.009556838188059295","-0.001069343290321526","0.10629566527261353","-0.1741022972312108","-0.5390133581534903"
"0.0011394507763111661","0.004910021090298496","-0.002189016547180889","-0.0012009519564395962","-0.005631591688044986","0.002027602876044438","0.11011300934749225","-0.17375005308552346","-0.5376731955129836"
"0.0012819480376139187","0.004600556012795454","-0.003111151639662452","-0.000516822091084744","-0.009026962220067608","0.003535425658869587","0.1122863877258899","-0.17493739290244692","-0.5382452161522244"
"0.0011384879569780416","0.0047551171631745786","-0.0023441169849084693","-0.00040774256146934183","-0.008251294644520606","-0.0006288639162948645","0.11111610706059877","-0.17393079259098848","-0.5354995170838693"
"0.0009950278763421474","0.005066192252660737","-0.002347627913592052","1.9044335957911023e-05","-0.008648821285367125","0.0006840801131730347","0.10944427753875437","-0.17427116333850654","-0.537248265895262"
"0.0012829108569470604","0.0047562805266720565","-0.0034188742125174426","0.000723006843061018","-0.010395210146449035","-0.0010911852427525996","0.10353714656157015","-0.17532393797617865","-0.5379673775560216"
"0.0011384879569780416","0.004910561223350897","-0.002497565220902603","1.7889036438595215e-05","-0.004981332878183461","0.0018050576496078273","0.10785603949300213","-0.1746141726189511","-0.538343276833237"
"0.001210699406962551","0.004910197672257935","-0.002495086918302428","0.0007107799231482589","-0.006906022369867814","0.0017868560225819323","0.10520897608341485","-0.17342155573617465","-0.5388499236851358"
"0.0012829108569470604","0.004909834121164973","-0.0024924020904855734","0.0014004937361798042","-0.0036473090996894807","0.003559937183264459","0.10387151246593908","-0.17309305838682584","-0.5375914782788064"
"0.0009950278763421474","0.005222207607411707","-0.0028096248233078994","0.001059391553101808","-0.007119983126590745","0.001565766926307393","0.10674148647843888","-0.17547565361945222","-0.5387682064509587"
"0.000995990695675289","0.005687968493366006","-0.0029614208575685814","0.0017624875855654283","-0.010375106451186479","-0.0006560450126535349","0.11270434510635131","-0.1747672075286879","-0.5378202865345028"
"0.0011394507763111661","0.005531226036429112","-0.002494260817435705","-0.0011908430856455827","-0.005237654992781066","0.0002736940958291868","0.11315016631217636","-0.17577776563953607","-0.5403535207939968"
"0.0011394507763111661","0.0049878729600627125","-0.002342877833608383","-0.0011219102143264052","-0.006462305095858514","0.0033386053986295752","0.11250929832880274","-0.17529095631459746","-0.5365291542345025"
"0.0012829108569470604","0.00467678748340247","-0.0023393669049248025","0.002278521370859828","-0.004751576360897091","0.0015715914469556795","0.1089427286822008","-0.1763226226888576","-0.5389152974724776"
"0.0011394507763111661","0.005065776765697352","-0.0024967391200358792","0.0034158174726663113","-0.005200080229016525","2.615196827701353e-05","0.1088870010314729","-0.17683449807659793","-0.5393402270901992"
"0.0011404135956442907","0.005687033647698391","-0.0028019833902906952","0.001059199003181922","-0.007335619191252222","0.0015623692892625593","0.10897059250756506","-0.1770086412497467","-0.5388989540256421"
"0.0011394507763111661","0.005531226036429112","-0.002494260817435705","0.0007049071505917368","-0.007745830306490594","0.0026595633663835157","0.11376317047018604","-0.1783608893745762","-0.538784549897794"
"0.001283873676280185","0.0053751068099372945","-0.002335649451024542","0.0020390855454816242","-0.006558276307766674","-0.0028300473446264446","0.11025232847431261","-0.1763278997547106","-0.5371828921079203"
"0.0011404135956442907","0.005842218028522592","-0.0028011572894239673","0.00037420266318758305","-0.005656721307123183","4.119864661842024e-05","0.10955573284021078","-0.17718938075521173","-0.5371828921079203"
"0.000995990695675289","0.005997298537605948","-0.0023426713083917004","-0.0017246877385294352","-0.00950538230137537","0.0015662523030280837","0.11033591995040477","-0.17753107076919303","-0.5367252755965277"
"0.001283873676280185","0.0049863148839500195","-0.0018748916926087807","-0.002582882731461204","-0.00826373978920695","-0.00017819163113370223","0.10933282223729796","-0.17717882662350576","-0.5388989540256421"
"0.0009950278763421474","0.00537739198823591","-0.0028087987224411715","-0.0021326047438078627","-0.007451933428128447","-0.002806991950393645","0.1096671881416669","-0.17546246095481977","-0.5387191761104522"
"0.0012829108569470604","0.004987976831803558","-0.002800537713773924","-0.0036083073298139377","-0.004455525515185385","-0.0023412729868910755","0.10869195425392432","-0.17528172144935475","-0.5406640462838703"
"0.0011384879569780416","0.004211182405059441","-0.0018841853273594336","-0.003613698727570745","-0.010041002182299216","-0.002815728731366074","0.11178483886933696","-0.17356271724774225","-0.5389316409193131"
"0.0011384879569780416","0.004678345559515163","-0.0028073530459244047","2.6264957953634946e-05","-0.009104983704062769","-0.000637358008906949","0.11370744281945815","-0.17597697487548658","-0.5358427294674136"
"0.0011394507763111661","0.004988184575285251","-0.0024971521704692397","0.0016827719187326366","-0.006095891316727857","-0.0010664310299973825","0.10885913720610896","-0.17426060920680056","-0.5391767926218448"
"0.0012829108569470604","0.004755189873393171","-0.0028017768650740126","0.0003824823097426797","-0.007842280177809767","-0.0019498166616541577","0.10858049895246821","-0.17461021481956135","-0.5385393981952623"
"0.0011384879569780416","0.0046007533691030614","-0.0028077660963577653","0.0007205999690624434","-0.007802790776401173","-0.00019372368619579935","0.10927709458657005","-0.17169067813639294","-0.5381634989180469"
"0.0011384879569780416","0.0046772549062362775","-0.002190255698480975","0.0017519936149316426","-0.010770479124683438","0.0010968930141203356","0.11028019229967657","-0.17185162864490922","-0.5389970147066547"
"0.0011384879569780416","0.004366896531761959","-0.002191907900214424","0.0028059156014275002","-0.007355244227103767","-0.00020343122060961007","0.10479101870295375","-0.17136481931997063","-0.5386864892167813"
"0.0012829108569470604","0.004832782063805273","-0.00280136381464065","0.003153757031701506","-0.007781729762316588","-0.00021046918305962274","0.10587770789215242","-0.17427380187143304","-0.5394546312180474"
"0.0011355994989786682","0.004903082458009971","-0.0021578312394620273","0.0033231046862412165","-0.006488631363464243","-0.0006344457485828059","0.1088870010314729","-0.17291759594721381","-0.5382615595990597"
"0.0011355994989786682","0.004903082458009971","-0.0021578312394620273","0.002964961835253312","-0.007528997593301583","0.0011167934596686476","0.10977864344312331","-0.1741022972312108","-0.5403698642408323"
"0.0009911765990096495","0.004981640655611941","-0.0023170621815232335","0.0015878448082288531","-0.004358357654749691","-0.0006077500289448267","0.11362385134336568","-0.1740943816324313","-0.5388008933446294"
"0.0012800223989476698","0.005213274637698936","-0.0024595645810332628","0.0005286276989361311","-0.008615793786007209","0.0015616412241815237","0.11147833679033196","-0.17479227359148963","-0.538604771982604"
"0.0012790595796145453","0.004746080321720961","-0.0015363968624682914","0.0015843789096709057","-0.00865983045182043","-0.0010788081363749913","0.10710371620817208","-0.1741273632940125","-0.5382779030458952"
"0.00091896514902514","0.0050599599482099656","-0.0024734017705509022","0.0005312271228545917","-0.008193137526082493","0.0011296559427669468","0.10832972452419112","-0.17308118498865663","-0.539993964963617"
"0.0012780967602814208","0.004125644026472607","-0.0016939756027960487","-0.001205573154516859","-0.006924929416602838","0.0011459160629100798","0.11028019229967657","-0.17204951861439646","-0.5386864892167813"
"0.0012790595796145453","0.00435758962378214","-0.0012299134409133896","0.00027812025316448387","-0.0069383318801112094","-0.00018061851473715482","0.10947214136411863","-0.172392527894841","-0.5393402270901992"
"0.0011346366796455266","0.004281555509482732","-0.001698519157563035","0.0008967831457581061","-0.009339287485753765","-0.0026135693271984667","0.10919350311047758","-0.17154028175958264","-0.5385067113015914"
"0.001133673860312402","0.004048789325420514","-0.001699758308863121","0.0006298126818362085","-0.007809252678449852","-0.001064974899835311","0.10702012473207993","-0.17275136837284452","-0.5387355195572877"
"0.0011346366796455266","0.004281285442956532","-0.001544244820702178","0.0005387365697301445","-0.00520965341723679","0.00027005377042400776","0.10175386173826932","-0.17122761560779282","-0.5392911967496927"
"0.0013512710295990546","0.00443589852920608","-0.001844119435323282","0.00036698204119185913","-0.00780446608433972","-0.0006269224094121026","0.10688080560525925","-0.1708595402645465","-0.5394219443243764"
"0.0012780967602814208","0.004125363572772322","-0.0015397012659351917","0.0008834009263260313","-0.007781729762316588","0.00024918257143431466","0.10866409042856007","-0.17325005109595237","-0.5401900863256424"
"0.0011346366796455266","0.004281825576008932","-0.001852793494423892","0.0029665022346123996","-0.006027682350658466","0.0011274717475238392","0.10724303533499245","-0.17120123027852782","-0.5394056008775411"
"0.0011355994989786682","0.004902531937783486","-0.0018492825657403114","0.0015659903923217955","-0.00858803154016844","0.0024353193214244877","0.10780031184227391","-0.1717223405315109","-0.5380981251307053"
"0.0011346366796455266","0.004360498032525834","-0.002469477791433961","0.00018935474009705163","-0.0075718376105872705","0.0002562205338843275","0.10958359666557474","-0.17222630032047173","-0.538490367854756"
"0.0013512710295990546","0.004358306338793979","-0.0018445324857566446","0.0010736402471733697","-0.006117191660517948","-0.002375977422420448","0.10819040539737076","-0.17035030340973267","-0.5374770741509582"
"0.0012800223989476698","0.005056947667725426","-0.0018432933344565562","-0.0006675886783554586","-0.00870673907409973","-0.0023825300081497702","0.10674148647843888","-0.17104423756940126","-0.5374934175977937"
"0.0012780967602814208","0.004204046416463308","-0.002156385562945259","0.0015726333645578615","-0.006457039842337368","0.001790253659626766","0.10749380976326893","-0.17224081225156748","-0.5376731955129836"
"0.0012068481296300358","0.004435545365287203","-0.0012321852182968817","0.0010669009999773606","-0.004155166734774559","-0.0008244707347331504","0.10958359666557474","-0.17136877711936033","-0.5382942464927307"
"0.0012780967602814208","0.0043597605431658255","-0.002464108135800249","0.0010576586038228341","-0.008208454627234917","0.0002448141809480999","0.10961146049093899","-0.17359833744224995","-0.5386701457699459"
"0.0014225196602504395","0.0043590230538058175","-0.0024589450053832175","0.000361783193354938","-0.006919903492787199","0.0006952437777489171","0.1089427286822008","-0.17169991300163565","-0.540647702837035"
"0.0011346366796455266","0.0047473579441333685","-0.001850108666607037","2.2317684595972532e-05","-0.005231911079848907","-0.0006053231453413737","0.11083746880695804","-0.1734281520684909","-0.5375751348319708"
"0.0012790595796145453","0.004669578784587744","-0.002153907260345084","0.00020591403320724508","-0.005266374557441862","-0.0023643283811238757","0.10938854988802615","-0.1727500491063813","-0.5371828921079203"
"0.0012068481296300358","0.004281181571215685","-0.00169583432974618","0.0006383811532711341","-0.006549181778957421","-0.002374521292258377","0.10975077961775936","-0.170670885160302","-0.5398141870484272"
"0.0011346366796455266","0.004282365709061332","-0.0021613421681456056","0.0009835268846667357","-0.006965376136833459","-0.0019396237505196563","0.10699226090671567","-0.17206534981195543","-0.5387518630041231"
"0.0012790595796145453","0.004592256660701844","-0.002308594647639304","0.0003560066957583589","-0.00560574407985027","0.0020225064204771872","0.11203561329761344","-0.1725706288673795","-0.5364964673408315"
"0.0011346366796455266","0.004438090222937934","-0.002469064741000596","-0.0008559987749638807","-0.003908417808397219","0.001604354375602291","0.11359598751800172","-0.17325268962887885","-0.5360225073826035"
"0.0012068481296300358","0.004359583961206386","-0.0021582442898953878","1.1438614122415276e-05","-0.006912962931327506","0.0011388781004600668","0.10793963096909429","-0.17256667106798979","-0.5400103084104526"
"0.0012780967602814208","0.004281628219701324","-0.0021559725125118957","0.0016557186549886575","-0.008596886739272185","0.0019945972590374814","0.11220279624979806","-0.17290176474965482","-0.5382125292585532"
"0.0012780967602814208","0.004437892866630326","-0.0027722437590886","0.00027407670484687856","-0.005838133223897212","0.001143489179306627","0.11200774947224917","-0.1727394949746753","-0.5369213969585531"
"0.0012780967602814208","0.004126724292577407","-0.002311072950239478","-0.000858309374002512","-0.007779336465261522","0.0011379073470186858","0.11189629417079307","-0.17187801397417415","-0.5375914782788064"
"0.0012780967602814208","0.004126454226051207","-0.0021567986133786215","0.00035985769415607826","-0.008206061330179851","0.0006884485036592496","0.11114397088596302","-0.17153764322665613","-0.5376241651724774"
"0.0012780967602814208","0.00436085119644471","-0.003081205483243679","0.00103946263639361","-0.0064127638468186405","0.0042081577937466705","0.10897059250756506","-0.17154819735836213","-0.5374443872572874"
"0.0013512710295990546","0.004592163176135082","-0.002460390681899986","0.0007150160213857502","-0.006076026951170806","-0.00017867700785439262","0.11005728169676404","-0.17154423955897236","-0.537428043810452"
"0.0011346366796455266","0.004592724083535652","-0.002159689966412159","-0.0010328558763791442","-0.005192900337851325","0.0018162213141837097","0.1089427286822008","-0.17206139201256568","-0.5378529734281736"
"0.0014225196602504395","0.004436615244217919","-0.002458531954949857","0.0010606431275810668","-0.0077893883128928015","-0.00019323830947510874","0.1128993918838999","-0.17137273491875007","-0.5352216784876668"
"0.0012068481296300358","0.00459290066549509","-0.0024655538123170154","0.0017566148130089062","-0.006923493438369798","-0.00018935529570958436","0.11292725570926385","-0.17152708909495015","-0.538016407896528"
"0.0011346366796455266","0.004669765753721268","-0.0018505217170403975","0.0020826981023357965","-0.008565773877556321","0.0033104535488295245","0.1075774012393614","-0.17136877711936033","-0.5398305304952625"
"0.0012790595796145453","0.004747711108052246","-0.0024620428836334375","0.0003751654127870129","-0.0035221396637095115","-0.0010365803616749145","0.10732662681108461","-0.17362472277151486","-0.5363493763193126"
"0.000990213779676525","0.004749175699598177","-0.0024725756696841786","-8.26220217418812e-05","-0.009039407364753952","0.0020052755468926734","0.11039164760113299","-0.172567990334453","-0.5380327513433635"
"0.0012790595796145453","0.004747160587825761","-0.0021534942099117214","-0.00138329673057161","-0.0086335041842147","0.001573775642198787","0.10983437109385152","-0.17120782661084402","-0.5363657197661479"
"0.0012790595796145453","0.004669578784587744","-0.002153907260345084","-0.0003270641450371203","-0.009105941022884796","-0.0010700713554025617","0.10927709458657005","-0.17259305639725472","-0.5350582440193123"
"0.0012780967602814208","0.004282168352753724","-0.0024645211862336096","0.0006353966295129016","-0.007827441736068357","-0.0019449628944472525","0.10977864344312331","-0.17086349806393625","-0.5365781845750086"
"0.0012780967602814208","0.0042818982862275244","-0.002310246849372753","-0.0003219615721601422","-0.005030156138106814","-0.0010421621939628557","0.10370432951375477","-0.17156534782238433","-0.538604771982604"
"0.0011346366796455266","0.004280734922730047","-0.001235696146980462","-0.0004967968994166031","-0.004816913370500403","-0.0010377938034766413","0.10749380976326893","-0.17189780297112292","-0.5376731955129836"
