"AccX","AccY","AccZ","GyroX","GyroY","GyroZ","MagX","MagY","MagZ"
"0.0030795317325615712","-0.0064958750926690755","-0.02423289860008227","0.001867427291903282","-0.005568408645791235","-0.0015154044966361282","-0.05450647090347117","-0.22941122443643125","0.7268192861455117"
"0.00322395463253059","-0.006495667349187382","-0.024071808931070932","0.002265427976307582","-0.008518625925571515","0.0016759474419041447","-0.05673557693259735","-0.22991254569246566","0.7271788419758916"
"0.00293029473592693","-0.005251491637331767","-0.023621583958705915","0.0037147512232892804","-0.005990825576010444","0.0021288039223084144","-0.051385722462694586","-0.22995212368636306","0.7275383978062716"
"0.003071829177896558","-0.004783133957856314","-0.023772347366883193","0.0028532828817194487","-0.00725328977255794","0.0025498682275074546","-0.054812972982476164","-0.23091518820453433","0.7270317509543727"
"0.0027858718359579115","-0.005173899446919665","-0.02378267362771725","0.0004571916786584362","-0.0030288811406603377","0.003006122344956558","-0.05375414761864113","-0.23123181215571392","0.7257896489948786"
"0.0030785689132284467","-0.006030425821937316","-0.02330353512501686","-0.00012026553107958836","-0.005770881576649847","0.0004127545263070253","-0.05155290541487921","-0.23005766500342295","0.7254137497176636"
"0.0029274062779275564","-0.004627326346587035","-0.02408833094840543","0.0002052401084876442","-8.057849852411075e-05","0.002600832783179961","-0.056122572774587674","-0.2310075368569617","0.7244494863543721"
"0.002788760293957302","-0.0057194338298438355","-0.02362777971520635","-0.001134811058958765","-0.00850402681353561","-0.001318341548035771","-0.05456219855419907","-0.23203656469829537","0.7249234463126001"
"0.0030737548165628245","-0.005249621945996536","-0.024234963852249082","0.00013688488692812481","-0.004297089250139993","0.0004263450744863603","-0.05132999481196638","-0.23212891335072272","0.7275547412531069"
"0.0028609717439418113","-0.00556435332076048","-0.023158967473340022","0.0012582956203440153","-0.0064051052962424285","-0.0008737364718832398","-0.055203066537573","-0.23223445466778259","0.726165548272094"
"0.0032191405358649506","-0.005406676018155968","-0.02329940462068324","0.0017752921552378453","-0.006411327868585601","-0.0013015960511719472","-0.056122572774587674","-0.23216849134462017","0.7242370215455112"
"0.0027858718359579115","-0.004940811260460825","-0.023472885802695447","0.00014439433380367762","-0.0040831284934170625","-0.0006405129575914373","-0.05294609668308288","-0.23289408789940672","0.7255935276328535"
"0.0030756804552290735","-0.005407299248601046","-0.023305600377183676","0.00126522741745991","-0.006829676193811198","-0.0017328532675054886","-0.055927525997039096","-0.23109988550938906","0.7274239936784233"
"0.00293029473592693","-0.005173587831697128","-0.023621583958705915","0.0005107205563867359","-0.005141205121461893","-0.003433127920084436","-0.050326897098859555","-0.2332239045152188","0.7248253856315873"
"0.00293029473592693","-0.005095684026062488","-0.023621583958705915","0.0015975685791830944","-0.007460309967821179","-0.0006652671703466545","-0.057627219344247756","-0.2321552986799877","0.7242043346518404"
"0.0029312575552600546","-0.005252114867776845","-0.023311796133684115","0.0007638274260768437","-0.004720224169475723","-0.00300211339211124","-0.05172008836706353","-0.2316275920946884","0.7277508626151323"
"0.0029293319165938055","-0.0050953724108399505","-0.023776477871216818","0.0014373670458379673","-0.002615080079839368","-0.0014874953351964228","-0.05445074325274296","-0.23224764733241504","0.7264106999746256"
"0.002932220374593179","-0.005640906793764119","-0.023621583958705915","-0.00011150450972477672","-0.003031035108009897","-0.0004225788100013868","-0.055175202712209055","-0.23290728056403917","0.7263943565277903"
"0.003074717635895949","-0.005251491637331767","-0.023305600377183676","0.0012671529166587698","-0.0034589566214557597","-0.0017083417431106164","-0.055203066537573","-0.23272258325918443","0.7204453418796876"
"0.0029312575552600546","-0.0054065721464151215","-0.023931371783727718","-0.00012305750491793497","-0.0034515374005850545","0.0008602718627836993","-0.056429074853592665","-0.23384395975294547","0.7187292799619658"
"0.0030756804552290735","-0.005562483629425247","-0.02361538820220548","0.000929227807258892","-0.006829197534400184","-0.0023764627991411393","-0.05172008836706353","-0.2314692801190986","0.7222431210315868"
"0.00293029473592693","-0.005095684026062488","-0.023621583958705915","0.0026422481695244256","-0.005990107586893925","-0.0025817771519932356","-0.05654053015504877","-0.23148247278373105","0.7237957484809542"
"0.00293029473592693","-0.005095684026062488","-0.023621583958705915","0.00176932310772138","-0.004090069054876755","-0.0004271898888479469","-0.05155290541487921","-0.23302601454573155","0.7239428395024734"
"0.0029274062779275564","-0.004627637961809573","-0.023933437035894525","0.0007158824960252372","-0.003874193660509771","0.0025743797519023268","-0.052528139302621776","-0.22929249045473893","0.7279306405303222"
"0.0030756804552290735","-0.005406987633378508","-0.023460494289694576","-0.00019170155135728336","-0.007246349211098248","-0.0015221997707257958","-0.05127426716123848","-0.23165397742395336","0.7284046004885502"
"0.00293029473592693","-0.00525118002210923","-0.023776477871216818","-0.0008714990435147011","-0.008296288629155853","-0.0021713911346493884","-0.053001824333811086","-0.23270939059455192","0.724956133206271"
"0.0028571204666092962","-0.004940188030015747","-0.023625714463039536","-0.0011417428560746602","-0.005133307241180173","-0.0004342278512979598","-0.05511947506148084","-0.23376480376515058","0.7268192861455117"
"0.0027877974746241775","-0.005408545709491202","-0.02331799189018455","-0.00011593315788215404","-0.002607421529263155","1.0134536494225825e-05","-0.0568191684086895","-0.23168036275321832","0.7250705373341192"
"0.002855194827943047","-0.004473180683171295","-0.023470820550528636","-0.00011651080764181194","-0.0005013201208047736","2.930691696150201e-05","-0.053559100841092555","-0.23280173924697933","0.7279142970834868"
"0.002928369097260681","-0.0047840688035239295","-0.023623649210872726","-0.00021933246486092014","-0.010613239508165579","0.0012410499001654248","-0.05336405406354429","-0.2340418497224327","0.7247436683974101"
"0.0027772064619597738","-0.002918428466185583","-0.022085036346597777","0.0004566140288987783","-0.008083763850665962","0.0016973040176145283","-0.04935166321111699","-0.2326698126006545","0.7227334244366502"
"0.0026433745746551585","-0.00525304971344446","-0.023479081559195886","-0.0035852013394276215","-0.004698205836569112","0.005134984641905248","-0.05013185032131129","-0.23513684088692877","0.7216547569455107"
"0.003077606093895322","-0.00587534531285396","-0.022993747299995062","-0.0014633012222842305","-0.008928358381398873","-0.003035119009118196","-0.05080058213004886","-0.23731363055128843","0.7218508783075361"
"0.0028609717439418113","-0.00556404170553794","-0.023313861385850926","-0.0016256208047481034","-0.006397925405077229","-0.0038723938523093707","-0.048264974021918004","-0.23875163099622904","0.7246782946100684"
"0.003220103355198092","-0.005330122545152331","-0.022679828970639634","-0.00251115788630368","-0.0072396479793440625","-0.0006652671703466545","-0.05004825884521882","-0.23599436408804014","0.7222921513720931"
"0.0029331831939263036","-0.005642880356840195","-0.022690155231473698","-0.00044442332120761926","-0.0034515374005850545","-0.001710040561633033","-0.048097791069733685","-0.23636375869774967","0.7227824547771565"
"0.002786834655291053","-0.005020273142208156","-0.022698416240140944","0.0011814682023095129","-0.006825607588817584","-0.0021587713399114335","-0.048209246371190104","-0.23565135480759564","0.7215076659239917"
"0.0027858718359579115","-0.00501964991176308","-0.023008204065162744","0.0008355522712343676","-0.007245870551687234","-0.0017335813325865242","-0.048097791069733685","-0.23768302516099793","0.7223575251594349"
"0.002786834655291053","-0.005175769138254898","-0.022853310152651844","0.00023932144430746093","-0.0034520160599960676","-0.0017076136780295804","-0.048961569656020144","-0.23580966678318538","0.7214749790303208"
"0.003147891905213583","-0.005408337966009508","-0.022681894222806448","0.0015709966902388308","-0.005143359088811451","0.002562245333885063","-0.048097791069733685","-0.2360207494173051","0.7227824547771565"
"0.0028561576472761717","-0.004629299909663113","-0.023315926638017737","0.0017632577852449722","-0.005141923110578412","-3.941388405799899e-06","-0.05341978171427219","-0.2366539973196643","0.7226353637556376"
"0.0030756804552290735","-0.005252841969962767","-0.02268602472714007","0.0008507637149053592","-0.006828958204694677","-0.003445019649741354","-0.048543612275558735","-0.23484660226501414","0.722766111330321"
"0.002784909016624787","-0.004630857985775806","-0.02270048149230776","0.002277654896220341","-0.002614362090722847","1.4502926980440595e-05","-0.04589654886597177","-0.23518961154545875","0.7224065554999414"
"0.0025692374860044","-0.004786873340526777","-0.023018530325996805","0.0002092836568052496","-0.0032363799953345905","0.001722058230369746","-0.04887797817992768","-0.23734001588055337","0.7221287169037387"
"0.002928369097260681","-0.004706164997889291","-0.023623649210872726","0.0019491647328948763","-0.005987235630427844","-0.001723631109812368","-0.04885011435456342","-0.23784133713658775","0.7223411817125995"
"0.0027877974746241775","-0.005253672943889538","-0.022853310152651844","0.0009997973528971","0.003287987106481767","5.309037627533826e-05","-0.04706682953126291","-0.23532153819178356","0.7215240093708273"
"0.003071829177896558","-0.004627741833550421","-0.02361745345437229","0.0036507283749271945","-0.004518947887144644","-0.0004276752655686377","-0.051385722462694586","-0.23671996064282672","0.7245965773758912"
"0.003071829177896558","-0.004627741833550421","-0.02361745345437229","-9.802601533275877e-05","-0.006404387307125908","-0.002583233282155308","-0.047401195435631545","-0.23501810690523645","0.7225863334151311"
"0.0030737548165628245","-0.0050953724108399505","-0.023460494289694576","0.00041839286980141315","-0.00893434162403654","-0.0030314786837130174","-0.05236095635043715","-0.23464871229552692","0.7224392423936121"
"0.0028571204666092962","-0.004940811260460825","-0.023315926638017737","8.017893552170657e-05","-0.0021890732040375587","-0.0029826983232836175","-0.05074485447932065","-0.23470148295405682","0.7237630615872834"
"0.0028571204666092962","-0.004785730751377469","-0.023006138812995933","-0.0002524510510813069","-0.008087593125954067","-0.004736849791859215","-0.05068912682859275","-0.2337384184358856","0.7250378504404482"
"0.003074717635895949","-0.005173587831697128","-0.023305600377183676","5.3607046577442665e-05","-0.0015579607706165638","0.00023267976293083636","-0.04634237007179682","-0.23563816214296313","0.7264270434214612"
"0.00293029473592693","-0.005251491637331767","-0.023621583958705915","0.00023296729695122394","-0.0038749116496262902","-0.0008550494681366544","-0.04843215697410232","-0.23521599687472367","0.7295486417670314"
"0.002786834655291053","-0.005252738098221923","-0.02331799189018455","0.0002502967897409612","-0.0047168735535986295","-0.00300211339211124","-0.051970862795340314","-0.23563816214296313","0.722030656222726"
"0.0028600089246086867","-0.005408234094268661","-0.023313861385850926","0.0019621618524871794","-0.005144555737338985","-0.003005511029156073","-0.04890584200529194","-0.23599436408804014","0.7221123734569032"
"0.00293029473592693","-0.005096307256507566","-0.023311796133684115","0.00212217083591242","-0.009358673191899803","-0.0021774583436580193","-0.044698404375316365","-0.2350576848991339","0.7232891016290555"
"0.0029293319165938055","-0.004940188030015747","-0.02346669004619501","0.001098190361958831","0.0003353765296464196","-0.0016799472049502198","-0.04806992724436974","-0.23521599687472367","0.7236159705657643"
"0.0028590461052755453","-0.005407610863823584","-0.023623649210872726","-0.00019526372487517385","-0.0021871585663935053","-0.0006295919813759002","-0.048153518720461586","-0.23550623549663827","0.7223411817125995"
"0.00293029473592693","-0.005174211062142204","-0.023311796133684115","0.0005579915617187416","-0.0013463933109486993","0.0013048769389362302","-0.050354760924223814","-0.23388353774684292","0.7244004560138656"
"0.0029312575552600546","-0.005407299248601046","-0.023621583958705915","0.00012562071661479556","-0.0013449573327156596","0.0019460595869684276","-0.0470111018805347","-0.23567774013686058","0.7278816101898159"
"0.0033664518938333427","-0.0060292832327880075","-0.023291143612015997","0.0006675524661338586","-0.0043033118224831655","-0.0015042408320602462","-0.049323799385753035","-0.2358228594478179","0.7274076502315879"
"0.002786834655291053","-0.005252114867776845","-0.02362777971520635","0.0010868299166855587","-0.004086479109294156","-0.0006419690877535091","-0.050521943876408126","-0.23463551963089443","0.7271624985290562"
"0.00293029473592693","-0.005096307256507566","-0.023311796133684115","0.0005060993583094726","-0.005562186073448062","-0.0030074525360388356","-0.048961569656020144","-0.23464871229552692","0.7274076502315879"
"0.0028571204666092962","-0.004940188030015747","-0.023625714463039536","-0.00013201107619263252","-0.003449862092646508","0.0017193886584059477","-0.049964667369126664","-0.23454317097846705","0.7239918698429795"
"0.0029293319165938055","-0.00509506079561741","-0.023931371783727718","0.0010941468136412256","-0.006827522226461638","-0.0017316398257037618","-0.051692224541699576","-0.23361968445419326","0.726901003379689"
"0.003074717635895949","-0.005406676018155968","-0.02361538820220548","7.796461144301787e-05","-0.0024025553013494764","-0.0025584790694000905","-0.05322473493672361","-0.23377799642978306","0.7268683164860182"
"0.0030737548165628245","-0.00509506079561741","-0.02361538820220548","0.001258199345384072","-0.00577566817075998","-0.0008676692628746083","-0.051580769240243164","-0.2326698126006545","0.7290256514682971"
"0.002784909016624787","-0.004939876414793209","-0.023939632792394965","-0.0006319669431765542","-0.005765855652834208","-1.049397413512195e-05","-0.056122572774587674","-0.23298643655183413","0.7293361769581707"
"0.0029274062779275564","-0.004627949577032113","-0.02377854312338363","-0.0008023736222756378","-0.003238773292389656","8.921094692499323e-06","-0.04857147610092268","-0.23384395975294547","0.7282738529138666"
"0.00293029473592693","-0.005251491637331767","-0.023621583958705915","-0.0008628342971198325","-0.0034512980708795477","-0.002779568165674629","-0.04851574845019479","-0.2340286570578002","0.7286824390847529"
"0.0028580832859424208","-0.005251076150368383","-0.023935502288061336","0.001460280486304398","-0.0024051879281100494","-0.004056594317811428","-0.047401195435631545","-0.23369884044198816","0.7287151259784236"
"0.0029293319165938055","-0.00524951807425569","-0.024550947433771324","-0.00011015666028557492","-0.006823453621468025","-0.0008764060438470379","-0.04745692308635975","-0.23318432652132134","0.7282901963607019"
"0.0030766432745621976","-0.005563106859870325","-0.023305600377183676","0.0009088175157509792","-0.006406301944769962","-1.75319365851346e-05","-0.04781915281609264","-0.2330128218810991","0.7282901963607019"
"0.002782983377958538","-0.004472453580985372","-0.023939632792394965","0.001085385792286414","-0.0013473506297707258","-0.00040486255969618244","-0.052444547826529624","-0.23544027217347588","0.7319838153455129"
"0.0030737548165628245","-0.005017156989982771","-0.02361538820220548","0.0015928511061458885","-0.005986996300722337","-1.1950104297193541e-05","-0.051859407493883895","-0.23388353774684292","0.7300879755126011"
"0.002926443458594432","-0.004471830350540294","-0.023933437035894525","-0.0006097274274297247","-0.0013449573327156596","-0.0023327788942789905","-0.05135785863733033","-0.2355853914844332","0.7309541781948797"
"0.003218177716531826","-0.005404079224634814","-0.02453855592077045","-0.0013096463862152263","-0.003873715001098757","-0.0004284033306496734","-0.050521943876408126","-0.23578328145392047","0.7318203808771585"
"0.0029312575552600546","-0.005406260531192584","-0.024086265696238618","-0.0006173331492652206","-0.002608618177790689","-0.0012753857082546582","-0.05093990125686923","-0.2342793176858174","0.7320165022391839"
"0.0030766432745621976","-0.005872125288887729","-0.024544751677270882","0.00039037685645800456","-0.0013485472782982586","0.0013007512368103605","-0.055509568616578","-0.23656164866723692","0.7310522388758925"
"0.003071829177896558","-0.004937383493012901","-0.024546816929437696","0.0014200375530482301","-0.00472261746653079","0.0004248889443242886","-0.05414424117373797","-0.23550623549663827","0.7291727424898162"
"0.0029274062779275564","-0.004705541767444213","-0.023933437035894525","0.0008972645205578211","-0.005350379284074691","0.0012786665960189411","-0.055927525997039096","-0.23438485900287725","0.731248360237918"
"0.0030708663585634335","-0.00462639150091942","-0.024237029104415896","3.3774404829187776e-05","-0.005980773728379165","0.002130745429191177","-0.053447645539636136","-0.23712893324643367","0.7330134524961461"
"0.0030737548165628245","-0.005094437565172334","-0.02392517602722728","-0.00029221260953775976","-0.0047168735535986295","0.0004244035676035982","-0.051970862795340314","-0.23613948339899746","0.733046139389817"
"0.0032172148971987015","-0.005247648382920457","-0.02484834374579225","-0.0018129718767971523","-0.002608857507496195","-0.0014896795304395298","-0.05314114346063145","-0.2364429146855446","0.7323924015163991"
"0.0032191405358649506","-0.005714447986283219","-0.025158131570814053","0.0021069593922414284","-0.005569844624024274","0.00041493872155013274","-0.05004825884521882","-0.2368123092952541","0.7326865835594372"
"0.002926443458594432","-0.004626079885696881","-0.02470790659844903","0.0007026928265130482","-0.007250417816091861","-0.006015817450878777","-0.05163649689097106","-0.23694423594157893","0.7320001587923484"
"0.003216252077865577","-0.004938006723457979","-0.023921045522893654","0.0015495273741715449","-0.005142880429400439","0.0051335285117431765","-0.053782011444005386","-0.2381447684231348","0.7334383821138676"
"0.0028542320086099226","-0.004703879819590673","-0.024864865763126746","0.00015055593124002866","0.00012859566408868756","-0.0008247134230934959","-0.05314114346063145","-0.2379336857890151","0.7317550070898167"
"0.003145003447214192","-0.00517078329469428","-0.02454268642510407","-0.0007810005811682951","-0.005139529813523346","-0.0023633576276824945","-0.05620616425067983","-0.23542707950884342","0.7322943408353865"
"0.0032152892585324525","-0.004936137032122746","-0.02485040899795906","0.000400196902372189","-0.005564340040797622","-0.0004381108650634839","-0.0546736538556558","-0.23774898848416035","0.7314935119404496"
"0.0029293319165938055","-0.005094437565172334","-0.024241159608749518","0.0005742620299491061","-0.003454648686756641","-0.000637358008906949","-0.05537024948975763","-0.2379336857890151","0.7323270277290572"
"0.0030708663585634335","-0.004625768270474343","-0.024546816929437696","0.0011661604836785784","-0.004721899477414269","-1.7571931626924088e-06","-0.05620616425067983","-0.23592840076487775","0.7323106842822218"
"0.0030708663585634335","-0.004703048845663905","-0.0248566047544595","0.0007417804602499001","-0.00577423219252694","-0.0004381108650634839","-0.051079220383689596","-0.23768302516099793","0.7341411503277918"
"0.0030737548165628245","-0.005326798649445252","-0.024544751677270882","0.0010930877890818528","-0.005144077077927973","-0.0012931019585598628","-0.0560389812984952","-0.23879120899012649","0.7331605435176651"
"0.003212400800533079","-0.004467779352647293","-0.025315090735491763","0.000742165560089672","-8.799771939481636e-05","3.10057354839189e-05","-0.05380987526936934","-0.23797326378291256","0.7330134524961461"
"0.0028580832859424208","-0.005250764535145843","-0.02409039620057224","0.0005918803476186724","-0.007457916670766112","-0.003021771149299206","-0.05567675156876231","-0.23747194252687823","0.7335854731353868"
"0.002924517819928166","-0.004313529817490708","-0.025172588335981735","-9.263461757595173e-05","-0.005982209706612205","-0.003007695224399181","-0.05258386695334999","-0.23751152052077568","0.7343045847961464"
"0.0030727919972297","-0.005092464002096256","-0.02485453950229269","-0.0006274420200592339","-0.0017671349332293621","1.6201745502857485e-05","-0.05573247921949052","-0.2377885664780578","0.7327519573467789"
"0.002926443458594432","-0.004627014731364496","-0.024243224860916332","-0.0007844664797262427","0.0003411204425785788","-0.0016792191398691842","-0.055927525997039096","-0.23950361288028055","0.73443533237083"
"0.003071829177896558","-0.004937383493012901","-0.024546816929437696","-0.0006316781182967252","-0.0013454359921266726","0.0004484297152777795","-0.057543627868155596","-0.2386328970145367","0.7335527862417157"
"0.0030689407198971844","-0.0046231714769531885","-0.025785968229524905","-0.0015790237241356986","-0.00323853396268415","0.0010782060103737498","-0.05459006237956333","-0.23827669506945964","0.7323597146227283"
"0.0032152892585324525","-0.004935825416900208","-0.025005302910469963","-0.002349415953599465","-0.003026966503016285","0.0010784486987340952","-0.05322473493672361","-0.24020282410580213","0.734729514413868"
"0.0030737548165628245","-0.0053264870342227145","-0.024699645589781785","5.2548022018069855e-05","-0.008931948326981473","-3.5248186890339405e-05","-0.05445074325274296","-0.2393321082400583","0.7340594330936147"
"0.003141152169881694","-0.004468402583092371","-0.025164327327314488","-0.00026034559779663174","-0.006827043567050625","-0.0034430781428585917","-0.051970862795340314","-0.23646930001480954","0.7326375532189309"
"0.0027839461972916624","-0.005093087232541333","-0.02517878409248217","0.0016127800228540863","-0.007249699826975341","-0.002163382418757994","-0.05709780666233024","-0.23832946572798963","0.7346151102860198"
"0.002853269189276798","-0.004470272274427602","-0.02486693101529356","0.0006446390256674282","-0.00577064224694434","0.0008478947564060906","-0.05623402807604378","-0.2378941077951177","0.7363311722037417"
"0.00336163779716772","-0.005403559865930583","-0.024532360164270014","0.002317223904756908","-0.0051531716067372245","-0.004291516650625648","-0.054812972982476164","-0.23917379626446847","0.7342555544556401"
"0.0028523063699436566","-0.004313114330527322","-0.025486506665337163","0.001516986437710816","-0.00387850159520889","-0.00085116645437113","-0.051023492732961695","-0.23704977725863877","0.735203474372096"
"0.0032152892585324525","-0.004935409929936824","-0.025160196822980863","-9.167186797652183e-05","-0.006828479545283664","-0.003016917382092301","-0.05311327963526719","-0.23926614491689588","0.7368378190556406"
"0.0030660522618978113","-0.004077948709251557","-0.025788033481691716","0.0005162082291034861","-0.0030370183506475633","-0.003842785872347248","-0.05542597714048584","-0.2402292094350671","0.7361513942885519"
"0.003069903539230309","-0.004625145040029265","-0.0248566047544595","-0.0003543099587009851","-0.005561228754626036","-0.0023638430044031844","-0.0546736538556558","-0.23873843833159655","0.7365926673531089"
"0.0027791321006260397","-0.003924634019762587","-0.02518084934464898","-0.0013399729985972665","-0.00639433545949463","0.0025588476968402296","-0.056429074853592665","-0.2369706212708439","0.7337815944974121"
"0.0030660522618978113","-0.0033820080455821107","-0.023309730881517297","-0.0014163190418320537","-0.00850402681353561","0.0008340615198664104","-0.052918232857718926","-0.23802603444144252","0.734729514413868"
"0.0027858718359579115","-0.00524951807425569","-0.02486693101529356","-0.0033531786859650275","-0.004705625057439818","-0.0017185346542451178","-0.05297396050844683","-0.24098119131911863","0.732833674580956"
"0.0030766432745621976","-0.006027205797971084","-0.024852474250125874","-0.0005961526580777637","-0.0076687661413174565","-0.0038845282703266334","-0.05548170479121374","-0.24119227395323836","0.734876605435387"
"0.0032191405358649506","-0.005869528495366574","-0.025467919395835852","0.0010822087186082956","-0.003460153269983293","0.000428771958089813","-0.05768294699497596","-0.2413769712580931","0.7358735556923492"
"0.0029274062779275564","-0.005091840771651178","-0.025482376161003538","0.0012033226182165708","-0.0026165160580724073","-0.003844242002509319","-0.06072010395966008","-0.24234003577626434","0.735170787478425"
"0.003216252077865577","-0.005246401922030304","-0.025467919395835852","0.0005401806941292893","-0.0038835275190245294","-0.006424019272979518","-0.05698635136087413","-0.24201021916045223","0.7346314537328552"
"0.003218177716531826","-0.005636544180648579","-0.025158131570814053","0.001967842075123815","-0.006835659436448863","-0.0034481745984258423","-0.054701517681019746","-0.2397146955144003","0.7355303433088048"
"0.003069903539230309","-0.004624417937843342","-0.0251663925794813","0.002993651773316321","-0.002412607148980754","-0.0031977202105495255","-0.05863031705735458","-0.23914741093520356","0.7341574937746274"
"0.003216252077865577","-0.005091840771651178","-0.02484834374579225","0.0005698333817917288","-0.0030367790209420574","7.4649645304279435e-06","-0.053169007285995405","-0.23840862171578447","0.7364128894379189"
"0.0030737548165628245","-0.005404702455079892","-0.024544751677270882","0.0018955395802066333","-0.006834223458215823","-0.0051598556039410175","-0.05500801976002443","-0.23810519042923742","0.7376386479505774"
"0.0030727919972297","-0.005247648382920457","-0.025164327327314488","0.0033158840642454925","-0.0017802980670322268","-0.000626437032691412","-0.05589966217167484","-0.23689146528304897","0.7363475156505771"
"0.0031469290858804583","-0.005560198451126632","-0.02454062117293726","0.0019590810537690037","-0.004727164730935415","-0.002361901497520423","-0.05835167880371385","-0.23629779537458726","0.7339450289657665"
"0.0030737548165628245","-0.005403455994189736","-0.025164327327314488","0.0025469359591808708","-0.0030420442744632024","-0.0008504383892900943","-0.05411637734837402","-0.2345299783138346","0.7355303433088048"
