"AccX","AccY","AccZ","GyroX","GyroY","GyroZ","MagX","MagY","MagZ"
"0.0033308275785076673","-0.007925669605416826","-0.025736402177521416","0.002035427097003791","-0.005700039983819884","-0.003750806983776391","-0.050856309780777376","-0.2141446729237223","0.7373771528012102"
"0.0033269763011751522","-0.006991862655209615","-0.025428679604666424","0.002100123870085477","-0.005276905064484154","-0.0016018015529190438","-0.05626189190140804","-0.21374625445182133","0.736380202544248"
"0.003400150570492786","-0.0071487089838873545","-0.025116826527477813","0.0012218074105256238","-0.005694774730298737","0.0009641424810114739","-0.057627219344247756","-0.21545074672233808","0.7376223045037421"
"0.0033279391205082768","-0.007149747701295816","-0.02465421004211192","0.0013899997655460188","-0.009065015643243161","0.0009408443984183282","-0.0560389812984952","-0.21548768618330902","0.7385211940796915"
"0.0034030390284921766","-0.007770900711556009","-0.025114761275311","0.0007059661751511097","-0.008642598713023952","0.001154410155522164","-0.05314114346063145","-0.2141288417261633","0.7373117790138684"
"0.0031873674978717733","-0.007772978146372933","-0.024813234458956446","0.0005434540427673508","-0.003583647398024716","0.0005481746313796848","-0.05277891373089856","-0.21527792281565256","0.7364782632252608"
"0.0033298647591745428","-0.007616131817695191","-0.025118891779644624","0.000555392137800281","-0.0023223798500047535","-0.0007273953905950434","-0.05734858109060671","-0.21458926572183695","0.7367724452682988"
"0.0034011133898259106","-0.0073045165951566345","-0.024804973450289196","0.0012331678557988962","-0.005274272437723581","-0.0003182228150529217","-0.05667984928186914","-0.21388477743046239","0.7355303433088048"
"0.0031844790398723997","-0.007227651506930457","-0.02481529971112326","0.00123297530587901","-0.005271639810963008","-0.0003177374383322313","-0.05105135655832564","-0.21487818507728834","0.7395018008898184"
"0.0031854418592055242","-0.007150786418704278","-0.024195724061079654","0.0007076991244300834","-0.00737558725207183","0.0007389276826110653","-0.055203066537573","-0.21502858145409864","0.7398123263796917"
"0.0031122675898878904","-0.006994978807435","-0.02466453630294598","0.000903329843034229","-0.006955802948613194","-0.002041552861864669","-0.054868700633204065","-0.21451538679989507","0.7393873967619703"
"0.0033279391205082768","-0.006992901372618076","-0.02480910395462282","-0.000490731576940195","-0.0031602731489834804","0.0011971233069429312","-0.050354760924223814","-0.21419348578286249","0.7388807499100714"
"0.003475250478476669","-0.007771939428964471","-0.02449105512093377","0.0015188156619497326","-0.0019071428109507437","-0.003294552866327288","-0.05570461539412657","-0.21365258653293068","0.7387336588885525"
"0.003039093320570256","-0.006993940090026538","-0.025286177205156395","0.00125232657282755","-0.004007260976771459","-0.0024492693072447193","-0.05302968815917504","-0.21450351340172583","0.7385865678670333"
"0.003617747739779439","-0.0075371892946520915","-0.025106500266643753","0.0007384108366518957","-0.006119345627867507","-0.0024672282459102693","-0.05339191788890793","-0.2145061519346523","0.7387990326758942"
"0.00304198177856963","-0.0074613629238343745","-0.025131283292645495","-0.0003136819256050455","-0.004843239638106133","0.0005404086038486361","-0.05149717776415069","-0.21567370275462708","0.738210668589818"
"0.0033308275785076673","-0.007771939428964471","-0.024807038702456007","3.194518059027098e-05","-0.003373276586884385","0.00033533693935688486","-0.054617926204927586","-0.21694415635873515","0.7364292328847545"
"0.0034742876591435444","-0.007616131817695191","-0.024802908198122385","-0.0004883247029416204","-0.0018982876118469976","0.0012029478275912176","-0.05166436071633532","-0.21461565105110192","0.7365109501189318"
"0.0031844790398723997","-0.0073045165951566345","-0.02527998144865596","2.3280434195402344e-05","-0.004424412653469522","0.0011864450190877394","-0.054617926204927586","-0.21529771181260127","0.7374915569290584"
"0.0031844790398723997","-0.0073045165951566345","-0.02527998144865596","-0.000477927007267778","-0.005266374557441862","-0.000318465503413267","-0.054534334728835426","-0.2163227818545452","0.7381289513556408"
"0.0034713992011441708","-0.007147670266478893","-0.02511269602314419","0.0008610651356192586","-0.005693338752065698","0.003105624572698118","-0.052416684001165365","-0.21527528428272605","0.7362821418632354"
"0.0031854418592055242","-0.007460324206425913","-0.02512508753614506","0.001570804140318945","-0.005272597129785035","0.0003234452096999666","-0.053782011444005386","-0.21714204632822237","0.7375242438227293"
"0.003398224931826537","-0.00668232486748798","-0.024497250877434207","0.0019152759469949457","-0.006118627638750987","-0.00032089238701671954","-0.05459006237956333","-0.2158069486674151","0.7377040217379193"
"0.0033260134818420277","-0.006681286150079518","-0.025120957031811435","-0.0005701584188931578","-0.006952452332736101","0.00010065729490301078","-0.05380987526936934","-0.21828980815124832","0.7366743845872862"
"0.0033289019398414013","-0.007305555312565096","-0.02449931612960102","-0.0003273529699169494","-0.006741602862184756","0.0018128236771388759","-0.054617926204927586","-0.21776210156594905","0.7360206467138681"
"0.003183516220539258","-0.00691707500180036","-0.024505511886101453","0.0012041890928560573","-0.007797286193174519","0.002664174445230076","-0.05041048857495202","-0.2179731842000688","0.7363475156505771"
"0.0031806277625398846","-0.006371125131912805","-0.024662471050779167","0.001219689361406878","-0.005059593691884131","0.0009728792619839037","-0.055621023918034106","-0.21865920276095788","0.7379001430999444"
"0.003183516220539258","-0.00691707500180036","-0.024505511886101453","9.269468031429462e-05","-0.0035802967821476238","0.0029080762473770697","-0.05495229210929653","-0.2179599915354363","0.7368541625024759"
"0.0031844790398723997","-0.007149747701295816","-0.02481529971112326","0.0013983756870610585","-0.005271639810963008","0.0003251440282223835","-0.053447645539636136","-0.22028190051075325","0.7356284039898177"
"0.0033279391205082768","-0.0071487089838873545","-0.025118891779644624","-0.0006601755064398486","-0.00442393399405851","0.0009728792619839037","-0.05548170479121374","-0.2178808355476414","0.7345007061581716"
"0.003183516220539258","-0.00683917119616572","-0.024505511886101453","-0.0012692109030391725","-0.005683286904434419","0.0018225312115526867","-0.05456219855419907","-0.2196090746144966","0.7360206467138681"
"0.0031844790398723997","-0.007149747701295816","-0.02481529971112326","-0.0002538951754804518","-0.0031578798519284143","0.003551928467373066","-0.052695322254806096","-0.2199520838949412","0.735644747436653"
"0.0033260134818420277","-0.006837093761348796","-0.025120957031811435","0.0007947316882185419","-0.008642120053612938","0.0005166251445348","-0.055453840965849786","-0.21938479931574442","0.7343045847961464"
"0.0033269763011751522","-0.006914997566983436","-0.02480910395462282","0.0006090172904885236","-0.0027414461643468697","0.0026996069458404847","-0.053837739094733286","-0.22125815769355697","0.7347785447543743"
"0.0033269763011751522","-0.006992901372618076","-0.025118891779644624","0.00251660934679883","-0.007805423403161745","-0.0005485340690205807","-0.05439501560201506","-0.22017635919369338","0.7326375532189309"
"0.003039093320570256","-0.00683917119616572","-0.024821495467623696","0.0017200303282305716","-0.004848026232216265","0.002685531020940459","-0.052416684001165365","-0.22171990095569385","0.7331115131771587"
"0.0033308275785076673","-0.007539266729469015","-0.02449931612960102","0.0024020421444666783","-0.005274990426840101","0.003107323391220535","-0.054339287951286855","-0.22004443254736852","0.7334874124543741"
"0.0033269763011751522","-0.006837093761348796","-0.02480910395462282","0.005505850578068575","-0.0025475891028864965","0.0005607944261176387","-0.055565296267306205","-0.21983334991324882","0.73260486632526"
"0.0028927447819349886","-0.006371956105839577","-0.024829756476290942","0.0036186688132661808","-0.0069601108833123124","0.0005316718228762065","-0.05389346674546149","-0.22022912985222332","0.7343372716898172"
"0.003250913573858145","-0.006059509909374248","-0.024505511886101453","-0.0002342550836520827","-0.007373193955016764","0.0005294876276330992","-0.052416684001165365","-0.21890986338897506","0.7343863020303235"
"0.003109379131888517","-0.006372371592802961","-0.024199854565413275","0.0014772248792543634","-0.00821970312339373","0.0005226923535434316","-0.05397705822155365","-0.21854046877926553","0.7339123420720958"
"0.0031806277625398846","-0.006448717322324908","-0.02481736496329007","0.0009571475456423578","-0.00863996608626338","0.0013752565634363577","-0.055091611236116896","-0.21855366144389804","0.7343045847961464"
"0.0033260134818420277","-0.0065275559736271615","-0.023881805731724225","0.0008951464714390755","-0.0023223798500047535","-0.0009356220037712831","-0.054868700633204065","-0.22079641443142006","0.7311339561100698"
"0.0030381305012371317","-0.0065275559736271615","-0.024513772894768703","0.0012238291846844267","-0.004636698102253907","0.0005469611895779585","-0.05336405406354429","-0.21881751473654765","0.731804037430323"
"0.003325050662508903","-0.006294260043686628","-0.023881805731724225","2.376180899511725e-05","-0.007796089544646987","0.0003115534800430484","-0.05570461539412657","-0.2179599915354363","0.7313137340252596"
"0.0033260134818420277","-0.006605459779261801","-0.02403669964423513","-0.0013353518005200032","-0.007792738928769894","-0.0007608863843226902","-0.05665198545650488","-0.21918690934625717","0.733634503475893"
"0.003183516220539258","-0.006684402302304903","-0.02388593623605785","0.0005256431751778986","-0.007373911944133284","0.0018118529236974949","-0.05539811331512158","-0.2194111846450094","0.7351544440315895"
"0.003181590581873009","-0.006372059977580421","-0.024197789313246468","0.0005480752408446141","-0.006532907358982971","-0.0007504507848278437","-0.05219377339825284","-0.2193320286572145","0.7320491891328547"
"0.003111304770554766","-0.006684402302304903","-0.024199854565413275","-0.0006484299613268046","-0.002525570769979886","-0.000509703931365338","-0.05297396050844683","-0.22065129512046275","0.7311829864505761"
"0.0033279391205082768","-0.00683917119616572","-0.023879740479557415","-0.00016821046113119496","-0.005266135227736356","0.0031107210282653687","-0.054311424125922596","-0.22054575380340294","0.7336998772632348"
"0.0030371676819040076","-0.006372059977580421","-0.024513772894768703","0.0005458609167659254","-0.007584522084979122","-0.0005439229901740206","-0.0546736538556558","-0.22187821293128365","0.7332586041986777"
"0.0030371676819040076","-0.006294779402390859","-0.024203985069746903","0.0001110831976634048","-0.008635897481269767","9.167782557023594e-05","-0.05581607069558268","-0.2213768916752493","0.7336508469227285"
"0.0031825534012061333","-0.006529633408444087","-0.02357821366320286","8.74291524401167e-06","-0.005897247661157351","0.0022516042326431204","-0.05408851352301007","-0.2194903406328043","0.7320001587923484"
"0.003181590581873009","-0.006604421061853339","-0.02481736496329007","0.00039268745549663614","-0.0018990056009635175","-0.002004178854371498","-0.053001824333811086","-0.22112623104723214","0.7303331272151328"
"0.0034723620204772953","-0.006994978807435","-0.02387354472305698","0.002091170298810779","-0.004434703830806308","-0.000738559055170926","-0.05595538982240304","-0.22198375424834352","0.7315425422809559"
"0.0031825534012061333","-0.006528594691035625","-0.02388800148822466","0.0021811873863574697","-0.0044318318743402285","-0.001378285573041052","-0.0543671517766508","-0.2206908731143602","0.7330624828366524"
"0.0031103419512216414","-0.006528594691035625","-0.024044960652902375","0.0004310048895539442","-0.006950777024797555","0.0028864769833063407","-0.05364269231718502","-0.22201013957760848","0.7320165022391839"
"0.0031787021238736356","-0.00605919829415171","-0.02481736496329007","0.0015788912369541553","-0.006536736634271077","-0.001177582299035515","-0.05447860707810722","-0.22065129512046275","0.7315752291746268"
"0.0031825534012061333","-0.006528594691035625","-0.02388800148822466","0.0002035071592086705","-0.006952930992147114","-0.0005400399764084966","-0.053782011444005386","-0.22045340515097553","0.7303167837682976"
"0.0031825534012061333","-0.006450898628882678","-0.023733107575713765","0.001574943963596493","-0.006114559033757374","-0.0007475385245037005","-0.05132999481196638","-0.22202333224224094","0.7320818760265255"
"0.0030371676819040076","-0.006295402632835937","-0.023894197244725097","-0.00046791441143370757","-0.00821395921046157","-0.0022609431396167917","-0.05328046258745182","-0.2221552588885658","0.7313954512594368"
"0.0031825534012061333","-0.0066833635848964415","-0.024197789313246468","2.4724558594547146e-05","-0.0058986836393903905","0.0005372536551641477","-0.054004922046917606","-0.22216845155319828","0.7320165022391839"
"0.0030371676819040076","-0.006217498827201296","-0.023894197244725097","0.0020742259058608137","-0.004849462210449304","0.0009757915223080468","-0.05124640333587422","-0.2233953693640192","0.7274239936784233"
"0.003036204862570883","-0.005906610706848663","-0.023584409419703297","0.0002224733263174385","-0.011165851798180398","-0.0033503711892066993","-0.057264989614514865","-0.22206291023613842","0.7289602776809553"
"0.0033269763011751522","-0.006451314115846062","-0.023262230081680622","-0.00014645232018408027","-0.0031605124786889863","0.0005581248541538408","-0.05581607069558268","-0.22203652490687342","0.7279306405303222"
"0.0028927447819349886","-0.006062937676822173","-0.023590605176203733","0.0002233398009569254","-0.0052651779089143294","-0.0028810119002989506","-0.05576034304485447","-0.22156158898010406","0.7287804997657655"
"0.003254764851190643","-0.006528594691035625","-0.02388387098389104","-0.0007328631011968025","-0.002316396607367088","-0.000721570869946757","-0.05341978171427219","-0.22226080020562564","0.7292708031708288"
"0.0031825534012061333","-0.006529633408444087","-0.02342331975069196","-9.927758981201766e-05","-0.004847786902510759","-0.005022008615264905","-0.052416684001165365","-0.22288085544335232","0.7271788419758916"
"0.0030381305012371317","-0.006451833474550293","-0.023584409419703297","-0.00011237098436426361","-0.002527724737329446","-0.00329188329436349","-0.055843934520946936","-0.22284127744945487","0.7268683164860182"
"0.002893707601268113","-0.006374241284138192","-0.023745499088714636","0.0008942799967995884","-0.0052666138871473684","-0.0011693308947837767","-0.05475724533174795","-0.2228280847848224","0.7262636089531067"
"0.0033269763011751522","-0.006528594691035625","-0.023572017906702426","0.0014968649710827321","-0.003167213710443172","-0.0013695487920686224","-0.052221637223616786","-0.2214824329923092","0.7307907437265253"
"0.0030400561399033807","-0.006841248630982643","-0.023582344167536486","0.0019227853938704983","-0.004639809388425493","-0.0011669040111803237","-0.05417210499910223","-0.22177267161422382","0.7298918541505759"
"0.0030381305012371317","-0.006528594691035625","-0.024203985069746903","0.0010671898248571898","0.0008403622082654182","-0.0006990008524346468","-0.05202659044606852","-0.2210734603887022","0.7282411660201956"
"0.0031806277625398846","-0.006371436747135346","-0.024507577138268268","6.4774941930829e-05","-0.006112165736702308","-0.004174055484218539","-0.05174795219242779","-0.21952991862670174","0.7218835652012071"
"0.0033298647591745428","-0.00715182513611274","-0.023569952654535615","0.0014944580970841575","-0.0035884339921348493","-0.0009472710450678562","-0.05096776508223349","-0.2215220109862066","0.7210663928594346"
"0.0031103419512216414","-0.006529633408444087","-0.02358027891536967","0.001060065477821409","-0.0027412068346413638","-0.0002956527975408119","-0.055175202712209055","-0.21934522132184697","0.7273095895505752"
"0.003181590581873009","-0.0065275559736271615","-0.024507577138268268","0.000600448819053598","-0.006536975963976584","-0.006747522857319758","-0.057237125789150606","-0.21727397297454717","0.7259694269100686"
"0.003039093320570256","-0.0066075372140787245","-0.023429515507192394","5.611019553596028e-05","-0.006530992721338918","-0.003321005897604922","-0.05417210499910223","-0.22028190051075325","0.7247926987379165"
"0.0030381305012371317","-0.006529633408444087","-0.023894197244725097","-0.00021654049102257344","-0.003579578793031104","-0.001158409918568239","-0.05080058213004886","-0.22077002910215507","0.7293361769581707"
"0.003039093320570256","-0.006685441019713365","-0.02373723808004739","0.000709817173548829","-0.0044241733237640165","0.0005481746313796848","-0.0530575519845393","-0.22044021248634305","0.7299081975974112"
"0.003114193228554139","-0.007152863853521201","-0.02357821366320286","0.0007286870656976541","-0.005058636373062104","-0.0015998600460362818","-0.05021544179740344","-0.22070406577899265","0.7270154075075371"
"0.002895633239934362","-0.006841248630982643","-0.02405322166156962","0.0010557331046239745","-0.005688073498544551","0.00011012214095647621","-0.051692224541699576","-0.22203652490687342","0.7269827206138663"
"0.0030342792239046166","-0.005748829532503305","-0.024515838146935514","0.00019744183673226244","-0.0035800574524421165","0.0003438310319689693","-0.061305244292305806","-0.22028190051075325","0.7262962958467775"
"0.0033298647591745428","-0.007230767659155842","-0.02326016482951381","-0.000917518474367448","-0.001894219006853385","0.0009915662657304892","-0.054617926204927586","-0.2214032770045143","0.7288131866594363"
"0.0031854418592055242","-0.006997056242251923","-0.023421254498525147","0.001828628483046259","-0.001269807805186576","0.00014094356272032534","-0.05548170479121374","-0.22070406577899265","0.7279306405303222"
"0.0033269763011751522","-0.006606498496670263","-0.023572017906702426","0.0010682488494165624","-0.0019016382277240907","-0.0011467608772716665","-0.054339287951286855","-0.22103388239480476","0.7275383978062716"
"0.0031748508465411205","-0.006612730801121036","-0.023881805731724225","0.0021059003676820558","-0.005300359375623805","-0.0032863014620755485","-0.05408851352301007","-0.22004443254736852","0.7272769026569044"
"0.003031390765905243","-0.006613769518529497","-0.02357821366320286","0.0014039596347377515","-0.005716314403794334","-0.0013617827645375736","-0.05330832641281577","-0.2194111846450094","0.728143105339183"
"0.003029465127238977","-0.0063804735885889625","-0.02357821366320286","0.002258111079351915","-0.00466565699662021","-0.001138994849740618","-0.05542597714048584","-0.22012358853516348","0.7302023796404492"
"0.0031709995692086224","-0.0059890848690805345","-0.024193658808912843","0.0015707078653590019","-0.0031904286918773158","-0.0006990008524346468","-0.05665198545650488","-0.21974100126082144","0.7288949038936134"
"0.003029465127238977","-0.006302569782954323","-0.02357821366320286","0.0007048108756317938","-0.0067664931515574464","0.0001309933399461693","-0.053252598762087565","-0.21942437730964187","0.7285680349569046"
"0.003173888027207996","-0.00645713093333345","-0.023881805731724225","0.0007207925189823294","-0.006137534685486011","-0.001578746158686243","-0.054032785872281865","-0.22007081787663352","0.7281267618923475"
"0.0033240878431757786","-0.005906091348144432","-0.023262230081680622","-0.0008732319927936749","-0.0023185505747166475","-0.00457303514862616","-0.05425569647519439","-0.22058533179730036","0.729238116277158"
"0.002895633239934362","-0.006685441019713365","-0.023898327749058725","-0.001318118582690209","-0.004207340610575006","-0.002448783930524028","-0.05921545739000031","-0.22054575380340294","0.7291073687024744"
"0.0030410189592365053","-0.007150786418704278","-0.02451170764260189","-0.0009529476596264665","-0.0008411683026241938","-0.004568909446500289","-0.06163961019667475","-0.22112623104723214","0.7322289670480446"
"0.0033260134818420277","-0.0065275559736271615","-0.023881805731724225","-0.0013095501112552832","-0.0018956549850864246","-0.0032884856573186564","-0.05776653847106812","-0.2203478638339157","0.7278652667429805"
"0.003181590581873009","-0.0065275559736271615","-0.024507577138268268","-0.0013036773386987611","-0.0027371382296477505","-0.003937191644521557","-0.05743217256669918","-0.22082279976068506","0.7325558359847537"
"0.0031806277625398846","-0.006293532941500706","-0.024507577138268268","-0.0015579395079081848","-0.006107379142592175","-0.004602400440227936","-0.05684703223405376","-0.2200972032058985","0.7302350665341202"
"0.0033991877511596615","-0.0066833635848964415","-0.024032569139901504","-0.0013259168544455906","-0.005055525086890517","-0.0015986466042345554","-0.05918759356463605","-0.22121857969965952","0.7291073687024744"
"0.0033289019398414013","-0.007150786418704278","-0.024034634392068318","-0.0011475193536712395","-0.006951973673325088","-0.002470625882955103","-0.057710810820339915","-0.22202333224224094","0.7278816101898159"
"0.0031844790398723997","-0.007226612789521995","-0.02512508753614506","-0.00045703534096015025","0.00147386793874148","-0.0021976014775666763","-0.06027428275383503","-0.2213900843398818","0.7297120762353859"
"0.0033308275785076673","-0.007770900711556009","-0.025271720439988713","-0.0013013667396601296","-0.0027397708564083243","-0.003729450408066008","-0.05871390853344674","-0.2217594789495913","0.7301860361936139"
"0.0030400561399033807","-0.0073045165951566345","-0.0257508589426891","0.0025655170264498664","-0.0035922632674229554","-0.005660036314612613","-0.06434240125699023","-0.22224760754099315","0.7308888044075381"
"0.003175813665874262","-0.007232845093972765","-0.025273785692155527","0.006057794923421707","-0.00489325954655702","-0.004571336330103743","-0.06261484408441731","-0.21910775335846228","0.731068582322728"
"0.003461771007812909","-0.00668855717193875","-0.02448898986876696","0.0036397530294936947","-0.00067363750876955","-0.0019694744188421247","-0.06002350832555824","-0.21561301649731762","0.7315588857277913"
"0.0034636966464791576","-0.00700121111188577","-0.024022242879067447","0.0022542600809541957","-0.002774712993412293","-0.00027259740330801136","-0.05879750000953889","-0.2159956037716596","0.732866361474627"
"0.0033905223771615238","-0.0069991336770688466","-0.025110630770977378","0.00019705673689249045","-0.004242282747578974","0.00014434119976515912","-0.05941050416754857","-0.21555892657232445","0.7351871309252604"
"0.003394373654494022","-0.007622364122145964","-0.02479877769378876","0.0009008266940757115","-0.004877942445404595","-0.0020044215427318427","-0.05787799377252454","-0.21523438702236536","0.7352198178189315"
"0.0033953364738271634","-0.00793294062727606","-0.025263459431321463","-0.00013653599930995281","-0.00318875338393877","-0.0004953853181049672","-0.05952195946900499","-0.21682542237704278","0.7328500180277917"
"0.0033953364738271634","-0.007933979344684521","-0.02510856551881056","0.0034643400524775755","-0.004464620043994637","-0.0013600839460151568","-0.06492754158963596","-0.21807872551712862","0.7310032085353863"
"0.0032460994771925052","-0.006843326065799569","-0.025116826527477813","0.002260999328150205","-3.4148535655823766e-05","-0.0006812846021294427","-0.06306066529024268","-0.212458650383691","0.7331605435176651"
"0.0031748508465411205","-0.007000172394477308","-0.025120957031811435","0.002091651673610494","-0.005931950468455812","-0.0013661511550237886","-0.06253125260832515","-0.21417633531884026","0.7344516758176654"
"0.00331734810784389","-0.0066106533663041105","-0.024804973450289196","6.169414321265348e-05","-0.0036111703141579795","-0.004132070397878808","-0.06066437630893218","-0.21219083929165158","0.7349256357758933"
"0.003029465127238977","-0.00668855717193875","-0.02512715278831187","-0.00023348488397253891","-0.004236299504941308","0.0003600911521121021","-0.06211329522786405","-0.21485575754741312","0.7346804840733617"
"0.0033905223771615238","-0.006921229871434207","-0.02480084294595557","3.80105030666791e-05","-0.0017144823980179023","-0.0011222493528767943","-0.05996778067483035","-0.21365390579939394","0.7332422607518424"
"0.0033202365658432636","-0.007310748899607406","-0.02511269602314419","-0.0010162003083090078","-0.0031832488007121178","0.0020773539899152176","-0.06311639294097088","-0.21557079997049367","0.7363475156505771"
"0.003464659465812282","-0.007543421599102862","-0.025416288091665552","0.0008216886770025777","-0.0019296398032683673","-0.0024118952997515485","-0.06180679314885906","-0.21515523103457046","0.7334056952201968"
"0.0033202365658432636","-0.007310748899607406","-0.02511269602314419","-0.00029847048193405387","-0.0006597563858501654","-0.001545012476598251","-0.06311639294097088","-0.2149072089394798","0.736559980459438"
"0.0033914851964946483","-0.007153902570929663","-0.025420418595999177","0.0007206962440223864","-0.0015060262245216237","-0.0006936617085070511","-0.06632073285783963","-0.2140021921456915","0.734991009563235"
"0.003319273746510139","-0.007153902570929663","-0.02573227167318779","-0.0006348551919748437","-0.003397927546551568","-0.0024206320807239777","-0.06478822246281558","-0.21400614994508124","0.7348112316480452"
"0.003607156727115035","-0.007308671464790481","-0.025719880160186916","-0.00012325005483782096","-0.004035023222610229","-0.0022119200908270473","-0.06175106549813086","-0.21436235189015826","0.7348929488822225"
"0.0033953364738271634","-0.00793294062727606","-0.025418353343832363","0.0015941026806251472","-0.0027742343340012793","-0.0026334697727467783","-0.0662092775563832","-0.21570404588328176","0.7358408687986782"
"0.0031016765772234863","-0.006765422260164929","-0.025742597934021852","0.001827569458486886","-0.003612366962685513","-0.0002781792355959524","-0.06551268192228138","-0.21270535321231843","0.7362821418632354"
"0.003464659465812282","-0.007543421599102862","-0.02526139417915465","0.0008733883304919608","-0.007826484417246328","0.0009728792619839037","-0.0662092775563832","-0.21471195750291902","0.7362657984163998"
"0.003175813665874262","-0.007154941288338125","-0.025428679604666424","0.0002112091560041093","-0.003608777017102913","-0.0013508617883220366","-0.06562413722373779","-0.21347844335978194","0.7341574937746274"
