"AccX","AccY","AccZ","GyroX","GyroY","GyroZ","MagX","MagY","MagZ"
"-0.16929593911578764","-0.15719351607102","-0.07082085697902765","-0.11145590255778562","0.00043206573067110026","0.9824293627110026","0.2677108056067082","-0.904902038948811","-0.25617366721925316"
"-0.09276143032554185","-0.153516456445065","-0.03344392326406384","0.041823461167440956","-0.1549405397545304","1.0025482277836253","-0.09599570687058112","-1.0263405168908146","-0.2873569637812851"
"0.02552381320707937","-0.1350999967930362","-0.027611651144986725","0.165382744758268","0.1488143291774348","0.4601397424119515","-0.4175163877466585","-1.1164200310014065","-0.13402928294986022"
"0.11912140621899749","-0.10748050090203538","0.06591948898559571","-0.15589642406746754","-0.11102353879406299","0.04396803455747225","-0.49377967776813547","-1.1340190456211383","-0.045911954991866906"
"0.11003335453361404","-0.053585609446583284","0.014900532082755154","-0.06508410535164741","-0.3319176770855212","-0.550730084934193","-0.37009215697700054","-1.1044410915151122","-0.10222820409744843"
"0.0611009503854461","0.1855312928509708","-0.146698221587701","0.08996382938773179","0.5805268251585219","-0.2883354297288893","-0.1939649168506735","-1.0513274237047368","0.005710456182574403"
"0.000973845851013374","0.05441087822860479","0.2612799524530112","0.11513684316402409","-0.42496906658650063","0.1389319899605756","-0.16615681913732513","-1.053332708728874","0.027684220452832215"
"0.18527575977880367","-0.31277260951043745","-0.19171039256336883","-0.09793889818179052","0.5147590220852989","0.10953757575555674","-0.19850672038501802","-1.066208749410177","-0.12205443945352858"
"-0.23776202189443116","0.22047374647162776","0.15131973133543924","-0.3918085859117582","0.9146550270163343","0.03146958399969096","0.07667641891060055","-0.9971583427237627","-0.19068711009430261"
"0.07500598719446269","-0.3798322054007351","-0.04989572202488834","0.04974400212195034","0.23938626292936552","-0.4124705260454939","0.054246039492519035","-1.0145330820447425","-0.22646128087241144"
"-0.1538426888191032","0.023381273085623645","-0.26608218834243624","0.04417257019004979","0.09258860146276121","-1.211352070630047","0.4087853534250272","-0.9044007176927769","-0.0576138629260466"
"-0.12291693183907187","0.03897761497367847","-0.062274843512759546","-0.06660332421954772","-0.014765131239294672","-0.8575609789187152","0.6525102338846033","-0.7634634814239639","0.04576007265283604"
"-0.08775476979328273","0.02668543316194082","0.07685706446103213","0.022057249141546685","-0.04892466010625658","-0.8989150755215488","0.8556932484394483","-0.5808901955750357","0.10993588534158381"
"-0.029523456525776596","0.07674330251053478","0.023944064796008274","0.19887680332243257","-0.08677943962624093","-0.7786387241344341","0.9235973908517028","-0.40016388277465503","0.20226001651502104"
"0.07543347897837097","0.31987900246142775","0.007643649019011104","0.2329388841502607","-0.2209117730774341","-0.27911327203576913","0.9012784667350774","-0.29368588652588706","0.2698565126264278"
"0.07695858480204375","0.14296465345220377","0.1652044216529164","-0.040930643401151316","0.05085668071356939","0.41538800876428406","0.8984920841986698","-0.33640373460586603","0.24253026951756124"
"0.047578152851680815","-0.005657526272299508","0.0632367264209069","0.21064160342746532","-0.08193779968384172","0.5088472963332468","0.8632443451131133","-0.44495297920193383","0.15577925371501125"
"-0.03801552304395457","0.005027032606361725","-0.0433571336647615","0.20808068949298195","0.10488296843463701","0.5483326925614218","0.7994083212040141","-0.5651777319977488","0.10051552258563243"
"-0.15013583438656522","-0.015327569858116043","-0.07526114913767348","0.06047962290519262","-0.07214921472862038","0.947482238821284","0.619630919954993","-0.7445188150117188","0.04099105486625276"
"-0.18539427836566696","-0.0391889861653019","-0.061079062508175394","-0.033870800588532216","0.02636128535496536","1.0144884951126123","0.34021247920403513","-0.9054033602048455","0.000756757446750571"
"-0.08466411973394586","-0.09327084675427712","0.005976164419527087","-0.03163337051945724","-0.03170488779505424","1.052299341654405","-0.056930623710145616","-1.0370397679077579","-0.01859388360641808"
"0.00573883873065768","-0.12266654941374777","0.019232398502643352","0.006492380092604343","0.13570624120683644","0.5018578715553029","-0.34604567568780253","-1.1059186699539503","0.03608475212625172"
"0.08940042507050762","-0.14258914930804625","-0.04467476454718757","-0.009953212289896428","0.12216975306338121","-0.038720743579367424","-0.4811016372274807","-1.1271720526768798","0.09121773568094692"
"0.11424665193537673","-0.05372583629672563","0.05335242955054461","-0.16433973805446733","-0.1704467113743052","-0.14700343619821907","-0.43376099793391504","-1.1188079032998857","0.026095637420426827"
"0.15903893295109964","0.00649048156314364","-0.15370975269402778","0.15870126253822486","0.4187878101771385","-0.5795129244711418","-0.2215779677864733","-1.0588076645513544","0.07603467357081713"
"-0.054007952167189975","0.21079290022476324","0.05529170133518109","-0.26154856510889934","0.04063490899138104","-0.007925046781715","-0.08707928275407673","-1.0201003865196503","0.07598237454094373"
"0.07751702001525727","0.0559928448416922","-0.04065784908273821","-0.049562656309639345","0.10019210620670699","-0.030428082306369626","-0.10070469335710995","-1.0379368691027668","-0.0965635654242827"
"-0.17854863290713574","-0.2006742267892335","0.028503108954245793","-0.011731410800043363","-0.2647856946909103","0.9236745106714132","-0.16835806134108736","-1.0563934069236103","-0.259131831096469"
"0.09926614593125753","-0.18407552260201293","-0.15138014824986382","0.4807217485555214","0.09123878192370379","-0.5898999862939192","-0.1187883160183952","-1.0722641824764867","-0.10989491500795638"
"-0.30450465806677784","0.10793910243886985","0.04100015634084196","-0.1498022191030766","0.06270110783909272","-0.6076405054351584","0.22736398647952544","-0.9633983139292395","-0.036087909099080016"
"-0.04277185054960076","-0.02511852015027754","-0.0534128464649692","-0.12676362118872025","0.3110894426991531","-1.0111099045091663","0.4305748648597348","-0.8609704657226437","-0.00815205542325131"
"-0.071569776803422","0.0624204281652542","0.044940657475119286","0.02221706557505204","-0.1084842506186376","-0.8182454645427818","0.6519808212026861","-0.6763259315264155","0.0893970757034782"
"-0.0332014263783208","0.09750726350568739","0.033191437898125745","0.1442215085627999","-0.09723096786571565","-0.6715403507140674","0.8767583004146902","-0.4860745148613825","0.23326353516186307"
"0.07194807299245212","0.22951058792524595","0.03960817638041067","0.2121916302825474","-0.08942881946619938","-0.3828868149194057","0.9193063617456351","-0.36389724769996007","0.29473123870997736"
"0.11222184287781116","0.1367323490014326","0.161935127472853","0.13993727284533705","0.00030258835999201033","0.3404943807617344","0.792776730767364","-0.39967575418325313","0.26825485483655404"
"0.065642569179805","0.00402152299344839","0.05345775741105203","0.27018766615220163","-0.14179176573399588","0.44463195618588885","0.755940753636055","-0.49116688340952075","0.18820465223653707"
"-0.04947307310816297","0.01763301094719571","-0.13498411129754326","0.10293880573924788","0.1221841128457116","0.5760962409849205","0.6861140072736795","-0.6183441704666541","0.13152557861120862"
"-0.11913305185988371","-0.005116562245972572","-0.08944117051500476","-0.02628722199382328","-0.04405669389625165","0.8877323645042791","0.5173428170434689","-0.8327645487383957","0.06645741372524548"
"-0.18359380621271995","-0.08127054453431724","-0.049133643975334707","-0.16872987622786745","0.04474898662904009","0.8041019555292996","0.21741660082455028","-0.9699286829223183","-0.04524677670566423"
"-0.037226011190790644","-0.14221521104099996","0.039424368937564395","0.009527255654887061","-0.0330092346900654","0.7531131310207589","-0.09273563930298387","-1.0498498452658986","-0.0473174914197153"
"0.0227576332630062","-0.11560327103620713","0.02800744843421091","0.06814503521585308","0.1339734941389684","0.3753201604712803","-0.31500537423222147","-1.0976204839001187","0.03796751720169516"
"0.09790211978201686","-0.05389514723430491","0.10083670736988641","-0.040935457149148466","-0.08753093490153177","-0.007160093069906714","-0.3542655041702051","-1.0963144101015028","0.13064303248209452"
"0.12022479717476074","0.031740870788924694","-0.0895857381666816","-0.02682443627030514","0.01340158180178112","-0.3980548374409849","-0.23879781186147256","-1.048082028205146","0.09059341601183288"
"0.04998905246183021","0.11605148539895697","-0.024621166007442928","-0.06839211297528838","0.49298001888419524","-0.21428150345313424","-0.1440329417982486","-1.0158127705140931","0.15056569417450377"
"0.05273693883857397","0.06846991835213607","-0.023158967473340022","-0.1665155521491788","-0.3404378146015574","0.0084967038094079","-0.11394001040504602","-1.0340582257008168","0.011023710748778065"
"-0.1416245114817247","0.008552958849385508","-0.004445511064639692","-0.3917989584157639","0.1733958832300212","0.607305964125322","-0.15208558732846655","-1.0513406163693693","-0.19697606843658244"
"0.06274640862575971","-0.25130131327766453","-0.040476106892058744","0.07434032888818418","0.1477469186908752","-0.27372559043610417","-0.22079778067627914","-1.0846652872310205","-0.1998132908072159"
"-0.12912711653773942","-0.04847200364472554","0.0603639606568714","0.14606998779370522","0.43771878988271334","-0.9998491645891457","0.08617798335975066","-1.0191505146661113","-0.05780181256465423"
"-0.06334729969851949","-0.03007320218864061","-0.14725583967274022","-0.11956225418498496","-0.13721099517059893","-0.6081016133198144","0.4034633627804884","-0.903371689851443","-0.02403788574730531"
"-0.1167837726870544","0.024925845872006427","-0.035019710667341414","-0.2501496098516499","0.23742375934421112","-0.9894863716024028","0.6812935654856943","-0.7593077920647319","0.013233344760930419"
"-0.08430787658068897","0.024537365561241694","0.06833376876859895","-0.00790014876911227","0.07290133988778547","-0.8757868747806448","0.8425693866929683","-0.589478620250782","0.09221795462727625"
"-0.03686013984420248","0.08034557448308052","0.03741074807492269","0.18923005233614543","-0.03728126993335882","-0.6501837750036839","0.8876809199574085","-0.43786851829429063","0.18802487432134718"
"0.0875029007287814","0.28327460098723184","0.10058887710986898","0.3938817346869488","-0.14776304188638642","-0.21253657414225177","0.8579780821193027","-0.29129801422740764","0.24405021007325775"
"0.07933482291620057","0.14973709095537507","0.13135906914320114","0.07497863187260617","-0.05998408579771815","0.3465373209343316","0.8614610602898125","-0.3268654380765811","0.21180458946692182"
"0.03768614702313654","0.010567862878319826","0.032096854249715374","0.14116959233260726","-0.18057993110545612","0.5775766399830267","0.865835680871972","-0.43106110334392955","0.160894752574506"
"-0.13481737879651853","0.006770104289501572","-0.10641134756969907","0.005910590509668884","0.1484170418662938","0.6236146219405239","0.8104423960481885","-0.5669191637292366","0.06709807684119498"
"-0.09929897359747254","-0.02635459386634715","-0.06204560052224341","-0.04833611331996572","0.0109333745488912","0.8207746458850196","0.6202160602876388","-0.7457853108164371","-0.028346018333129008"
"-0.19504172808359707","-0.09949484146578057","-0.07422439254993385","-0.07085193820183165","-0.09610133165572433","0.9143795464701894","0.30267990643862425","-0.9378177372068555","-0.1942450784703793"
"-0.059216804759405724","-0.09693024818428823","-0.01709125660724633","0.08288569433272354","0.09354113369067762","0.968353437810977","-0.047707697514636535","-1.0540319199543957","-0.15700653485581448"
"0.02134999139797488","-0.11968543045146221","0.03833598104565447","0.022325856279787615","0.15672417594442906","0.44999536894951925","-0.29825921518841153","-1.088148150693996","-0.012720048813758615"
"0.11671724634417997","-0.1256268940278641","0.02216195870126619","-0.09498036866274258","-0.05919429776954626","0.023463780368621266","-0.35186921518889447","-1.0893091051816544","0.04754477704726682"
"0.12372271981201025","-0.01432728499376727","0.08110115766383082","-0.13650664713495034","-0.027588177530634632","-0.5201270826946547","-0.2623706081194811","-1.0687681263488789","-0.012858968111859903"
"0.10387410297766887","0.1338862633022471","-0.05782009458894603","-0.0710021271393427","0.4884566874501198","-0.3286459663822383","-0.1545376039605054","-1.0376334378162195","0.059983774433725136"
"0.04873353605143292","0.05477858419120029","0.0712127302891349","-0.12746642839630404","-0.4727632087761755","0.022335764869736457","-0.08340125780601837","-1.023240240702181","-0.042898223395410565"
"-0.16958478491572568","0.2561744638004619","-0.09264437662573018","-0.45950913774366536","0.7764660550568036","0.1983421005730972","-0.01783767672434677","-1.0049156295276624","-0.1752115002858183"
"0.10769466637344915","-0.4059663353976355","-0.2635006231339212","0.11363495378891354","-0.06112090189887467","-0.09364597329270846","-0.13071403327422007","-1.0546255898628574","-0.1755988399758184"
"-0.16577202035654373","0.011494606550149498","-0.04500313964171068","-0.07774907633214709","0.5490310359138489","-1.3174796906090325","0.2329088877269768","-0.9637017452157866","-0.03275384594464893"
"-0.06947083065720568","-0.11333886708576024","-0.12688625755147334","-0.20225281728001485","-0.04449706055438384","-0.7468222800931695","0.5217453014509926","-0.8426722398773903","-0.08377318393086225"
"-0.12900195002443293","0.014246376708646659","0.0552751793178466","-0.04367833075792411","0.05247215622573917","-0.8821695786577254","0.7461048232825362","-0.6704156177710634","-0.009438284689200955"
"-0.04138539070989823","0.030430009419445826","0.020279274826000362","0.15181760290230142","0.004536570180109878","-0.7173841819832885","0.8607644646557103","-0.5175390200098537","0.12453058336563753"
"0.0004519977724586575","0.17649445139735262","-0.011391160626845174","0.36814743789418897","-0.15363858615657427","-0.49576117131598973","0.8819688357577729","-0.37802659152134904","0.23202143320236915"
"0.09897893692418583","0.32561272255613727","-0.0052990797851830964","0.08113830380975835","0.017422320854292576","-0.13184512121105363","0.901334194385806","-0.29336926257470747","0.26496982202262925"
"0.08573949712015975","0.06820296797816136","0.17194333947322402","-0.08802739105566018","0.012544542126361862","0.43509430362431983","0.8449656756742788","-0.3541214832072904","0.23561699150616736"
"0.04960585036724577","-0.024875460276697462","0.0567022685651137","0.25884647587091797","-0.2216321554910091","0.4308715261543122","0.8417613357574101","-0.44590285105547256","0.12508626055804273"
"-0.2573842799035545","0.001987433853979783","-0.08162419106362129","0.10063783419661056","0.24491477912656873","0.7901473748094469","0.851039989603648","-0.5606790333580722","0.057579653404230956"
"-0.14109496084850498","0.024067865292616928","-0.047066326556355884","-0.19405981818886678","0.01870991466991827","0.8906688936644567","0.6449034095602104","-0.7451124849201805","-0.039127790210473065"
"-0.13755178570259854","-0.19349668949676202","-0.0025938059718760426","-0.08962362989151487","-0.15860467754583696","1.026768526146083","0.2985839241101051","-0.903121029223426","-0.14949181800087616"
"-0.04725858864197143","-0.16230400572065234","-0.019687278580929026","0.2954020781612694","0.04629266322955787","0.8735108265880462","-0.1380979469957003","-1.0495200286500865","-0.04346370665591702"
"0.06814589944593456","-0.07982568861914678","-0.0014124817324595706","0.13924409313374755","0.2186579171354359","0.25142775251502103","-0.32066173078112875","-1.0785702761708134","0.17392047970235686"
"0.1355316989328099","-0.07476401868771215","0.02518693354999575","-0.31533738522904514","-0.2428271942106766","0.01849837651595708","-0.36582899169629673","-1.0920531794252109","0.15810002316564467"
"0.19011200128909939","-0.03955565341048893","-0.08595502485742607","0.11877603664986894","0.12499863018246962","-0.38007162993940063","-0.24646036383659364","-1.0615517387949107","0.11650595096943331"
"0.053707460726365744","0.18634149242957104","-0.0639683502895454","-0.053579247638460684","0.20769183002912192","-0.14467605482250795","-0.14297411643441374","-1.0289922424819433","0.14321114309855287"
"0.05593253620522167","0.03513020569273574","0.057621305779345044","-0.0434751905924444","-0.4333216733086822","0.01995280785950627","-0.02931757277434628","-1.0098892640941086","-0.008163495836036134"
"-0.34848624520400806","-0.06764049470048071","-0.05007126845906736","-0.3530964245186839","0.038133913568836705","0.9307852796295296","-0.1040204885754348","-1.0442693481263583","-0.21923093999240992"
"0.17955565012069766","-0.25488488833685796","-0.16914957789311438","0.3985606977401779","0.027960007787749683","-0.5329652969569194","-0.2052219022977605","-1.0892035638645947","-0.1580149255255615"
"-0.48118200569553743","0.0817187588970671","-0.0012633705260157455","-0.25144932181088026","1.0013641793213879","-0.8714912908025335","0.3057170634033087","-0.9429232984196262","-0.07006756941465682"
"-0.022369708880644806","-0.1377175646623601","-0.17748493563836767","-0.17395760655277154","0.2948389556952527","-1.0953713032210433","0.5327793762951671","-0.8268806203123084","-0.06527730514718746"
"-0.13126457545728082","0.08588297698759069","0.1386907143353838","0.018571132842011194","-0.15330113127180994","-0.9877390154079169","0.787231829519913","-0.6232650343745701","0.06832546969853702"
"-0.029369405432476334","0.04634731498671537","0.032229030388391346","0.1351909173201479","-0.005617231905714588","-0.653144572999896","0.8617396985434532","-0.4647551688152904","0.1795426254137504"
"0.04350638989188778","0.21627732814144185","0.013619249638464982","0.2612533498694926","-0.2506652420660189","-0.4309876479398378","0.9089131548848343","-0.33471507353290825","0.22924304724034325"
"0.11674227964684127","0.24553799753781244","0.1045644875309821","0.03612783453721396","-0.043601967455789044","0.06567650839035648","0.9256035862779158","-0.2791211847716262","0.2375945485732564"
"0.07799746686248751","0.022314510307133308","0.12212532670538465","0.11660022255515748","-0.22027036946667636","0.32680675723826125","0.9305354833673575","-0.34359373683056915","0.16367313853653187"
"0.03288552982816654","-0.002543139866508313","-0.07778282203335095","0.2379355545713016","0.0317916763729109","0.42242597121429687","0.8848945374210008","-0.4358500406055208","0.07701691472562748"
"-0.2003083498358004","0.01463111763674093","-0.05099237092546552","-0.11095527276608211","-0.03313368613692886","0.8194398599031207","0.8273557380441829","-0.5856263621780969","0.0005884199443454739"
"-0.2293277245362408","-0.08703023256423825","-0.07061639701451326","-0.15186250324585646","-0.024565922009496848","1.0413055589307645","0.6853616839888496","-0.7391494005062982","-0.1337024140131513"
"-0.128896039897789","-0.10577700435215791","0.012773941926588825","-0.016234190676576776","-0.14930193189279406","1.2240741631067857","0.30736102909978913","-0.9069996726253758","-0.2003575275868363"
"-0.03063069875887237","-0.14244372887086154","0.0147638123893122","0.13279367081756757","0.06262691563038567","0.842859286676439","-0.07682539502009657","-1.0337547944142698","-0.1288010143072009"
"0.059289887219834664","-0.08908793175040121","0.014185128732171474","-0.02211177698109602","0.24027178283974002","0.1166119414596213","-0.3234481133175364","-1.1028315864299492","-0.004242702940212511"
"0.12409147961659779","-0.09205554738637672","0.07555182509160695","-0.3704162898124269","-0.17405341003629018","-0.023040648617459664","-0.32835214658161394","-1.1028315864299492","-0.06418883158794672"
"0.1871330382724052","-0.0757321033123986","-0.0765539969940978","0.06105438441605223","-0.05513526596415374","-0.4031512930082356","-0.23570492724606007","-1.0613802341546885","-0.09678256761187766"
"0.05354185580106794","0.16339622487664857","-0.12032495141751158","-0.029088823328164145","0.4360674149147175","-0.2890392259738906","-0.10739201144448816","-1.023081928726591","-0.04906787457579162"
"0.044785976785613225","0.06669267286625782","0.06512849740570671","0.03222869865952306","-0.39754188233544036","0.1270281258856402","-0.09148176716160056","-1.0215120016353256","-0.1262677800477067"
"-0.1901217212913194","-0.06574379671262935","0.03731987697958296","-0.06640596055166459","0.05183553920909152","0.6514024392000571","-0.1312991736068658","-1.0502588178695056","-0.25367311985342983"
"0.06314982992633983","-0.12280158267684779","-0.025395635569997434","0.15420522190888747","0.14144058095077539","-0.6230512163170828","-0.10817219855468246","-1.068359153745272","-0.17473263729353974"
"-0.23813752143435063","0.01170203841661933","-0.0687308217862139","-0.1031377460187117","0.5082492540955184","-1.0020818975043222","0.19855279105307072","-0.9773165751165087","-0.07967588180921582"
"-0.05852357483955446","-0.03176319541220806","-0.1489039109018562","-0.12017841392862007","0.20502569710977797","-1.0230501718381535","0.49201459978752327","-0.8341761638540712","-0.042399748266929445"
"-0.11266290594127192","0.06587727970061527","0.09553313980551316","-0.12212316811946837","-0.039334718806605745","-0.9654602239282213","0.7353772505173668","-0.632143697672231","0.028972084063465395"
"-0.028204394039392938","0.06051438172072668","0.03952969679807181","0.07406883350114496","-0.0012643032219599238","-0.735925572713667","0.9294766580035231","-0.4480268700613023","0.11644057718209153"
"0.06918381868704519","0.25208191721112216","0.04470728398026953","0.19747118890726495","-0.12135779547783945","-0.3827897395752676","0.9505417099787643","-0.32679947475341864","0.19132625058210737"
"0.09004570658756916","0.16222247420508668","0.1840106078839066","-0.00426856100510293","0.06866281080326297","0.32525355173205156","0.8727459095622634","-0.3551373183839915","0.17486839961881276"
"0.06831535564856488","-0.02820039470118388","0.12026866500742064","0.24093933332152276","-0.19524844875595773","0.39573025157631736","0.8485601091462448","-0.4355202239897087","0.07941940141043811"
"0.011570635431406424","0.004522517173897714","-0.07313806991019073","0.26856061932916514","-0.005960430703411101","0.42759523328965104","0.8083804729712469","-0.5309955379349861","0.003942095234979092"
"-0.2000387604225249","-0.014543338214727338","-0.06811537664050392","-0.032791558287571354","-0.18501471054849403","0.9338674218059144","0.709686803531688","-0.720310275411113","-0.11379119273352682"
"-0.26458616851534256","-0.13167222934511208","-0.026486088714074176","-0.19832479891434104","-0.09348545797453683","1.078776641768074","0.4037420010341291","-0.8776196084888368","-0.2559285155167215"
"-0.08481817082724613","-0.1609432859155673","-0.03990196678968501","0.16470882003866713","-0.09172159804495293","1.1522141396085521","0.007128310801865902","-0.999572600351507","-0.2462368515433017"
"0.04227301832615239","-0.11512546102831464","-0.011438661426681849","0.19281148084602448","0.057237210662376255","0.6668616877540507","-0.2955564241280962","-1.0929898586141171","-0.03617452936730788"
"0.10403239047603491","-0.0820558148951144","0.05777826494402276","-0.12094861360816395","-0.012754522383333435","0.08291708950928431","-0.44627185552238535","-1.1205757203606386","0.04272836326486072"
"0.1494771741538178","-0.06946032760010588","-0.023805391401552183","-0.029151402052127084","-0.06873397983104071","-0.4749142411623313","-0.382380103962558","-1.1026205037958297","0.05099324432954601"
"0.10359921805806119","0.04816507045152363","0.1052005851983602","-0.01432505822090738","0.24242575018929974","-0.45447988122125976","-0.198813222464023","-1.0450477153396749","0.10949461227702675"
"0.033009733522139886","0.13612989290452474","-0.008816617275697318","-0.08874560225683485","-0.009921815988956913","-0.050476567754492205","-0.076323846163543","-1.015588495215341","0.05186925307992593"
"-0.016737215781853297","0.36424262297683385","0.09576651330036293","-0.2957358033846534","0.5514243329689152","-0.05755821410936712","-0.039181366953228984","-1.0195990652636158","-0.06164088822630061"
"0.09435750040711072","-0.7437987853257709","-0.40525953186389774","0.18050754096531096","-0.501243443731465","0.630943810422951","-0.3458506289102541","-1.1050611467528388","-0.18640676136809917"
"0.05188580654808992","-0.02726451031615974","-0.17452336403115926","0.20593375788625337","0.21816968453620234","-1.1403414563930214","-0.13492147090419565","-1.0791771387439077","-0.02738338931452121"
"-0.21625263799237945","-0.03742524400573365","0.0008045664686131239","-0.07240966705370915","-0.1657917486022012","-0.6224687642522542","0.2665683887667813","-0.9581872113994088","0.03305140839359285"
"-0.07965745920168674","0.017495900249278742","-0.056644966106029995","-0.22649485219365847","0.25637867202033654","-1.1451224170918233","0.5551261642371561","-0.8360231369026189","0.06686109686208103"
