"AccX","AccY","AccZ","GyroX","GyroY","GyroZ","MagX","MagY","MagZ"
"-0.09964558855739818","0.14597693393674316","0.04660525072156977","-0.08760955772950763","0.1416033251505199","-0.7201508292912245","0.690739402284116","0.728442191204976","0.3472427333922669"
"0.03664630214335964","0.11067092922312453","0.14238131995747688","0.054983285442047586","0.06838758164193035","-0.3015619453677064","0.5793119646531745","0.7928223946114915","0.27570746659351764"
"0.07512248833377103","0.07875425941331694","0.004752089460257606","0.4585785077686348","-0.012306736504330522","0.22220807392945083","0.55426238565087","0.8403423726176944","-0.057200373721109796"
"0.1488946684572761","0.031525856285373084","-0.17734656374319127","-0.14693322529677563","-0.41637713015881245","0.6262841939043219","0.7629624376278025","0.7651177988832778","-0.23469837807747648"
"0.08588295720079564","-0.19228139012886164","-0.15398443123221378","-0.05525250644226977","0.30733196632269894","0.2992130906670043","0.9553342879413855","0.7019777059522158","-0.188998832036201"
"0.06868122699515304","-0.005328460597298791","-0.08047797611104061","0.088170226883994","-0.023206768611924677","-0.005915344469695836","0.9729442255714822","0.7048405141774645","-0.1917477997939231"
"-0.1295411288509839","0.1750506341995906","0.19070202490437752","-0.021721863393326928","0.4224734876419407","-0.6954936918801453","0.9748111018708752","0.7195239499134177","-0.01088304538945443"
"0.02415372129604","0.19531601083868153","-0.037508339528349886","-0.2459135116141586","-0.020353719192580087","0.7033134794779099","1.0355263773391972","0.7099460753902351","0.10256662516348097"
"-0.22538979346375232","-0.136304908986852","0.14482864377514912","0.1344399726325926","-0.1270514491718423","0.9527728450768108","1.3419448648679457","0.5256577431390842","0.07655439518018435"
"-0.09797991111108888","0.03736033196870336","-0.05172966594901741","0.2882777311254885","-0.17027439398634045","1.021235231530211","1.5353198128946357","0.4350109444492955","-0.15207571694556027"
"-0.08167937980125294","-0.05553528202226619","-0.04361529018561301","0.021603794080215226","-0.19808450576621134","1.0675887083561573","1.7217288045803072","0.1955904666989993","-0.34495127042939855"
"-0.033817630751521936","-0.15879314088005125","-0.05816912220513726","-0.24616382651001037","-0.1295045786532853","0.8945276385939466","1.8061561954334586","-0.0014762805151744892","-0.4494839563889143"
"0.1887563516680569","-0.41978127693017825","-0.09470136778387495","-0.2549922403367821","0.015819769146220155","-0.2358637793386389","1.8106144074917105","-0.06739079081844786","-0.563855397343369"
"0.0484629838188243","-0.05471469526958132","0.04380063827903905","-0.22022735230137017","-0.013234617772579746","-0.6933337654730725","1.732595696472297","0.07372982348875645","-0.46375178547625917"
"0.004372598096950817","-0.026340051822628684","0.0509939115760453","-0.15240164302153716","0.2891907746452961","-0.7061477108993025","1.6102735031240016","0.19792556833894873","-0.28211071734710674"
"-0.2251587168238019","0.035008675755945705","-0.11467029098478031","0.16834801352451195","0.32753139346745885","-0.9419922594828339","1.433616850315757","0.2958547179058678","-0.04924111511224735"
"-0.20770280231421387","0.050997652824399116","0.00901057747065897","0.04769334547516475","0.6578542530077156","-1.044552360564744","1.132966174637373","0.4547999413980195","0.25006459850870205"
"-0.13320947051019683","0.07222384306631723","0.07986200636374362","0.035735032700646575","-0.0165337777629887","-1.1644889482473755","0.7972628066509803","0.6642598777679475","0.38533930796569277"
"-0.04289701706290724","0.13910062469272566","0.04307160426415441","0.027131902280141427","0.152320509363107","-0.60421859955429","0.5046926403281782","0.8134425294320621","0.33645605848087223"
"0.06848384903186205","0.16630463362034173","0.1851795406103222","0.2786983726111615","-0.06303553954292775","-0.09045704823777165","0.35707009354930136","0.8652501234438216","0.18405341674033365"
"0.10477924943274135","0.049786508326132586","-0.02148198271388867","0.290713487612046","-0.10863502833310679","0.40315651540288255","0.45698977130487933","0.8367407751730266","-0.13036508216935314"
"0.10231481706767011","-0.06732784076053369","-0.130812301920583","-0.10103895189195462","-0.10538014433821656","0.5690340096988732","0.6904607640304752","0.7443261594224853","-0.21620576798316876"
"0.023941901042752112","-0.10277511104170313","0.221007535200177","0.14835170434435394","0.36094182035618505","0.005302682298903828","0.8768418918907823","0.674193954236207","-0.1048398869017528"
"-0.021281723034211573","-0.14305657214185408","0.005931968023157309","-0.15160256085401042","0.15050878349242175","0.3096244213258163","0.9025044750510968","0.6811201031682604","-0.039109812418954074"
"-0.03220972246520026","0.5158642030900116","-0.1063328679873602","0.17537608560034987","0.2618114563353371","-0.34675051806399526","0.7473308315985553","0.7687853596511081","0.0926216377641118"
"-0.018980584828038622","0.10105656089040156","-0.053770135089827684","-0.30737544604176026","-0.2027729746970863","1.008154328907601","0.9231515696458774","0.6968061814162825","0.13347044878462677"
"-0.09869239741760269","0.013193844358652253","0.05919709318262261","0.2119894528666671","-0.23849532654100655","0.5258597503934501","1.2134926299395534","0.555961293799897","0.06550949380878959"
"-0.07262887806986143","0.016850856738623927","-0.06542435306714786","0.20675209504576872","-0.20907691914013105","1.1210772229762542","1.4074248544735255","0.44809806776471833","-0.13711656005707606"
"-0.06117132800565303","-0.049497217726877395","-0.00581167537298584","-0.05194931256662596","-0.15013719256501223","0.9346682933950539","1.6058152910657493","0.2336381114990794","-0.2922599978319191"
"-0.051023212234497024","-0.09054732970929011","-0.07694226440145845","-0.1670643194208538","-0.1221930561500576","0.8422040281035067","1.7521003742271504","0.0594289750271452","-0.396138945918017"
"0.18116066994901994","-0.38949227729943037","-0.09080423694510067","-0.38852560977770245","-0.04389873629061726","0.05305185988519563","1.7548867567635575","-0.035525228665149115","-0.47009304284841236"
"0.08695524909209891","-0.06857534036809639","0.049440841946602664","-0.21426793228089938","-0.07647390250712525","-0.648994602037992","1.6991591060354054","0.10441596142391125","-0.4106355832610581"
"0.039117859371496026","-0.02667867369778725","0.011830348864094085","-0.3205073505779834","0.18374689299318314","-0.6254538310845009","1.5642981912732756","0.21820269387907465","-0.2535260288319109"
"-0.2400727882939354","0.018937640012223804","-0.022109819372599523","0.17514502569648668","0.3596733729169999","-0.927576570878325","1.431387744286631","0.3367255929372993","-0.029561970777686228"
"-0.18570238055226757","-0.0036462577542948093","0.045463166273322725","0.21023724859570478","0.348712072404796","-0.8700594294764965","1.2739571309795994","0.45279465637388217","0.13031616354538558"
"-0.07521886207597242","0.09157722582077861","0.026834385203461687","0.08575757638782278","-0.11940486508090532","-1.1653140886725495","1.0291176975054597","0.6098533288235889","0.12345191587449807"
"-0.06260592881201191","0.11266526664737131","0.08849889092535144","-0.06460080505273362","0.22763278109193466","-0.6191196648794894","0.7494763461515893","0.760882953536251","0.14361972926943903"
"0.04412933400042078","0.10164655237840789","0.13581588331918149","0.07947274700274472","-0.003232790049751991","-0.11790267490921799","0.5794791476053591","0.8043791688295464","0.08738846608740183"
"0.09509118799533997","0.05767764447821735","0.0633730330639165","0.5471707259081697","0.22352588334544082","0.07950003739562293","0.6051138669403094","0.8014108192872378","-0.18015702729822441"
"0.15718454291549747","-0.00818431024012383","-0.2104236424468525","-0.178713589573955","-0.35142304808431196","0.4694832442852443","0.7632968035321708","0.7486269680926745","-0.32144939388002647"
"0.05529514980669176","-0.0899698028301853","0.12871348111751496","0.016163296093837137","0.287635131559503","0.0008520204585319602","0.8546344230756135","0.7404211306912702","-0.15948093270670108"
"0.0568221812690308","0.007367055184144603","-0.029619076251127998","-0.2373835501632101","0.08565043330012387","0.17960170538723558","0.8450492671503717","0.7595504944083701","-0.08737201092402759"
"-0.09765255253782579","0.37464018423553713","0.1725629151232676","0.2846674201276266","0.4534427515344992","-0.9492971791292265","0.8201111434495232","0.7716085898824594","0.028074828832199392"
"0.0033289019398414013","0.14893727855085948","-0.16656388218026574","-0.4538289151070293","-0.18844191193134907","0.7682568847063036","0.9261887266105616","0.7587721271950537","0.03852319439410033"
"-0.2112074646867953","-0.10470712542144218","0.13980388525329548","0.03312309303739339","-0.11538651932544894","0.7631846979750876","1.1392076715189257","0.6506978185257555","0.09531013476854275"
"-0.0786561270952349","0.027905926116883504","-0.025160196822980863","0.26876279674504544","-0.22046901312224682","0.9841524500694538","1.35448358628178","0.5585074780739662","-0.09307750821428194"
"-0.10444042883636943","-0.048819973976560266","-0.001976295573999252","0.04856174561385049","-0.21590499563823537","1.079844470553593","1.572935977136139","0.3320026189988705","-0.2875857720369813"
"-0.04694085826203961","-0.06701103195095282","-0.05907989841070136","-0.20823149229247423","-0.19783320957542938","0.8987261472279197","1.789159261961372","0.08428395519474263","-0.4283028492901757"
"0.12975189447604998","-0.3316357176481048","-0.10408174312553511","-0.2179263807587328","-0.08824413742394153","0.2256324066939226","1.796125218302391","-0.02051857264570003","-0.522604537530702"
"0.11172117682458525","-0.16655235992126138","-0.03318989724754597","-0.23498630366062975","0.055920897282089765","-0.620527257369492","1.6938649792162308","0.11043181649632337","-0.4911270589256321"
"0.05367472486903943","-0.03193873865423811","0.004615576292031332","-0.23045175304731516","0.17719883225052163","-0.6143629730167222","1.6294995426252141","0.21663276678780916","-0.3628636881610479"
"-0.28036677738529003","-0.01437194984233113","-0.026217605932388612","0.11860274172197156","0.5597290737499956","-1.003076919781738","1.510521008320608","0.31448276036693346","-0.12827312097441598"
"-0.1560090323186384","-0.015346266771468354","0.03906914556487273","0.1512110706546606","0.4785484376421451","-0.8614439926842394","1.3168674220402772","0.46859946860359647","0.08858153770638941"
"-0.09545732445829677","0.06032845130461201","0.02901900894551544","0.12125030312040365","-0.23127235602881635","-1.1524273367382158","1.0576502546782744","0.6088111083176228","0.11926799348462376"
"-0.0650707463048164","0.10927904789578563","0.07975254799890258","0.021204252996451838","0.32432437541367004","-0.5544189480114411","0.7414237006213713","0.7225714554435211","0.17403488383020496"
"0.02855573128709552","0.10319216388219915","0.14004138925247886","0.18461848175487644","0.129593760528197","-0.22152332412583703","0.5606989293099714","0.7840492726308905","0.10041255887056913"
"0.08193154665764343","0.12311476377649762","0.0840730555318733","0.5699012439507084","0.08308242556003768","0.14193647186165","0.5076740696421341","0.7855004657404636","-0.13642686660062023"
"0.15389170079620398","-0.027483679689345196","-0.0805936302323821","-0.1445937437701611","-0.32141110301378","0.4039088493199529","0.6019095270234407","0.7510939963789488","-0.3146178331028099"
"0.07327772649150016","-0.09682429900862512","-0.1289370529531177","-0.1290742202273519","0.3043642779744167","0.022699797410254362","0.6890675727622716","0.7373208545026368","-0.22597097746734804"
"0.07565589024432325","0.09034530697434284","0.029826935593172295","-0.16466707291827348","-0.010332745093311804","-0.03163181657368215","0.67976105509067","0.7369778452221922","-0.15297950955556044"
"-0.3908888086349103","-0.5993651296791492","0.0004284840490366575","0.203921611223445","0.8102594094743403","-0.5700966160897454","0.7491698440725846","0.7062257439638752","0.04352265478106342"
"0.07807738086713703","0.39995372747975266","-0.16220206960395878","-0.09743826839008699","0.13002694729516404","0.4602610865921241","0.6253987318053569","0.7826904281737449","0.06442592328359949"
"-0.13466332770321826","-0.17627475486446437","0.11180113112349138","0.016496407455239864","0.0030611025456614782","1.2042950617386465","0.8961236590427233","0.667769126560188","0.154929394479568"
"-0.06544624584473585","0.11620729301022623","-0.15195222310007075","0.2339979087096335","-0.022575416848798175","0.6987752071394534","1.1143252754688058","0.5804864573516823","0.009739115827511968"
"-0.11374126359437386","-0.09597151201627793","0.01070212225788635","-0.02452635297646608","-0.2365735090057883","1.0425675384045598","1.412161704785418","0.3491926610149954","-0.1592995204468276"
"-0.039681200490263864","-0.05180524780847965","0.009457312166862077","-0.20348513676728505","-0.1893824776739901","0.8099992826856897","1.548415810815752","0.17139511976302596","-0.27513206554837116"
"0.01809373641334019","-0.14788660809120172","-0.14154748268367184","0.03766245739870514","-0.11852891835875103","0.5891043370994268","1.5721000623752168","0.032798262200015596","-0.40491537686865176"
"0.169873538906775","-0.3510805075345108","-0.1483979241209873","-0.48105547377890545","0.07961453812724656","-0.2525388965779623","1.5060627962623556","0.035555529108204496","-0.45311220158638343"
"0.08232533976489229","-0.0756749738549332","0.0409030894890018","-0.1490320194235327","0.07740313164836526","-0.5587388008255868","1.4436478274468245","0.14661929558322342","-0.3296538041914206"
"0.015126327228643538","-0.01283568679521604","0.01844058082188763","-0.06346379777580698","0.16678799006098305","-0.7845117824547896","1.3968366008351762","0.24103919635790222","-0.15001480829961047"
"-0.19531131749687256","0.037540030080367257","-0.13980234460271568","0.0637914815272313","0.6378702225979116","-0.9057831561193199","1.232217120584213","0.3524776345084837","0.07954197726170396"
"-0.19793981427630863","0.01803187843204506","0.019061602148447997","0.10894636323969015","0.5674594232378598","-0.7225291752226081","0.9498451143446625","0.4733224425420253","0.3695188514289805"
"-0.14399304704121652","0.06891137325073235","0.008638336420112774","-0.053430021450549064","-0.016256633964012016","-1.1800695409815418","0.5885348908486839","0.6881781787466388","0.4508274994353268"
"-0.05355542708062042","0.0935331307009123","0.08779877044080218","0.08282792935675774","0.2673399725325404","-0.5869149194616725","0.305884246355493","0.8094319593837874","0.4638695700100131"
"0.014654545755411433","0.07748702417499348","0.10453350874847993","0.1158203953796193","0.1407656711812467","-0.21645599116182787","0.19384380456654188","0.8497619351652869","0.3821033054922743"
"0.08453115885708569","0.1344991065732396","0.04766472508314433","0.6566642378513267","-0.02769348260105755","0.1816524220321531","0.21655282223826414","0.8843003311731268","0.09342736969309931"
"0.15889547287046374","0.02518033163707958","-0.0390923879402947","-0.14476703869805846","-0.4039319854724675","0.5057651541568619","0.43129932431920087","0.8195771184861664","-0.0805355471127603"
"0.08953849336287799","-0.1154890121212763","-0.15035578317512507","-0.042125415654043756","0.015498588681430251","0.27642465363058366","0.6922161850284121","0.7382575336915431","-0.049715075070475304"
"-0.05531738646024237","-0.337701827313522","-0.09662618280334374","-0.09897866774917476","0.12177485904929526","0.08772474592772407","0.7723804106008598","0.71395664543851","-0.016465966828442945"
"0.014673802142073958","0.44780743848759047","-0.19309411151513287","-0.11515286101959624","0.09967276074575758","-0.0721389307989108","0.6905443555065677","0.7654608081637224","0.19126087679476556"
"-0.03366357965822164","0.041532859798494644","0.08284216524045335","0.03100215566984943","-0.18903066300689536","1.1727698437297962","0.928473560290416","0.6623997120547676","0.18341602231375126"
"-0.1274421827047676","0.0786794717599077","0.05449451399879166","0.1979044262270084","-0.26588661133624086","0.6956930649630685","1.2450623440770519","0.5146154828416962","0.035197302963086964"
"-0.10789695024229447","-0.03275309310247221","-0.03950543837365711","0.10381490787472905","-0.304562291746113","1.1654163864113345","1.4754125883618718","0.35902119616619504","-0.16845511936404473"
"-0.0630199411252564","-0.011800085538979564","-0.08220039641816183","-0.07893518383864467","-0.15791780129103292","0.9409053842559273","1.6679516216276395","0.1600098501851934","-0.3980838160914351"
"0.06415019921345852","-0.2528386150421881","-0.16003355482880616","-0.1703569230509039","-0.13982208225767628","0.7285530689538178","1.8184162785936522","-0.03419276953726837","-0.6029816090674278"
"0.1390517664147213","-0.3052626826472582","-0.038650423976596925","-0.05609876334016862","-0.047256532058875346","-0.3217778857844672","1.7716050519820035","-0.018795610644697786","-0.6732747739066832"
"0.07025639942414841","-0.041682946663018826","0.027072095727861754","-0.07711847534452054","0.015153953905500698","-0.534931072675716","1.7364966320232673","0.04580227172825382","-0.5908547715155266"
"0.03874332265090971","2.1245671502327465e-05","0.05207197320712117","-0.4051137853758788","0.18556101216092344","-0.622735721448634","1.5927192931446335","0.17278034954943663","-0.3496418396711717"
"-0.34084145969898155","0.05046271335904126","-0.011091699062657433","0.09161013120275684","0.19743655214816264","-1.0565411655658004","1.4885085862829874","0.2782820886154009","-0.08805189831238217"
"-0.19921073579603593","0.0794959036429587","0.016413535820161636","0.12456216174244235","0.7726846457097987","-0.6892080633472029","1.3834619646604194","0.37964133098676556","0.11853253837702865"
"-0.10468113366965111","0.06205376092006716","-0.1317581874129829","-0.09258889865775881","-0.31490133502399953","-1.414336615222829","1.1572077027041192","0.5629270207258479","0.1200197920390543"
"-0.035974346057725856","0.09727043593655808","0.030447130818865947","-0.13400349817643273","-0.020285031567099685","-0.38754643143803486","0.954972058211653","0.6907111703560753","0.11291039266563509"
"0.043538162929880955","0.1053038763736021","0.08736919799010529","-0.02447725274689516","0.3257842866172605","-0.15630082728304626","0.7849191320146943","0.7317931280216265","0.13848788696310885"
"0.057305516574260425","0.055583590182758234","0.08297434137912933","0.6086615428237543","0.17217051513782725","0.2258362649166126","0.7776745374200343","0.7419778651179032","-0.08306224399352033"
"0.15310315176237316","-0.004539346982090315","-0.1536292078595221","-0.12941118258715234","0.018245615041235397","0.5184820242389538","0.9304797557166293","0.6830066542107055","-0.2570235264546964"
"0.045638071895430406","-0.15330871296337265","0.037924995864458876","0.12923149729967712","0.25688126440190046","-0.13687605092101104","1.0298421569649259","0.6630329599571267","-0.1071099916671963"
"-0.021368376774192968","-0.2817772820419355","-0.17840810335693266","0.08167262983744192","0.31664189186690705","0.23388623782926515","1.0138204573805818","0.6541015260009359","-0.09601769429997878"
"-0.009901198516653326","0.4187752869210815","-0.20509529185647743","0.02869059388161836","0.10384427751273823","-0.110670561770929","0.9319008108101973","0.694009336514196","0.040538341388910895"
"-0.038044407623948374","0.07249494830992578","0.005400165590203215","-0.15686880116289167","-0.09555805322422428","1.1464866943044036","1.1110652079012084","0.6099852554699137","0.05526542133233173"
"-0.07036625263701356","0.027962016856940445","-0.037047788295150805","0.31646703939679455","-0.20425442557417237","0.7151809402987934","1.316588783786636","0.4968977342402719","0.028973718408148955"
"-0.11799692504679413","-0.058508091245284034","0.030342216008791893","0.307580860594057","-0.16406857472255343","1.2311121255567987","1.5186015176761898","0.3138231271353093","-0.15370842728442138"
"-0.06916272847060512","-0.0013882938517804173","0.015755753005032007","0.042902703468401825","-0.05305788412035616","0.8748698814059799","1.6484469438727865","0.06411237097167656","-0.31512447995470866"
"-0.0005281523086643696","-0.16492157358997622","-0.1125368854964635","-0.17147371258624253","-0.04367615966449609","0.7757316862049379","1.7927815592587018","-0.20161823785517996","-0.5215422134863978"
"0.18786092968824905","-0.35746861959655124","-0.054596235956552476","-0.5063372782599334","0.049281891251335745","-0.3105171458644468","1.7599022453290913","-0.19863537638177564","-0.5803132483066634"
"0.07978060826743827","-0.05994879229082063","0.10631169086410507","-0.2869940370218303","0.0017792526429679452","-0.5641022135892172","1.647053752604582","-0.02697770124976357","-0.4580969528711946"
"0.021070773791368125","-0.010963918025167767","0.08392642262802964","-0.23310894194174156","0.23285256196903437","-0.8081010910803497","1.5793446569698764","0.11202812891685376","-0.26372433965722947"
"-0.1868192509786946","-0.06017938755549916","-0.012890533699950696","0.2335069064139243","0.17393916166152126","-0.957378701528724","1.4305518295257087","0.2670287456838931","-0.06929615872402375"
"-0.12001884564636028","0.16532823925638762","0.22431193866707622","0.5976380599102824","0.36127688194389435","-0.6497954736271314","1.2864958523934336","0.43038031916329406","0.08996419330866819"
"-0.21911221141176596","0.18424328326447809","-0.19140680049484743","-0.5200853425397916","-0.024378766179790665","-1.4021779283695308","1.051046528066988","0.6528614155254825","0.09641331742993538"
"0.00014100712785872208","0.04294655419141124","0.02035651525703913","-0.3676243159740803","0.16216653344764992","-0.1966671822592747","0.9170493918911446","0.6669907593468716","0.18416782086818181"
"0.040767168889142155","0.06561656163109134","0.16126598577080592","0.01194741559793382","-0.11474032912058103","-0.06504272314241517","0.9214797401240328","0.6730198070839162","0.16195707661880998"
"0.07574350680363778","0.09714163497790877","-0.1290423808136251","0.5707677185901954","-0.13880014441516297","0.10427123833606443","0.9679287370059483","0.6863443983627237","-0.10600027162706949"
"0.1278493634737915","-0.06553397579612005","-0.29774250405966435","-0.29636159062428274","0.05027032293507813","0.31768167488927923","1.1085574636184417","0.660420812359895","-0.20520335957354618"
"0.10425066161885475","-0.15586395778818882","-0.0013127300528025503","0.272007262895124","-0.33847531101640305","-0.3747082171757702","1.0613004158009682","0.7049988261530541","-0.1791306588369584"
"-0.019153892308001446","0.053263095492254435","-0.2762019239598151","-0.17596975321557995","0.3276271253496616","-0.22313234795492615","1.0490681964661386","0.7027033025070022","-0.07387722687199941"
"-0.08266145552104223","0.14528099327307373","-0.04658512280148869","-0.13257862876927654","-0.12252333114365677","0.5666556637674895","1.126446039502179","0.6783628362600717","0.06969668488803099"
"-0.07330285160305015","-0.009505558783687317","0.14330655292820865","0.17153471469862477","-0.023311355693231076","0.8475674408671371","1.3349789085269268","0.5811592832479391","0.04008889660093612"
"-0.11333687947446064","0.10998537573353971","-0.13705968972518934","0.17240118933811163","-0.15978457299398466","1.1614848349737412","1.5656913825414793","0.4412378821558273","-0.05396763993705848"
"-0.10610610628267866","-0.10628597588230422","0.029591496846155724","0.05070963997017849","-0.3021211287499453","0.9941754793517136","1.7540508420026355","0.21229238012372242","-0.2152104520708901"
"-0.049405675754844086","-0.07522728665188613","-0.05705182078289196","-0.12793817570002466","-0.16619860910156245","0.9195488085455437","1.8816671621701055","0.005672824449167902","-0.40756301525599403"
"0.12378819152666286","-0.3551418926015966","-0.13497171978454237","-0.06680550163542798","-0.05052338253904091","0.1727942968795508","1.8557538045815143","-0.12352425956319854","-0.5361369115104517"
"0.08401508769452973","-0.1493304252889637","0.04535370790848169","0.01570310178530967","0.07968155044478842","-0.39288557536563073","1.8064348336870995","-0.06266781688001904","-0.4977788417876587"
"0.06171426630064784","-0.03649974679479414","0.1045479655136476","-0.20092422283280167","0.03633654748048189","-0.5339117815622658","1.6732457484468142","-0.0005923719847981424","-0.3631088398635796"
"-0.009227224983464613","0.029603190362310183","0.09029772556264472","-0.12475147452591187","0.03791851683388074","-0.877825457007545","1.5835242307744881","0.12709415192714904","-0.164803993341006"
"-0.15838719607146148","-0.0297875549013136","-0.08143212261210778","0.19121331651097093","0.5466856047998839","-1.0368348707057646","1.461759313933474","0.27614487694493867","-0.016421839521987242"
