"AccX","AccY","AccZ","GyroX","GyroY","GyroZ","MagX","MagY","MagZ"
"-0.10737702780240603","0.008352382517811523","-0.1311241549977716","0.22542943727470782","0.37539733456878577","-0.704279010524644","1.47123301455726","0.37016899778064294","-0.08687680448491356"
"-0.24814121430553762","0.1830903069410854","0.09566944644852277","0.2600210303822224","0.5696373235579703","-0.6360593124315892","1.2527248960521729","0.48640956585744816","0.0939291135109475"
"-0.1248618268919879","0.11013079617072437","-0.06888158519439117","-0.1613070768162633","-0.10649781406293253","-1.1789531745239537","0.9497893866939345","0.6673205759626836","0.05335323805258448"
"0.0201233595675714","0.08399874360864089","0.08063854117846493","-0.08136516382760561","0.17152911152706946","-0.21793396327633052","0.7771729885634814","0.7336664863994391","0.06476423263309324"
"0.05237780722731769","0.12048680873308912","0.15605741980610602","0.29255233934695707","-0.021005653310380158","-0.052702020018858306","0.6870613773360579","0.7783104635157606","-0.05226792146617205"
"0.12649082539474965","0.057559230693652694","-0.015005351918766197","0.19952184555405056","-0.2144929503757462","0.18896704921295948","0.7031666683964944","0.7541019239151548","-0.3214167069863556"
"0.08633740792603148","-0.07432671865874971","0.00042063609080277204","-0.15791819822627023","0.2570966611368564","0.401287815028224","0.8366901195411487","0.7279672552782066","-0.3157455309344557"
"0.07840377662106701","-0.14123881667704583","-0.0951082224607369","0.16168578629645738","0.08658381915159975","0.0874772038001719","0.9635819802491524","0.680697937900021","-0.22014290432582784"
"-0.1594174127579071","0.42408313287832167","0.28856193357659793","-0.1741790389606404","0.6304749346977566","-0.2515681431365812","0.885730452181923","0.7148141686396214","0.045905529329671506"
"-0.010411492763210515","0.10615043106149849","0.1021749907739806","-0.1250306719097465","-0.07484646050968015","0.7654902373983675","0.9600432744279144","0.7069381478540291","0.09118014575322542"
"-0.14722812000052243","-0.0064795672293562236","-0.009839949724352669","0.20565456050241868","0.024197744817185396","0.9000852020458532","1.2775794282769295","0.5178476856766545","0.023054121964350232"
"-0.10777178372898798","-0.017972144380059937","-0.11831959156353714","0.23277521671835763","-0.22205576906975585","1.1300324234729946","1.5135860291106566","0.3360923450349401","-0.1195391829855534"
"-0.08193934102119717","-0.030266403626614518","-0.04000109889369199","-0.07881484013871595","-0.13261347152781647","1.1042103819322582","1.7097473596737538","0.035471096054556596","-0.25347699849140454"
"0.03704972344393975","-0.21940230166380081","-0.04750209476355322","-0.16161515668808085","-0.17221296460094418","0.5145504728013606","1.7568372245390433","-0.143602175867374","-0.36242241509649087"
"0.13065020491385726","-0.32349217316576384","-0.028931347279579595","-0.20096273281677884","-0.021137763307819826","-0.368665277003173","1.7273015696531226","-0.1374069005559601","-0.4085436220661208"
"0.034218071785213966","-0.04540778728976305","0.1193351710280216","-0.42586103924359203","-0.039420877500588127","-0.5825222601394231","1.672131195432251","0.014901093359589541","-0.3258457810787616"
"-0.0036717574313232188","0.0033085785258024233","0.057435433084331966","-0.2567059346237672","0.19154664809564437","-0.7298098260329662","1.5899329106082256","0.15234491203372094","-0.15052145515150933"
"-0.1337293929500853","-0.025113326563235228","-0.08628339995194918","0.051420149174557714","0.3863347021104389","-0.8987937313413762","1.3962793243278948","0.366725712311565","0.04250282369853156"
"-0.26875517622778144","0.08236484112513037","-0.015311009239454373","0.12343574471110941","0.03785150451633888","-0.9633973728652866","1.1650931652821528","0.4999584324350078","0.17338114595678714"
"-0.11424192964759977","0.1509627774973601","-0.02261167564913484","-0.06603048820788696","0.18412503392788362","-1.2273209647407655","0.8892134303524325","0.6564498203055178","0.1702432041643814"
"-0.0019483108250263415","0.1316114721777156","0.06898638845331155","-0.04615548547725712","0.24192315780773582","-0.5807506351089026","0.5926308731772034","0.7829147034724971","0.18055591911754812"
"0.12666413287471248","0.12914971191966101","0.13164407394222122","0.4871625433757071","0.050480933075923974","-0.01784274931558472","0.47928083159614043","0.8194847698337392","-0.012515755728315535"
"0.13947155564396457","0.10483541482238579","-0.02091610362018218","-0.04561442020237754","-0.24666843598405813","0.38061076672680716","0.5184852338833957","0.8193792285166792","-0.20599438240038181"
"0.09274285238545714","-0.09789937152638314","-0.11487681620146149","-0.1965340846594015","-0.09185083608592652","0.5984235701366851","0.7008539708912758","0.7692602955778775","-0.18874387426556802"
"0.045837375497387645","-0.08518547044680998","0.1146057435660221","0.17613665778389948","0.019126348357499812","0.11449812584101403","0.832566273387265","0.7088246988964741","-0.1048072000080819"
"-0.46800100902503206","-0.5989808042380184","-0.010292652999317864","0.16664394673352112","0.6664461894354037","-0.2580236535217654","0.8727180457368992","0.6855000678262446","0.011667642554094654"
"0.06717634037747593","0.4384174331150953","-0.13267515937504742","-0.0955069926936307","0.22780270518284437","0.40043840576701556","0.757779766110084","0.7482311881536999","0.039309314186885304"
"-0.16012989906442096","-0.15728700063778156","0.05275557167433594","0.07196618837599016","-0.10908975477356939","1.5507326961315164","1.0611053690234198","0.5864495417655645","0.10787661104031754"
"-0.05882204883282375","0.10035542663968977","-0.0822788760005007","0.3007838484220823","0.0026690804880416114","0.7744454378951079","1.2892822349298416","0.4566864924404646","-0.056072675889464"
"-0.10060840789052491","-0.08667083634091044","0.011167526833677437","-0.008254729446582286","-0.17005181736021927","1.0181773581898605","1.5394993866992472","0.22287289715897352","-0.2428537580483643"
"-0.01728602280173555","-0.1108043966091133","-0.005998787219299007","-0.11806999230586869","-0.04935306027911346","0.7000371866132487","1.6434314553072527","0.039873488242416086","-0.34266318787243605"
"0.1240808886039334","-0.2867838999507217","-0.010457666647446146","-0.22855513633643837","-0.0103722344947204","0.09260035508706049","1.648725582126427","-0.03625214448639891","-0.40434335622941114"
"0.07670343767876515","-0.0839296610999796","0.10647484578528323","-0.5041903466532047","-0.12447626154059088","-0.6664681639828512","1.5517594698594408","0.0989410056014309","-0.3707085426420622"
"0.07061456821607155","-0.03159076832240339","0.011033863713441365","-0.39293500294309114","0.1572483079994886","-0.49294598633598474","1.4784776091519198","0.2248122188599485","-0.21238630445772494"
"-0.34579997926458433","0.0002751082061304063","0.0718653499738475","0.29230202445110526","0.2892147076158468","-0.8726319260961564","1.3987870686106614","0.34082851163800143","-0.0037997955309719104"
"-0.17752804441402137","0.09141622462246703","-0.041269163724114565","0.24977737464428876","0.33313170857631413","-0.7481085284029994","1.2244152494822718","0.45929864003769616","0.05268152238764764"
"-0.06348209440515726","0.09495928970273045","-0.17689633877082625","-0.28416355319950654","-0.2681363105680032","-1.2506675850059803","0.9985789449064324","0.6182042855359505","0.05904729493005404"
"-0.04775925469519734","0.07723461584473724","0.06240649504984848","-0.1477130524723138","0.2536503133775609","-0.43722473880071117","0.7290800259850854","0.7350385235212172","0.1900024313884362"
"0.021707197370564913","0.0807247063371691","0.0846905659297501","-0.011671720324878712","-0.0571432421933544","-0.2728276435028267","0.6471325155893366","0.7803553265337955","0.16246372347070884"
"0.09251244971903991","0.0041881852016360955","-0.012665421213768187","0.2682044019773761","-0.06515121413960638","0.1487220384169037","0.6658012785832679","0.811555978389617","-0.03533774488933302"
"0.12791194673044476","-0.015478183882343012","-0.1381522081214329","-0.027467553002724274","-0.028041946652275208","0.25006869769708756","0.758086268189089","0.786846117532977","-0.12111469126049042"
"0.08928960456526472","-0.04119786563326713","0.037732927412945365","0.14054380509297787","-0.04949665810241744","0.0799029000737961","0.8385848596659057","0.7652893035235002","-0.08811400341035686"
"-0.01582253741538287","-0.3053353928658505","-0.2686431010292831","0.04617605210646331","0.2339295456438142","0.23987335967898288","0.9722476299373803","0.6903813537402633","-0.13644484439213925"
"-0.059707842619300386","0.36856368739603523","-0.11080413892850821","-0.07313558025167925","0.035163831923499374","0.21610931543397427","0.9397026819121387","0.7174790868953828","0.04835868069967203"
"-0.08370130040081909","-0.04242562961006905","0.2614864776696924","-0.09989327986863311","-0.2109939500812392","1.1941021506041452","1.1325203534315476","0.6336528958205876","0.1126488975162679"
"-0.10056026692386859","0.11518934994993361","-0.10407761262120148","0.2664714526984024","-0.12028559839716975","0.7931567104777282","1.374824178797556","0.5108028027629086","-0.043226726676803044"
"-0.07105948255686481","-0.09870126136571572","0.016648148466311477","0.21181615793876973","-0.3209085106322161","1.0402862678173146","1.5704282328533723","0.3197202482260291","-0.23953603834076864"
"-0.033471015791596295","-0.028818431559218677","-0.03160171833126753","-0.012646022919501723","-0.13842439677751753","0.8874411384718647","1.7390043763060345","0.0777535862016637","-0.42400452277245326"
"0.06410398388546844","-0.23082819315688125","-0.15442432994374475","-0.02720279686288107","-0.0512629113290564","0.45759151462832615","1.767982754684674","-0.07962302946568582","-0.5159037243281689"
"0.13157643711232517","-0.28367813489942073","-0.033311747125387876","-0.31283423627052753","0.06488379475331321","-0.45457695656539787","1.7041745946009386","-0.02211356579976719","-0.4973048818294309"
"0.06163146383799893","-0.03339709789571856","0.09370126113355093","-0.3304621814360881","0.02765605906175626","-0.5243741290006969","1.6523478794237567","0.10741069629548482","-0.38237776368257104"
"-0.04516927068908637","0.02630526259044378","0.07163817223549818","-0.07835272033098961","0.1817030173081565","-0.6859560393185762","1.5751650831652648","0.22252988787852898","-0.1900758651826569"
"-0.12041360157294229","-0.04976520681826056","-0.048904400984818575","0.11881454663384612","0.44504227887121633","-0.8515423075821525","1.399344345117943","0.4045095038189954","0.014347967835107873"
"-0.16700442910294597","0.16617998753132635","0.17056994678229404","0.28276117592075545","0.033876238107873685","-1.020914514267115","1.1675451819141918","0.5389295637593617","0.12193197531880152"
"-0.16398117639692797","0.1576728919560237","0.009563590043366224","-0.23204991738236871","0.3063746475006724","-1.0396500556857697","0.8396158212043767","0.7099592680548678","0.15022248179095943"
"0.012470871507879944","0.07267049155195583","0.1025178226336714","-0.006410293763994576","0.19823830666160985","-0.2273357103561062","0.6337578794145798","0.786872502862242","0.15690695154665701"
"0.09367360983479077","0.14195709756599575","0.17926878890890624","0.4103543803331936","0.023922515655852763","0.009603848109303013","0.5703398128859423","0.8128884375174978","-0.018633107878823153"
"0.1614604235739134","0.015858881613542847","-0.051915538644030486","0.05371149322120076","-0.25181402465245073","0.373645610784898","0.5938847453185867","0.8353819307158808","-0.27965920032178976"
"0.10318751651121617","-0.12680064469942598","-0.03812791517839349","-0.15289264531724642","-0.06215241292960827","0.5043090239947902","0.7582534511412736","0.7883236959718151","-0.2673362414078631"
"0.06290045971906","-0.013904527008523295","0.12455406325355559","0.21449260182518473","-0.04051940084886359","0.18779243754888836","0.8792381808720927","0.7198273811999649","-0.200218608288735"
"-0.557138822885907","-0.6899412876970235","-0.1807893391052669","-0.11011768061457812","0.8780375820738191","-0.22591841033168986","0.9619658783780356","0.681080525174363","-0.06752452908706136"
"0.05035877508575089","0.4578622230015013","-0.06529630743280551","-0.2315589150866595","0.006075460186517538","0.3762423762405923","0.9376407588351972","0.7208564090412983","0.05621007255942055"
"-0.1849706378590912","-0.13861086163363734","-0.08165103934178986","0.15718974566712","-0.1766764636086429","1.677949934624506","1.2848240228715893","0.5523333110259643","0.08182515678461584"
"-0.05241930026753083","0.03574824255077055","-0.07128553871656035","0.37698547921695497","-0.08810293289769262","0.7711448761944122","1.481263991688328","0.4297206859316699","-0.11668561716808441"
"-0.11305766186785389","-0.029616166528917392","0.03262142830008563","0.07270846831715057","-0.21463176160494005","1.1498357936771684","1.7066823388837058","0.1703397065924273","-0.3412413079977522"
"0.0060517550139238645","-0.12072414785992408","-0.03791312895304504","-0.12450115963006009","-0.06766178275037099","0.6739967255482016","1.779685561337586","-0.01248687841744456","-0.4644545536901834"
"0.09898394358471808","-0.3241569523071794","-0.04119068414177571","-0.17302373944132457","-0.10873076021530943","0.007833193832223938","1.7571158627926842","-0.06003851881876524","-0.5395853787927309"
"0.06485979706197295","-0.09286470824756851","0.10291228579753249","-0.3059987141145756","-0.006695412229021975","-0.49357697607288237","1.6503974116482716","0.047634732845705643","-0.497533690085127"
"0.07051058372809386","-0.061914045627630476","0.047278522927950484","-0.4631868412134874","0.10374375903642542","-0.6671234225557835","1.6035861850366233","0.18574873888316715","-0.37345424171041725"
"-0.29622441180188774","-0.05896408818759879","-0.1381749258952678","0.18147991806073513","0.41184724871744616","-0.6868297174158192","1.565134106034198","0.28470691629142003","-0.18759656429771968"
"-0.16995065626231382","-0.02781710797746145","0.055562249369033465","0.16313953819159646","0.44520980966507095","-0.8025192587924085","1.3503040124771684","0.4203538940426072","0.06151678974689003"
"-0.11529140272070795","0.07110929928703766","-0.1440340462925135","0.09994465448502104","-0.1606198336662028","-1.3452189701964965","1.0838422505205063","0.579576163492041","0.09403207722601083"
"-0.06610096299126202","0.12038293699224291","0.02432778864860195","-0.0895918591547337","0.3070687036466417","-0.6304532113076134","0.6996836902259846","0.7505399044643845","0.1996614084681851"
"0.016449240992359695","0.1359636981191708","0.23831434835806167","0.18847910764859013","0.1604409662709471","-0.18476089130073584","0.48783502598291195","0.8110150791396853","0.18441297257071354"
"0.11097210338341264","0.0759777677804984","0.05704303517263768","0.4006787468589236","0.04411715620650256","0.23025319307489647","0.46702074843594665","0.8323740031796747","-0.09356781161934534"
"0.13217338509886375","0.0027597202471711757","-0.020030110440619826","-0.04588687833901618","-0.08331633878755992","0.3739853744893814","0.6012407952147028","0.7727827370347504","-0.19305037250670817"
"0.08513099530162364","-0.07253804728137837","-0.13075240960774545","-0.11905199689728714","0.1914916022633778","0.23026532749291373","0.7444051299353273","0.7367139919295427","-0.13572736707606314"
"0.058087325872759346","0.04289981190803046","-0.042555815824038445","-0.10509212770555429","-0.04291748449804006","0.4000258355544286","0.8924734979200292","0.6696424849380005","-0.13466177434239202"
"-0.17927074740698085","0.04347422263490986","0.267599624083456","0.18007430364556753","0.4442046249019431","-0.6216921614991494","0.8754765644479425","0.6722282472059671","0.013313427650424118"
"0.01604293123378021","0.3476023700932749","0.030991944340470954","-0.5770512363380558","-0.04598808461969018","0.8166732125951846","0.8998295478161452","0.6865290956675784","0.111406795556774"
"-0.2058830737746043","-0.24379138641448528","-0.03961902724283177","0.23228421442264838","-0.2800549299022336","0.7306159200167526","1.2299044230789944","0.5096946189337801","0.0755312954082854"
"-0.10176379109027703","0.025093079374768786","-0.048136127178764504","0.1745770034328231","-0.10341764075306215","1.02487555693539","1.4166199168436702","0.397227152941865","-0.09970967894010614"
"-0.0688161135106795","-0.04530287683150841","0.0014332292281907023","0.013323184775519078","-0.2538961930903585","1.0307000775836763","1.611945332645846","0.1460388183393942","-0.33190919985471223"
"-0.00552037055092659","-0.13676194464657518","-0.05878456735084724","-0.018294474819356657","-0.15169762224491548","0.6860826058933959","1.6774253222514257","-0.03997379517922229","-0.44786595515220523"
"0.14545836625734673","-0.3385847371107146","-0.08987900397436889","-0.27879141043468797","-0.035392958556911484","-0.03631570192834583","1.6420382640390483","-0.09789355071521114","-0.5018973903901913"
"0.08198161326296603","-0.0749530652560522","0.10501677775551392","-0.2723987530944738","0.047599403421624095","-0.4905433715685666","1.5988493347247303","0.017525114354990358","-0.4114527556028303"
"0.058898019751252084","-0.01638706161474714","0.04756352772697055","-0.4060380249913314","0.1681641358676462","-0.6506934205604089","1.5355984511482763","0.15941618027673168","-0.24448810273190894"
"-0.39526000840730574","-0.028303227724621603","0.0514069620094077","0.130646739210839","0.21440263497152792","-0.9323575315771269","1.3734309875293522","0.3140210171047965","-0.03487849403325697"
"-0.22859598184306448","0.08664955043503555","-0.052248044242887225","0.23976477881021835","0.5448666990380334","-0.748642442795759","1.1998950831618844","0.4388763951866129","0.0996280734224677"
"-0.11726518235361778","0.10156137755091399","-0.15906288631040452","-0.30066508133373415","0.02887903385689516","-1.4226608259826716","0.9757027442825256","0.5962912695813967","0.151268462388428"
"-0.027174177352947335","0.09231679261560347","0.07495703246756508","-0.07799265198080285","0.18843775522111317","-0.5898271797858157","0.6899034875231937","0.7337588350518665","0.2267751867681908"
"0.04066414722049759","0.11801466130094988","0.09360006377737713","0.039992311429325376","0.11020805438215962","-0.21168231111383642","0.5537608367943168","0.7807379138081375","0.19582069846185515"
"0.08373875854592236","0.048810113962178436","0.053133512820862545","0.43259389608002313","0.13569666801861616","0.13113198605907866","0.469612084194806","0.8381260049594372","-0.07427110394073368"
"0.1454535521606811","0.03779139969321503","-0.12396392573543437","-0.1496770616551507","-0.16685915908876078","0.3212006561142856","0.5984265488529312","0.79403611975768","-0.17550241363948926"
"0.07699709757536882","-0.13005183018791158","-0.052981208762105485","0.01924602031121152","0.05852959107211208","0.060303388092312234","0.7330366891867842","0.7487457020743669","-0.0853993568909892"
"0.06112213241077489","-0.05759817479547144","0.0026820872134619258","0.07201625135516052","0.0554206981975809","0.3794701314331844","0.7769222141352046","0.7414897365265013","-0.07752508420567107"
"-0.17107715488207217","0.3928177388836197","0.0966566369842589","0.0951954107110336","0.2912729430832038","-0.2108426093870418","0.7284948856524397","0.7537852999639753","0.09203327367803572"
"-0.046006923508906644","0.11916763762434253","0.12764574574727314","-0.27271646046228565","-0.16899158676482487","1.0357237266428234","0.890523030144544","0.6882573347344336","0.1848379021884351"
"-0.13738810641596697","-0.01095456956849161","-0.09683064276785813","0.31357879059850496","-0.10033268084908163","0.6306525843905367","1.2251118451163736","0.5175310617254748","0.032847115308149766"
"-0.07189713537668509","-0.08711021380468982","0.0464565525655593","0.14657061758540874","-0.23200709822472168","0.9703920200378774","1.426650893974738","0.3572665717700749","-0.17784279522632523"
"-0.024526424186848753","-0.02471134292616049","-0.05409024917568354","-0.013717563223667146","-0.18783401447936218","0.8222550448831257","1.567920488570605","0.16015496949615068","-0.3608207573066171"
"0.06971240650093179","-0.17063451933651647","-0.07382786413390595","-0.14454560629018962","-0.05994339974778203","0.3624576773729812","1.6077657588412344","0.026267893206936663","-0.47716975532816064"
"0.1133319735689063","-0.28750061496256035","-0.014400233033890274","-0.1865022338333425","0.048008657218040436","-0.33364534660535083","1.5902115488618662","0.06260840720357354","-0.5097585883180411"
"0.07546814047436354","-0.03857925904653479","0.08846791214284928","-0.21647262886359372","-0.058117314094766406","-0.5073859437765281","1.5286324948072574","0.1486377732719933","-0.4207194899585285"
"0.050646658066355786","-0.029030329910544904","0.02467206618480951","-0.31346002351015695","0.08166798700049348","-0.6895235582156517","1.4681679937672114","0.27305779342093767","-0.24210195949393373"
"-0.35739232403543053","0.029514899382590925","-0.15303028473114663","0.1797180862937785","0.1721226491967259","-0.9396139135514503","1.3257838461567812","0.3830846164558435","-0.03153625915540816"
"-0.19223992382419824","0.06907237444904395","0.04354867751468799","0.12193385533599883","0.2828485374493703","-0.8233904577821014","1.079439766112982","0.516330529243919","0.16579778662513994"
"-0.11983590997306624","0.1281837047297915","-0.023861153210056107","-0.007673421238446541","0.27992871504218936","-0.9710177873801279","0.768702385652802","0.7002230815560955","0.2169527752200875"
"-0.018210329361537218","0.11622806735839548","0.04378411626170456","-0.03898300096150473","0.2472362772699831","-0.42208098511516645","0.49003626818667384","0.8116879050359418","0.2139455810023653"
"0.07588985534227305","0.11559444973923375","0.1757062289211555","0.5529279685127603","0.12065718932457929","-0.03012957562314494","0.36384100311277173","0.8680073903520107","0.05225986145929311"
"0.13689312546985113","0.053687930912315336","0.03904023203453737","0.011387095331065647","-0.363365600389093","0.4392685434222584","0.46253467255233033","0.8216087888395689","-0.16445751226809455"
"0.0765108738121398","-0.08716422710992983","0.004315495152193545","-0.1284195504997396","0.07405251577127239","0.5609039496273067","0.6453492307660358","0.7636402204444398","-0.1866355696237954"
"0.05995038128235962","-0.017433050045068236","0.15404999469996475","0.19753858137922506","-0.07698606807690946","0.10998654922219549","0.789544527025131","0.7083893409636022","-0.17557759349493232"
"-0.21273834742646677","-0.5371875056086223","-0.49272296112838654","0.06357004911936244","0.5058320240699014","0.3959244022645936","0.9266624116417512","0.6611991795732115","-0.08344631499415334"
"0.06298615063970829","0.5186168042224355","-0.10308422632896491","-0.09045833379422055","0.344093009088518","0.05872834063367145","0.7840274896030442","0.7473340869586912","0.06371988638030819"
"-0.15836793968479898","-0.048400332143541676","0.07870546515032889","0.03847501806062393","-0.38818409085013095","1.5656094926206814","1.1013964604998745","0.5846553393755469","0.06775998643803058"
"-0.07320656966973747","0.11825356630489611","-0.07221283693945894","0.31470520762983795","-0.02027593703829043","0.9236017041633096","1.3647932016664883","0.42119822457908607","-0.13717866515505078"
"-0.13322872689685938","-0.10375150540565728","0.02131066175810628","-0.020779331535485102","-0.3351725610804115","1.3340605280152613","1.568199126824246","0.14363775337628232","-0.3393454681648404"
"0.012119442451288678","-0.1956260601841088","-0.08098602814407638","-0.06987089636001263","-0.11376147062505888","0.7455655230140211","1.6331218399225442","-0.06956626121634425","-0.48957443147626467"
"0.1658643592036352","-0.3738284187798256","-0.13808198954776127","-0.23277197958194112","0.02585151308223623","-0.16370767604078384","1.663772047823028","-0.12164958191892275","-0.5715695042496997"
"0.08290014290676895","-0.07362973927767179","0.055686164499042186","-0.38563736097941287","-0.01891295436543015","-0.6545036278178296","1.6094375883630794","0.03361620740722952","-0.4658927770117026"
"0.04377983058249577","-0.010800839392039257","0.09117132722920619","-0.6458974601932845","0.25388964308306755","-0.5681308403709486","1.5342052598800726","0.194271200235751","-0.2487700858027959"
"-0.3174449499040014","0.05225450088863797","0.08304662520496774","0.2806720092899927","0.1754589052914884","-1.00014039062156","1.3126878482356656","0.39022184802201665","0.055693619639420426"
"-0.2815317887783734","0.09916609520700095","-0.09066379979775746","0.3175164364601731","0.6933468483343493","-0.6935521849973832","1.1175017515603103","0.5099188942325323","0.17161605369855887"
"-0.08754294953999486","0.0895538043090949","-0.25523961446667315","-0.07104545087131706","-0.40579875717541924","-1.5081599353323094","0.916380660082407","0.6375183465579052","0.07687962977220972"
