"AccX","AccY","AccZ","GyroX","GyroY","GyroZ","MagX","MagY","MagZ"
"-0.08522199652545923","0.028328122712877844","-0.1523266353377579","-0.022591302106330913","-0.0657290009030559","-0.33640452545723926","0.1793191556173046","0.290234892988442","0.4068991246371446"
"-0.009370523401162375","0.28518527688849543","0.13082315653293772","0.2827357717346955","0.15615925645143458","-0.5122740917887029","0.0789969568094934","0.37881268539004165","0.3946225605474688"
"0.05631710202257966","0.17535060806383176","0.11859725653723616","-0.20402474802171092","-0.09679908354515598","-0.07555524821515819","0.030218744857825632","0.4028639611546524","0.4132924599525436"
"0.13161469935928627","0.09439540686299357","-0.03182118807896199","-0.07281831403816617","-0.16096153910794564","-0.0028022522289935436","0.08181301853041444","0.39567515442058926","0.38042459515289906"
"0.16723640344436866","0.03316492865407099","0.009597167008516864","0.11048763231213173","-0.08856739911592615","-0.025678263956284603","0.10831417079693839","0.4040333049487329","0.3466555421306053"
"0.10238867163295612","-0.07447206291408348","0.022421443543966118","0.0359439972416791","0.1278728724277357","-0.08227107068849962","0.08467936706778026","0.4300910683600046","0.3286827883317309"
"0.09341429488607872","-0.018432328536274876","0.14726038122675816","-0.05447856097464023","0.00447618641154183","-0.02307195092903797","0.0912669400220778","0.40388713697447287","0.3539330621172829"
"0.03959754418038279","-0.03455760416485518","-0.25033903827869425","0.12284155596834173","-0.028066893949668003","-0.07097778334939261","0.10745929491737363","0.41176691958685646","0.3262172733829733"
"-0.09239514197130028","0.10184959256220402","-0.1929335059319115","-0.16777927176686755","0.23369964370477886","0.029251866267123703","-0.04858069651151809","0.4463290015005319","0.40371946053081575"
"-0.3290181423746133","0.015441883662870753","0.1420370327639751","0.09381033311692738","0.11545280013262726","-0.20599782144839127","-0.2643614258770902","0.37000274294145774","0.6484855825126485"
"0.0104827456081179","0.06501623175742186","-0.004251701973835177","0.0971183176704798","-0.30521824564732686","0.07911560650468585","-0.10329275280369722","0.4303568283132048","0.47453925198995667"
"0.08182830300140385","-0.013494027603970568","-0.2715355728888273","0.2838009367880512","-0.07438953927072949","-0.24742125727101857","0.0885514519340469","0.42561301314858263","0.313243563687097"
"0.0960497448426045","0.09051943743203905","0.1486618242741388","-0.06873385402515814","0.028901344196653894","-0.04316809776648044","-0.02077208701742235","0.4638957344070597","0.3453292651236875"
"0.09047693722566155","-0.05043173147359407","-0.11875496220441517","-0.03900081681615892","0.12125260025223905","-0.06487725603281172","-0.006792352045707854","0.4669785498641811","0.3426597075584809"
"0.04041019799987997","-0.029291256921995138","-0.04351309396842371","0.0018081450812950633","0.0915358471045093","-0.04205339263943445","-0.08664781656039607","0.4637229904374796","0.4110479911716057"
"-0.1153787171735599","0.054289350426463566","-0.07259362016456992","0.1180532906350323","0.31628612670088924","-0.18225791324763957","-0.2506834118040456","0.4942189450671933","0.48333008804863037"
"-0.055734920784486136","0.01073023761632848","0.18393808121386293","-0.08968873661687615","-0.13388210928226207","-0.03809398210153595","-0.48753431726008095","0.4859670985203297","0.6481625150366045"
"0.02302213024192355","0.0801628056860016","0.019868695212420358","0.07704144963676157","-0.31633763219499966","0.035644865720998835","-0.310977304721622","0.5070551508067591","0.5156028285502989"
"0.05960290203297678","0.04796144842963468","-0.08338543118499847","-0.07628358464632629","-0.12914802403962122","0.05335598505393993","-0.2152814930267526","0.5028960075391773","0.43772656327230003"
"0.009730246331125398","0.059925947254244445","-0.08073178361774531","-0.057589440219253954","0.055527524201167903","-0.018304379174031125","-0.22010902740547414","0.4818478192457279","0.4736380637673074"
"-0.01009691787669056","0.007459509744612394","-0.02743963818540425","-0.014932068535752366","0.13741294656736724","0.017436543754657526","-0.2751228045963242","0.48350881895322856","0.5157898676153772"
"-0.01653231893332328","-0.03024147788469407","0.050360271686155526","0.004798869725964821","0.08409510287312777","0.05653730933979148","-0.2754748123114389","0.4653839901449804","0.538472605143947"
"-0.014160186974176488","0.008003232911279358","0.05706900986804252","0.08203080220444284","-0.14782628225082176","0.13423556770022477","-0.21965644605746878","0.4593379512096777","0.512304139584375"
"0.01663666880548341","0.07979514525901729","-0.08099061918889215","-0.025815666225788136","-0.11847546734397961","0.07018692880389174","-0.16579926564485498","0.4557900558344561","0.4768007243222654"
"0.01525538431061182","0.10200494203839458","-0.05797757187674661","-0.08481485988675494","0.036225244989716916","-0.012655804084703036","-0.1515680965909143","0.44007035460266913","0.4903865618674884"
"0.0012518608120696236","0.05950650366852993","-0.006903017689096038","-0.004547704746892204","0.030429296851588152","0.03981121409188854","-0.16776045148621013","0.42816430869930383","0.5220981851739225"
"-0.003071321308691218","0.07676841963123784","0.030866688586009317","0.04451807818051365","-0.02068649742818724","0.09584446092369533","-0.08242372397901478","0.4173744545993789","0.46957421498970003"
"0.002426576877962898","0.1276298381360277","0.044689207640848216","0.07470206844481206","-0.074324055585518","0.12121228007731123","-0.026655644541490046","0.4099996158980756","0.4369954105633581"
"0.01790445416355374","0.16866022395589156","0.020270543266255808","0.1281176071672066","-0.07674566794451465","0.1694536277042223","-0.0012608022367559147","0.4104381198208559","0.41876760349392256"
"0.0382083147459351","0.10329693184871276","0.0017532832767714892","0.053874607466953425","-0.06361554706270144","0.239340672662014","0.08422678571977492","0.3910642192325671","0.36362508639860597"
"0.04340884519416985","0.019778982122317584","-0.06740524948167156","-0.09704633933589696","-0.06251002837707254","0.25492723024291203","0.16870863734740552","0.3410083320473247","0.34293176438041273"
"-0.002764873639327745","-0.017642635365639522","-0.043557399156277675","0.003481449696421847","0.0508281067918743","0.25515624144475557","0.27893733899488543","0.28812210136050104","0.32286757376293707"
"-0.0957093167658977","-0.15788178583873258","-0.04795527201378163","-0.07754884145269557","0.024967187108655108","0.09529262670238543","0.288743268201664","0.2425708453820006","0.3537630266035755"
"-0.18899425730287148","-0.22734889327527874","-0.07308330908295584","0.1291927270341451","-0.01428925498055788","-0.2065110272742095","0.2230183991080252","0.25724079479864725","0.39904348390386174"
"-0.10253061488765473","-0.06174635165613998","-0.19161600955625419","-0.0728551468484224","-0.22311968030573334","-0.32558857471956526","0.23453408007393386","0.3166115683435538","0.3052348909914775"
"-0.019562745885917505","0.29248670226945184","0.12689631777788118","0.3166418667975893","0.12730791514355833","-0.598884472823291","0.1254116883882449","0.41069059177639594","0.2912409682133567"
"0.04446325217505376","0.23531809503132511","0.10230460666693916","-0.2698260658037803","-0.06905197692908098","-0.09157775483089102","0.06647553951468393","0.4651580941847603","0.2801716562710036"
"0.13030491932059948","0.03628719420970762","-0.10809839859954082","0.03598282101465188","-0.11956172612219337","0.03151162740338772","0.16493712611402903","0.44442881783515104","0.22344780889820798"
"0.17028953022432317","0.029727562577561158","0.003078241578804224","0.06334959903502811","-0.14753096367045632","-0.09573030734624799","0.15754496409661206","0.4445749858094111","0.20804259135631561"
"0.1131256899743574","-0.10999789896092846","-0.0005440573060561313","0.11642070120745901","0.05579202692966912","-0.08100185197948687","0.1411011751190906","0.47002150132832254","0.15225393930891074"
"0.0861083554501802","0.0013801669096884116","0.17388313542300557","-0.07212247256873097","-0.02575185307836845","-0.07678307935757271","0.09825680750793477","0.4855817465881894","0.18168708673166536"
"0.06637085556043724","0.05265818092646266","-0.16218803741325322","-0.1707458062145312","-0.08960615012251591","0.044148631071384316","0.12958549415318193","0.4777152519734659","0.15737200827150413"
"-0.02457940773253418","0.10135506339633073","-0.20518039259554394","-0.05796075476589105","0.3052566197211537","0.04611040172814101","0.06511779547066791","0.4880533141529506","0.20556007285618727"
"-0.5791361901435987","0.009394931193732504","-0.04760549421493455","-0.2884216575763833","0.55513465852515","0.17091047004848042","-0.08408318892170008","0.39905030582623074","0.48137467964099506"
"-0.020754486822330973","-0.07531612840138553","0.13193311808127914","0.16662282610533735","-0.3546905278276771","-0.0863960314927911","-0.05350880452312921","0.43431665161588656","0.42031492666866016"
"0.02194275345094335","-0.02878119280850279","-0.1058598206869195","0.15543361563831073","-0.15015031107891505","-0.032274890237823095","0.056870757573685635","0.4360839553046673","0.32424486142396725"
"0.10544565738356185","0.11159259387728875","0.10301815337658722","-0.012967983815873049","0.11755726601618798","-0.13652189298547543","-0.009206119235068345","0.45402275214567533","0.3564155806174113"
"0.10426674184960692","0.004978319694055472","-0.10704206964702263","-0.048438975573977375","-0.1394032827412682","0.031152935159536287","0.008746274235802924","0.4390737547781686","0.3669407789159007"
"0.04519305162468601","-0.06571035245693581","-0.010738914216452348","-0.0030977861485626426","0.22406968999721003","-0.1258328641187028","-0.032790636147781695","0.46703170185482124","0.361312603412185"
"0.001845461297540337","-0.006583823987220734","0.009457255888978031","0.12496193126147043","0.11744042257786946","-0.044693919388402295","-0.14291876416237148","0.49278384131991276","0.41540090032251564"
"-0.04811912870512009","0.01460506781779093","-0.05140874481439846","0.05823382033484574","0.11420989410743704","0.007397575600587908","-0.21769526021611363","0.515692349285763","0.4239026760078867"
"-0.1286581161793099","0.030028940561370846","-0.01713518423136928","-0.11386400140261829","0.09819720708249159","-0.06409365143855167","-0.31877176127060003","0.48572791456244957","0.5552381067954988"
"0.009926599837791622","0.009110356844930763","-0.00929316598121775","0.04875882876677107","-0.19971247282720267","0.021887914500853797","-0.2733627660207482","0.4961324167302342","0.5075771523033086"
"0.04797491546768543","0.0873503081177516","-0.01602289083103556","-0.09867295587532057","0.01153917965882112","-0.06078264611069229","-0.24771648963378903","0.5016867997521167","0.46561238752031714"
"0.017120175128256875","0.0895588598375941","-0.008201859248814863","-0.07573806086199082","0.02525094974457147","-0.005027523726425697","-0.25269488446184607","0.48552859459754943","0.49662686522055066"
"-0.016044272645077753","0.014170788357100212","-0.020693590371640237","0.07681049796164145","0.04937077379746222","0.03636500937980825","-0.27808972676658017","0.48776097820443054","0.5104167453822226"
"-0.011912904065511076","-0.001199152226662214","-0.006161488755540233","0.05611543600443359","-0.0010169959820209703","0.05870601782953937","-0.2867893460115678","0.4890632019751111","0.518697474899774"
"0.0009000134879856424","0.01650292058525229","-0.029967365745072472","0.027073262858078186","-0.04784553487118672","0.01954620598272526","-0.23323388649762386","0.4854090026186095","0.48673079832277877"
"0.015247439371035728","0.03998166366931283","-0.040071280427768446","0.005686540453139878","-0.04630859425945873","0.014729245064911179","-0.2131191599196166","0.49116270560539194","0.46175258135915864"
"0.010362436523108538","0.022683758411287436","-0.04637894006697745","-0.051070032803901884","0.014154675085796816","-0.011924623741467424","-0.20110061078925726","0.48653848241970993","0.4674997817224695"
"0.0020792695193509775","0.025396160265574643","-0.019257169544374893","-0.0816721252386764","0.022390211496509688","-0.028820408012423145","-0.22569086403087085","0.4752038204157249","0.4984122381144786"
"-0.0025605751930854494","0.06271964866773803","0.005008781843240873","-0.08655097937558896","0.010226937966936404","-0.027201602324210573","-0.23559736687054011","0.45622855975723636","0.5275903322666721"
"-0.004875957583831592","0.12646730622253502","0.029868422748099754","-0.053999734441309295","-0.008100789929308608","0.015535198945134283","-0.2401231803505918","0.4432993380340505","0.5523985137165848"
"0.004085934257997647","0.1281761504606312","0.013616580287668273","0.004814797427697243","-0.09174014786411315","0.13114253688978278","-0.19617250277764559","0.4299714763810646","0.5389487045823278"
"0.01708612538721649","0.1769947233535152","0.06414151696073048","0.03195012603227423","-0.06820197301515957","0.19298107972976966","-0.10495221774638253","0.406358704539234","0.5065229321183227"
"0.031281462426952844","0.2011671018487666","0.07135160332096493","0.03523421903322803","-0.12859847468137597","0.32309255243021684","0.024586621415983556","0.3651127598025755","0.4514654327798597"
"0.009086706225462137","-0.08165179787202394","-0.03565708460631831","-0.24682049161401293","-0.16988529621029275","0.293045179079893","0.1970704018223956","0.30559581828340887","0.37852019739937603"
"0.02296084070805086","-0.16366596466889446","-0.07699382487406618","0.1764283174843598","-0.0818405554527324","0.2969080186290623","0.2926656398843749","0.2616789860170892","0.3380177380342683"
"-0.20503168533289268","-0.3601623387864629","-0.35809391884351793","0.13948600427872299","0.4799568199147292","-0.14281280310840824","0.21341361716702636","0.2915371167591225","0.3586430458469785"
"-0.12836301842362655","0.008759525944533744","0.04797945080200307","-0.0530002711575998","-0.1425619075573508","-0.25005626567777334","0.0665761131475735","0.31916286389427495","0.4751173727365619"
"-0.0645311038865855","0.2114512371725818","-0.07274985424805494","-0.06434278575380098","-0.153873893179175","-0.26792465776378777","0.1576958245459464","0.3469082030083674","0.36291093724103474"
"0.03185463306779933","0.21937406045830046","0.16635591719181642","-0.16816750949659537","-0.012206745391450424","-0.21120713649755668","0.042840735785525795","0.4261711090503029","0.36884517666942374"
"0.1038229602247139","0.1448296143082594","0.008619654653338893","-0.01872584799214369","-0.16337544750397626","0.0034149880253943935","0.06888930670404442","0.4150756310041979","0.35643258416878204"
"0.15852534469487026","0.05778212448281469","0.0022152231564488657","0.035843453624493184","-0.12196536256760256","-0.028572082612833692","0.13104381183008698","0.4114745836383363","0.3099618782725438"
"0.14647514134067813","-0.11329389701410485","0.021480004939109242","0.20529727687437513","0.058062128017000024","-0.09801214185136439","0.13808396613238985","0.4445085458211111","0.23545231616595189"
"-0.09234974231657975","-0.029330094291042774","0.14896263318114727","0.11749582107439752","0.23314752635887825","-0.5128811094321438","0.13380958673456322","0.3922468510243077","0.656426241002785"
"-0.3287457444462902","0.05389579842011414","-0.11813702142645201","-0.091503499133014","0.11271660928585003","-0.07412599758196557","0.04495278207621587","0.4259717890854028","0.45178850025590384"
"0.010706338907616427","0.010728140398399907","-0.04331721840106935","0.07803394455096313","-0.3039727716344813","-0.006034069346094947","0.06416234595821302","0.4272075728677833","0.31698434498866035"
"0.08199401174113372","0.08043207811139859","-0.07256097423667753","-0.07649860861971398","-0.0749249646968703","-0.021780382934062155","0.11706407685837247","0.39738930611872997","0.3297540120680876"
"0.09615302905709366","0.047966626745507696","0.1839823864017169","-0.0571872657505103","0.030013282851421175","-0.08167784890059149","0.04082926312772473","0.4134810712849972","0.34342486737016426"
"0.09040089280400469","0.05990523399075237","0.019583369802640836","-0.015070440444552784","0.1211601526966464","-0.027672592832098566","0.10539753544312778","0.38755618785032553","0.3952346883968155"
"0.04044878770639241","0.008011000385088887","-0.0833341304411676","0.004533474395848336","0.0910145456104729","-0.06883114822849713","0.0988602493052756","0.4284699326454839","0.47105352395895456"
"-0.11544681665564066","-0.030031756091836812","-0.08082505769743786","0.08429353133180509","0.3173518415778602","0.031100510908511854","0.06003882700972132","0.43842264289282834","0.6729196858324049"
"-0.05562142164768486","0.008126994660644506","-0.02702223667878007","-0.024575296453375754","-0.13470386533197462","-0.20521697602523775","-0.08916215738264668","0.4517637925434743","0.5330824793594218"
"0.022996025440459256","0.08020941052885878","0.05044421835787883","-0.08396770525086174","-0.31899549941828864","0.07890866867169463","-0.29156659357384457","0.46731074980568127","0.4214711681618705"
"0.05957906721424852","0.10176932866617223","0.05695008541643451","-0.005260568947553927","-0.1305090574969576","-0.24523875292573794","-0.09172678502134322","0.47566890033382503","0.48934934523387313"
"0.009885740148543156","0.05995701714948255","-0.08091366807314579","0.04574749765798499","0.05392381591040076","-0.0410187034744784","0.0779409336641478","0.517898156897324","0.534714820291013"
"-0.009983418739889281","0.07724223553361906","-0.058259725967816596","0.07536207258534931","0.13601339329520057","-0.0652387074477697","-0.0895644519142078","0.48748193025357034","0.5350548913184279"
"-0.01664581807012456","0.12747189950190066","-0.007147862148288998","0.12931218479713827","0.08487448712652701","-0.0422796446701715","-0.007446080659492348","0.5017931037333967","0.5089374364129681"
"-0.014398535161459168","0.16850487447970103","0.030636301609168706","0.0545883676008376","-0.1471586054604303","-0.18120942822715078","-0.12310575848303407","0.5007167759229363","0.493379186908739"
"0.016453935195233346","0.10339273069236361","0.045295489158849817","-0.09676262714878818","-0.11805431736850193","-0.04096076088124085","-0.30992128157627635","0.48398718686898873","0.46889407293487034"
"0.015382503343829242","0.01974998355342868","0.020277002496274517","0.0011625754204528241","0.03742449522476616","0.03412456244129008","-0.47596834947772637","0.47173565302646325","0.517966322190832"
"0.0015367436454408433","-0.017741023367226872","0.002107957964802424","-0.07867672183162273","0.029928539258794573","0.05187982851193596","-0.3207329471119552","0.45625513575255633","0.4417394013957952"
"-0.003094021136051462","-0.15759697846571655","-0.06699717538301664","0.12841625157468953","-0.019935361038996874","-0.022072579154245747","-0.13175509091157747","0.4506608887376939","0.4275074288984841"
"0.0024628966017393042","-0.22747835117210422","-0.043359191736930994","-0.07335985589706852","-0.07633478991965838","0.01368076004442238","-0.2799000521586004","0.4488537210559331","0.41808746143909287"
"0.01789877920671367","-0.06167903354979073","-0.04789930756596609","0.3178065799867727","-0.07618713062947566","0.05926612956416891","-0.2504822645382653","0.43951225870094884","0.33170942047572294"
"0.038187884901310865","0.2923313527932612","-0.07319057427460227","-0.27008489095693217","-0.06297098216120818","0.13158676343793727","-0.3803228245993018","0.4134013432990371","0.3325085873901478"
"0.04332939579840895","0.23586699651386506","-0.19177457549173152","0.03692952378637273","-0.06387748180354733","0.0691025745590178","-0.1422650355485864","0.4155539989199581","0.31871870722847606"
"-0.0027875734666880088","0.036111390385818634","0.1266328185027497","0.06267665363683327","0.05226617987887126","-0.010976296632146368","-0.18847861986155764","0.42727401285608335","0.3532869271651947"
"-0.09561851745645668","0.030008745129466073","0.10207142146770778","0.1156243161208379","0.025885242695443338","0.041971645068316785","-0.12657554881774016","0.4050033287779134","0.4214031539563876"
"-0.1889715574755112","-0.11021020991172222","-0.10818934082724108","-0.07223794840629104","-0.01349292200863332","0.0994396608755293","-0.13326369540492838","0.3913166911881073","0.31084606294382244"
"-0.10241711575085348","0.0011606063166724194","0.0031913364004314466","-0.17072589658736567","-0.2228115217870911","0.12682443410803287","-0.09238051363512771","0.33812483655510345","0.2677590637703619"
"-0.019619495454318157","0.05273326650662143","-0.00043562618841353824","-0.05740527616797282","0.126049601192436","0.17542999232100848","-0.04289828625323011","0.2733192719672544","0.2835213558910399"
"0.04427938357343568","0.10135506339633073","0.1741256480302062","-0.2879338717108278","-0.0677384512433686","0.2385377538700081","-0.0429988598861208","0.24145465357856008","0.2082636375241353"
"0.13039685362140851","0.00879473849247027","-0.16180328183452145","0.16633413651143722","-0.12246612016039614","0.25556459876852494","0.12395337071133931","0.2653198973759308","0.21594924274371072"
"0.1705063135756136","-0.07572262619741751","-0.2051570740756208","0.15597117557178","-0.14690180669489514","0.25371871329824336","0.23015912704321767","0.33530778105118214","0.15803514677496308"
"0.113213311307968","-0.02865432406961383","-0.047591503102980666","-0.012013317193285992","0.055861362596363616","0.09355158973415272","0.30644422759030965","0.3915691631436474","0.18450967625920855"
"0.08608452063145193","0.1119628434622096","0.13169760103005543","-0.048841150042721035","-0.025664541498086495","-0.20861903399961326","0.37835437510668596","0.45451440805909565","0.14492540866812093"
"0.06642874012020589","0.00459357082469018","-0.10567327252753439","-0.0016292520488333118","-0.08768401136248517","-0.3285960712257042","0.2507767217856756","0.43774495501216804","0.21103521639756626"
"-0.024488608423093163","-0.06574918982598345","0.10334461265551115","0.1247827446169807","0.30750360891958645","-0.5963460354052654","0.21819086472930313","0.44263493815105026","0.4586579350096836"
"-0.5790113410931174","-0.00617913860174432","-0.10695812297529934","0.06083799956809678","0.5564828520442096","-0.09305115220178843","0.18907479800763782","0.49223903341585246","0.47062843517468594"
"-0.020754486822330973","0.014360910224378095","-0.010848511260091098","-0.11461061242132557","-0.3544465690004187","0.03165510430092829","0.010154305096263723","0.4757752043151051","0.29817841717261956"
"0.02203582274312041","0.029944792928434293","0.009100948904552474","0.049225709523802695","-0.15233310058596397","-0.09711265207062926","0.1364747880061488","0.4765459081793854","0.3695423222756242"
"0.10542488704152721","0.009185183509295883","-0.051870451508876605","-0.0969089629084548","0.11582002236734254","-0.08310158119157102","0.1745921948714732","0.4821268671965879","0.3525727780076236"
"0.10433313884463567","0.08686872474156085","-0.017121193119415398","-0.07641996559241016","-0.1368994947773003","-0.07676100598872032","0.18404611636313603","0.40409974493703293","0.3475397268018839"
"0.04533152057158357","0.08917307530505418","-0.0094867096965798","0.0770155671214464","0.22555912283731402","0.045048120852119455","0.11324227880855063","0.42658303697776306","0.4178664152712733"
"0.0016048431275216151","0.014190207041624034","-0.015722081924027076","0.054132437138747005","0.11691270111469469","0.04941588871378728","0.10202831874131127","0.43914019476646876","0.4031753468869521"
"-0.04826667758296178","-0.0011305395413447163","-0.008089930353183799","0.02833155129493955","0.11202582060656043","0.16667238322882041","0.12400365752778465","0.44817603317527266","0.5713914805977038"
"-0.12877161531611117","0.016645842103347606","-0.020549015548116778","0.004816290649734658","0.09885589591608929","-0.08455566436472259","-0.030326582141975852","0.45434166408951554","0.5251928315233975"
"0.009885740148543156","0.039821135877249246","-0.006550908038256647","-0.05215212104034831","-0.1984541588760803","-0.030809770380245325","-0.028214535851285773","0.4880931781459306","0.4523666210025091"
"0.04815991906067152","0.022434422502001585","-0.029722521285879516","-0.08055917708012338","0.013097948165619594","-0.13436698035126032","0.06783328355869882","0.5074006387459193","0.4962527870903944"
"0.016955601379895015","0.025584650963352523","-0.039751816704821454","-0.0864952324195255","0.025887810683098686","0.030854944680028945","-0.06955029896909011","0.5107890781492208","0.5515653396994185"
"-0.0162939707460406","0.06335399236218284","-0.04660746156222421","-0.05367222107443636","0.04861578542678883","-0.12250254459309756","-0.004529445305681731","0.4679618616910216","0.4934131940114804"
"-0.01199235346127199","0.1261307156907888","-0.019511341411537108","0.004830924225701321","-0.001465751824793678","-0.04234034643451559","-0.05682773440850093","0.5015804957708366","0.5021020087619298"
"0.0008364539713769315","0.128398818043171","0.005114647923691922","0.03335475022880221","-0.047586168117996194","0.011754306777829534","-0.25611438798010683","0.5174065009839037","0.4889412600009753"
