"AccX","AccY","AccZ","GyroX","GyroY","GyroZ","MagX","MagY","MagZ"
"-0.040389837488952786","-0.16975825329350103","-0.07327685279831789","0.04828298867751495","-0.05063180147724331","0.16433536530157303","0.1527677165343353","0.28966350908906174","0.40774930220568173"
"-0.24818405714474015","-0.32391412767533184","-0.3196416794902623","0.14182538547067247","0.17463592763169","-0.2418449724646821","0.13209983497543257","0.31064525739421117","0.3953707168077814"
"-0.12737557593345544","0.021264382030493006","-0.06480756636223393","-0.021955189518392298","-0.1622455329356215","-0.20352008579470984","0.09393214129366391","0.3558776014288714","0.391970006533633"
"-0.04844827620184381","0.23296455046703807","-0.0883499440766347","0.28508510774022777","-0.05587563226947145","-0.4843788719014877","0.15040423616141904","0.40572088065155376","0.26619473704425367"
"0.037242437091756196","0.2301268333686238","0.1895158711794777","-0.07950894424714179","0.04071665539892702","-0.11700075740663789","0.033839395641867206","0.47224059693754356","0.27524062637348845"
"0.10957986344154855","0.08182763423917713","-0.016596526421144776","-0.050688763443682026","-0.12112434661047487","0.09067653344112815","0.09031149050962234","0.4573447515606768","0.2499903525879364"
"0.1926931248375282","0.014799772494616432","0.027839011959189","-0.01398536576403152","-0.09737559677378245","-0.047436535468312474","0.13612278029103414","0.4492390729880732","0.21965601694253242"
"0.09235648293109078","0.06329962004551615","0.0089540422290367","0.13300542063634369","-0.007001177615287015","-0.08969875930733082","0.12842889737494564","0.4732239087643839","0.17862644748493178"
"0.10227869096939567","-0.021536728902149596","0.06648036450902127","-0.04544954505507338","0.030539720320768272","-0.09809767615566743","0.09669791619814017","0.47667878815598547","0.18054784878982563"
"0.10882044071721117","0.03036527217732341","0.10903899522074162","-0.016546739298876668","0.03523656974240653","-0.027283549706075088","0.06929160123560496","0.4795755716458668","0.20652927528431955"
"0.05815805802149646","0.16189475426779262","-0.04731401271589531","-0.17528520120827157","-0.04083621256590428","0.12272982418591345","0.0359011551161125","0.48244577914042813","0.23417704981314622"
"-0.04058278602151496","0.21228753518607435","-0.30460123413983786","-0.2247407150874426","0.18641015103147748","0.3681774083112353","0.07638204235435207","0.42627741303158295","0.28005263141140846"
"-0.6322197364255583","0.07945596556933456","-0.03111696877728321","0.27179543160723796","0.6673043593109118","0.33153561601625825","-0.06834341537440959","0.34911401061992836","0.5197346915333892"
"-0.00227682735108224","-0.3149038580562793","-0.02292284087629229","-0.13791483101857585","-0.5793637677943966","0.16627782176058387","0.15176198020543505","0.3280658223264789","0.3778740624472878"
"-0.016486919278602772","-0.08505912971647027","-0.28685584047832935","0.020505076856170566","-0.02060945779852669","-0.3274648110720189","0.22960597206232275","0.370667142824458","0.22492711786746253"
"0.09892013801230894","0.3704203561583836","0.2878057645074994","0.29353674447199435","0.2806809778594381","-0.3927467994529795","0.07985183268905928","0.4761472682495852","0.2122424685448889"
"0.06536865818248191","0.0674086136907565","-0.008085266649199173","-0.2548838906160517","-0.16370928589917197","0.1443010238969173","0.11384572060589034","0.44518623370177146","0.23907407260792"
"0.08483603012663783","-0.1817538220133489","-0.08943891895704527","0.04982698026420162","0.14479591107650336","-0.12746629341378007","0.11711436367481672","0.44453512181643107","0.22026814479187923"
"0.05385530574535985","0.00017827979556076553","0.020722875915724852","0.12465333204040475","0.021025326057690263","-0.08548550502762976","-0.04018279816519976","0.4881064661435906","0.30443572407705266"
"-0.09426787772852142","0.14935028406540474","-0.06811413248733499","-0.07088309827767686","0.20678713307669316","-0.23037233900364937","-0.14276790371303655","0.5153734373419229","0.34801582624026467"
"-0.07638041376863935","0.12693594380904322","0.11074591087911537","-0.193183956030081","-0.10730343704937208","0.04589518638183014","-0.15725050684920172","0.48915621795873115","0.4097897283701708"
"0.017266589014730528","0.03718304285573986","0.051192742847411585","0.045108398625971546","-0.07782293876593467","0.06506866640124247","-0.0713606243611109","0.47889788376520653","0.3501412701616074"
"0.05712408088523678","-0.025262527172786566","-0.1400727531181485","0.16982827607898734","-0.16058918089791965","0.005871753978666048","0.05365240132120461","0.47456599652804454","0.22871890982313803"
"0.012635824233238224","0.07156162302091752","-0.0020427385815162532","-0.08176769144907091","0.1490716105226639","-0.09487496430321764","-0.06638222953305388","0.4887177140359509","0.31599813900915735"
"-0.01664581807012456","0.05762159669075111","0.016006961764989214","-0.12258441810111946","0.08511844595378541","-0.07124542294672792","-0.13773922206853473","0.48050573148206716","0.4072391956645595"
"-0.01985784364160084","0.06004763767726039","0.03126800031388653","0.003946439038872748","-0.06140065770996061","0.035915264489440685","-0.10681282995484866","0.4807582034376074","0.3833151988859253"
"5.103994471205481e-05","0.09353321727013596","0.008963136451806726","-0.02079844018007513","-0.05322161702766548","0.032424913039655605","-0.08136770083366918","0.47448626854208453","0.36265588397047366"
"0.020130172236226877","0.12489309819713733","-0.0143812670284466","-0.010174663124549498","-0.04589258025929175","0.033062281565268525","-0.02725908633882975","0.46636730197182097","0.3380007344828976"
"0.024548693631900795","0.12834962404237732","0.002242272639559705","-0.017149005520633885","0.016054985950757068","0.10728674350255601","-0.008150096089722747","0.4415851863359098","0.3587960778093152"
"0.016276876541823356","0.1419815405780991","0.06172105459270868","0.07224920237801905","-0.017914739952383397","0.18891406151871576","0.02473748186531904","0.4204306940611803","0.35826896771682215"
"0.013407618363486938","0.06329962004551615","0.06465452439903951","0.02224119634500459","-0.08831316833804634","0.31086942442820265","0.1264677115335905","0.3948778745609889","0.30290540445368586"
"0.004558090667090968","-0.09289133247441109","0.020878620310291494","-0.134072272975629","-0.1054416459992421","0.2931831376352205","0.23448379325748964","0.3356532689903423","0.27772314487361677"
"-0.007770185572264276","-0.09714531896409596","-0.09107121535166497","0.17407898147882753","-0.18185211868423165","0.29787372851635463","0.32660924098476224","0.27815610311549654","0.23584339784747896"
"-0.20288655164734837","-0.2620850361514883","-0.24434617865844757","0.018484249698869495","0.31203610713128216","-0.23942517940423821","0.28245741614603687","0.3119607691625517","0.26345716527356416"
"-0.14104087200432983","0.019743769574381058","-0.014633107043616502","-0.06293417963183989","-0.17814137652224846","-0.21395527091967997","0.1963160995757204","0.3410349080426447","0.306850228371698"
"-0.049435718692014984","0.21598226356147318","-0.028715161225199935","0.1839541565529293","0.0457730230923145","-0.5880685220856171","0.15513119690725044","0.4052292247381335","0.2591552667767664"
"0.023067529896644068","0.24504038308291773","0.12803192969813804","-0.10968297969785745","-0.0418878035107708","-0.06881183403075126","0.07874552272726833","0.4586735513266774","0.2522348213688744"
"0.09526887078141169","0.12545235631142335","0.011462648602367956","-0.08290353567886427","-0.07780367885851953","0.11140618596463439","0.13204954815898723","0.43132685214238514","0.25204778230379615"
"0.1530342564564242","0.014726758240806867","-0.03398048302384464","-0.016229180745586505","-0.1243818389512885","0.04077692397918086","0.23825530449086615","0.40686364845031425","0.17078781030301962"
"0.16145135244160733","-0.08083103480615048","-0.05488553613493843","0.14476205547758783","-0.0025549637888110975","-0.04718821006872302","0.2491172568429892","0.4227428056540214","0.09699239735399887"
"0.08654532712686513","-0.016433498609289644","0.10781477292477683","-0.08056415448691476","0.07566568339443584","-0.1334123071483942","0.19541093687970976","0.4348083075293067","0.15516154659330766"
"0.10322368478240315","0.06148462033202308","0.17105926266031346","-0.08993760695644526","-0.029807989579996447","-0.027678111174311664","0.1797717369653094","0.4359776513233872","0.1748856661833685"
"0.0789295350474991","0.05515412917725769","-0.1873627115222737","0.0061370953158957735","-0.12853812697147518","0.14206057695839908","0.19179028609566873","0.41126197567577616","0.1826902962625391"
"-0.1291348125538753","0.6536483428331427","-0.34997907391026567","-0.9241957818531825","0.677601989808872","0.5103023120095989","0.10092200877952144","0.3225247273022565","0.4341388139330734"
"-0.11284768642289131","-0.3835165433737774","-0.1817289571088434","-0.22733892143254397","-0.5677693035304836","-0.10883361093125143","0.1656914283607042","0.38840661970056595","0.2644773783558087"
"0.041118432613519974","-0.059944297732329455","-0.2719086692075975","0.5387437126426348","-0.3682238227713806","0.3248032385162775","0.25349220987370596","0.3463633951043071","0.2171564948910334"
"-0.009245674350680952","0.06407377826853244","-0.021134310398187556","-0.3750584001871775","0.036136649415607285","-0.3257265332748927","0.19219258062722927","0.39827960196195045","0.19117506839653947"
"0.07678894132742693","0.25694274211705126","0.43114470647503267","-0.2883718835084695","0.20545177949591029","-0.15068195910428736","-0.05355909133957456","0.4783663638588063","0.3546472112748541"
"0.07580263382862379","0.0005689837281800294","-0.06287212920861342","-0.057089708577399215","-0.19372906159023323","0.12154889895231025","0.014680118576315411","0.428762268594004","0.34765875166147914"
"-0.02620244538879252","-0.03483205490612517","-0.08122147253613123","-0.001027483567755234","0.26592788877944257","-0.3441302045555778","-0.11159007751712541","0.48677766637759","0.3639141467719085"
"-0.10205391851308937","0.018633020819618543","0.04995919314347755","0.07529238889026996","0.24573066587010156","-0.15498074768829145","-0.33923849556372193","0.5049822231717981","0.5223022277903713"
"0.007243480243809316","0.10561681735982513","0.09777381824587335","0.041498783220861354","-0.10940148296379441","0.028744178783518596","-0.3553302768261276","0.515639197295123","0.5197857021875015"
"0.013389458501598735","0.07733803437726991","-0.07374788690076528","-0.10745310145531833","-0.2793971297727656","0.17695029560071723","-0.1775663806929887","0.4991753681943756","0.4121022113565917"
"0.030862650612156123","0.1273994030796784","-0.1154134182994294","-0.08108678220000987","-0.03182257589561985","0.11207942371463246","-0.09605145123561463","0.4744331165514445","0.3779590802041415"
"0.00295661784682488","0.00043615992603709855","-0.00867056149926995","0.04393870802999678","0.11595227373159317","0.03962910879885628","-0.11732277459185707","0.47178880501710335","0.4009308781060142"
"-0.00842848056571175","-0.05218718055454741","0.011030090057793734","0.029744139342333744","0.03285219320441247","0.03195585395154219","-0.08443519663681529","0.4319115240394254","0.4426405896184445"
"-0.002753523725647623","0.008973131474295765","-0.01836173837932637","0.03495747521562719","-0.038174493361132246","0.005195481140450771","-0.07719389506873325","0.43832962690920835","0.4256370382477024"
"0.005191415850442119","0.08216163561298684","-0.04119989679204836","-0.031984664203026925","-0.05257448413851685","0.0016974040115673437","-0.04727323928394743","0.4354859954099671","0.40926261827767774"
"0.01140662858168034","0.16090569593604603","-0.008829127434747291","0.005847609336908998","0.0016999349573411178","-0.020668712895233372","-0.11350097654203578","0.4711908451224031","0.4036684498767036"
"0.006996052125582513","0.19030558430510983","0.04939488496133759","0.0813240104400666","0.03193927359293495","0.09749444524541191","-0.1274807115137514","0.4781404678985861","0.3940954504549758"
"0.011708536285571752","0.12227804868126288","0.030585234050537036","-0.015629900967904117","-0.03153752926587581","0.20567602599100385","-0.01760401758138667","0.4256661651392227","0.39310924447547274"
"0.01734490341912341","0.11023328596062132","0.042901376718341176","0.046709132650079976","-0.08434177542904493","0.1905088624183014","0.06029026109194638","0.39845234593153045","0.36245184135402475"
"0.029773058898863815","0.060505918632022544","-0.013222336588266614","0.0183279591256201","-0.1105712013408071","0.2997499648688083","0.1743407607892476","0.3677039193462767","0.29775332838835106"
"0.025532731147967908","-0.01600887670770211","-0.01926882880433646","-0.05442580046265158","-0.03065414151243483","0.25914600286482614","0.23800387040864107","0.3252487668225577","0.2789133934695687"
"-0.01486388162234441","-0.1356823456911013","-0.0019252132411036334","-0.056329160819676045","-0.06592416796486263","0.25961782112404613","0.3034270186036089","0.2691468407020125","0.2796785532812521"
"-0.22126206189547604","-0.2281385864459141","-0.23219722977849236","0.03311185277738277","0.10014887770055886","-0.05162495720805458","0.3364151701915408","0.23441201481875698","0.2964950655869161"
"-0.13535456525058553","-0.12286083558950694","-0.0709426689540117","-0.049205496219850195","-0.15135726527693033","-0.34098474949411134","0.24755836553319457","0.2929456445110832","0.31978993096483277"
"-0.07867309633202522","0.12162817003919903","-0.13182499262133437","-0.023741083075140144","-0.05838455620875006","-0.4779224115121619","0.24273083115447247","0.3516918821659695","0.23917609391614442"
"0.022654393038687395","0.3599860496742508","0.2960372020403673","-0.013375135691408094","-0.06328042467367805","-0.2085141854975644","0.051339207764733136","0.48115684336740755","0.21266755732915746"
"0.10943776252227334","0.14454221777730686","-0.015789705631804176","-0.09593438665870223","-0.19538541362793505","0.1958423401672615","0.13913998927773544","0.4459835135613717","0.1972963468900066"
"0.19626834764676862","0.058556282705831","-0.021393145969334396","-0.07301442386574662","-0.006780073878161234","-0.06160763827155059","0.17554764438392811","0.4417047783148498","0.16526165610752844"
"0.08856674675329597","0.051661355120906555","0.0833373225614582","0.12384699214020088","0.004575310735038405","-0.10484660868228744","0.1454258413333626","0.4678555577097416","0.15715096210368446"
"0.11040942863242913","-0.09214824414663289","0.06723588455453097","-0.03116040563837407","0.028215691492675","-0.06079644196622504","0.13702794298704424","0.48180795525274783","0.12234469244777538"
"0.10544622487924585","0.039847027456614344","0.06760198531732424","-0.08784709610406484","-0.004640940161253276","-0.010123160926001273","0.1436658027577866","0.45573690384381615","0.14805406212033742"
"0.03371601891134035","0.09176223324156355","-0.2139388286786748","0.09876484383706896","0.05743810701674955","0.010575037046890287","0.1514099724903193","0.45048814476811383","0.1639523826519813"
"0.10227426450306042","-0.08496850918869243","-0.03100037617766752","0.29168514914560023","0.029160710949844418","-0.24035226089603878","0.19023139478587356","0.4663274379788409","0.22264864198378312"
"0.1087340678741054","0.3703167898409232","-0.023011451252000215","-0.2554314053631037","0.035892690588348874","-0.20359182424348013","0.16870863734740552","0.46477274225262016","0.22596433450107783"
"0.05806952869479146","0.06738790042726443","-0.2870890256775607","0.05089911368706531","-0.03920168842327293","-0.4844892387457497","0.11731551094059754","0.46087935893823845","0.3028033831454614"
"-0.040753034726716895","-0.18179524854033305","0.28789903858719196","0.12476283498981515","0.18759142535293927","-0.11713871596196536","0.14376637639067616","0.48882401801723097","0.5298858117017223"
"-0.6323218856486796","0.0005166827378625412","-0.008192531840845608","-0.07165459633034107","0.6665211230760295","0.09156774570854363","-0.06904743080463999","0.47763552398750597","0.36410118583698664"
"-0.0019590297680386446","0.14910172490349985","-0.0902177575224781","-0.1933332782338225","-0.5774249371146061","-0.047679342525688825","0.09679848983102973","0.48849181807573083","0.22130536142549445"
"-0.016543668847003423","0.1270964716011068","0.020203712388156093","0.04571862869859497","-0.02062614971828648","-0.08580832804709605","0.18485070542625656","0.4790307637418066","0.19993189735247163"
"0.09888268329716451","0.037096564980660454","-0.06810946878335036","0.17004728197780813","0.2801288605135374","-0.10097273244869198","-0.02182811016276795","0.40649158451583406","0.26675585423948805"
"0.06524948408884057","-0.025417876648977128","0.1110210694142084","-0.08142624134318212","-0.16458240170199154","-0.024260877758850136","0.07210766295652545","0.3355735410043823","0.2233967982440957"
"0.0847804155496052","0.07177911228758431","0.050852292456533756","-0.12227581888005377","0.14337067792778316","0.12467228064492426","0.05304895952386379","0.3322914055823608","0.3262512804857147"
"0.053800826159695246","0.057898636589957614","-0.1399631560745098","0.006080054234066536","0.020478344687100355","0.36952940215344454","0.03549886058455251","0.3571931131972119","0.3712086703099569"
"-0.09423382798748103","0.06032467757646689","-0.0021180574008679925","-0.019907484364417763","0.20565721850833843","0.33377054461256334","0.09282583133187353","0.4930628892707728","0.39489461736940074"
"-0.07614206558135665","0.09384909453839009","0.016213797036707455","-0.011068605384281697","-0.10706333020359671","0.16745322865197393","-0.023437288289009022","0.4591120552494576","0.35913614883673"
"0.01722345934274604","0.12486202830189923","0.031288520611418895","-0.01719778410718943","-0.07881674998855577","-0.32498155707612436","0.07411913561432651","0.4186235263794195","0.22613437001478523"
"0.057153590660805116","0.12827712762015506","0.008632013468898157","0.07126068938925058","-0.16159069608350682","-0.3965544555800178","0.31293122691171815","0.5028428555485372","0.3164572348961673"
"0.012535944992853086","0.14223786721381354","-0.014297320356723306","0.02219142227709077","0.14927704953509205","0.14125489899528665","0.05360211450475926","0.5504005991736985","0.41240827528126506"
"-0.016679867811164924","0.06355076836535756","0.002570364214878266","-0.13369399005948396","0.08670032634948206","-0.13025305623139505","0.10826388398049416","0.502470791614057","0.3741162775943538"
"-0.019653545195358522","-0.09270491310298241","0.06170006792477785","0.17230702466109554","-0.06308525761187132","-0.0882419169630727","0.1802746051297595","0.4642810863392","0.37624172151569657"
"0.00017134902972141576","-0.09734727328314369","0.06474313477474744","0.018905338313420405","-0.053112477552313034","-0.23386820879564751","-0.02323614102322819","0.4987634402669155","0.3630639692033714"
"0.020097257486554502","-0.2621627108895836","0.021014194185124624","-0.06229806704390128","-0.04550481412333366","0.04341469155704217","-0.04365258849990586","0.49278384131991276","0.3426767111098516"
"0.024648572872285925","0.01921351002898394","-0.09103856942377257","0.18339668699229456","0.014772276116908898","0.07191141074548517","-0.1433713455103768","0.46530426215902043","0.37472840544370056"
"0.01617245733596618","0.2159848527194097","-0.24425290457875506","-0.10971284413860574","-0.01931647601405712","0.007966240765647756","-0.14477937637083704","0.4741939325935644","0.3617206886450827"
"0.013298659192157699","0.24454844307498094","-0.014819655203001611","-0.08350978382605459","-0.08950856659161255","-0.09885368903886198","0.1429115005111114","0.45916520724009774","0.252982977629187"
"0.004657969907476106","0.12480765598523251","-0.028887718272631153","-0.014407449859940708","-0.10718916159870893","-0.07190486484119324","0.0037678794077458996","0.450993088679194","0.225624263473663"
"-0.007826935140664926","0.014639762534140155","0.12773112079112955","0.14371680005139764","-0.1826096750425604","0.0363401768398493","-0.13708549345474969","0.44333920202703053","0.2689323088149431"
"-0.20295465112942923","-0.08066791785615039","0.011396424005786243","-0.0815327578485177","0.3119462275633449","0.034756412624689904","-0.05079331643509831","0.4199921901384001","0.32667636926998334"
"-0.14102952209064964","-0.01629886239659116","-0.03414138081131429","-0.08981615823073552","-0.17847521491744417","0.03130193039928996","-0.1638380798034987","0.4072224243871344","0.2574549116396922"
"-0.04953786791513612","0.061828978337578826","-0.054871545022984546","0.004784534794405641","0.0478993168709457","0.10712671157837614","0.04721568881624144","0.3307234218584801","0.24300189297456137"
"0.02309136471537233","0.05523180391535298","0.1077727995889152","-0.9242853751754273","-0.041316426257455054","0.18829876636195522","-0.030477442591311337","0.28218236640647837","0.2639672718146865"
"0.0953233503670763","0.6540884996823492","0.17122249229977543","-0.22523845576658078","-0.0793637313591457","0.30791711134419475","0.0607931292563965","0.3308961658280602","0.17537876917312"
"0.1528708176994304","-0.38307638652457077","-0.18745365374997394","0.538265881590662","-0.12233386879614554","0.29147245154915985","0.1702172418407559","0.3606081285958335","0.08352558466837111"
"0.16140368280415077","-0.05984849888867861","-0.34976920723095745","-0.37427196991413914","-0.001783283498377915","0.29442476463316775","0.26535989855473036","0.3936420907786083","0.1564708200488548"
"0.08643750294690392","0.06412038311138961","-0.18184088600447446","-0.2881926968639797","0.07761221803719244","-0.2360176030876496","0.40113430295627933","0.47391488464270437","0.14905727165121124"
"0.10329121676879992","0.2569323854853052","-0.2718153951279049","-0.05778057264004302","-0.03096486801873238","-0.21657648347090197","0.2743612386983884","0.42549342116964256","0.16296617667247826"
"0.07897606969358763","0.00030437178706877393","-0.021372159301403567","-0.0008311049602080503","-0.12787815414404982","-0.588399622618403","0.21326275671769143","0.40793997626077466","0.45479812884852505"
"-0.12914616246755542","-0.03488383806485536","0.43086488423595504","0.07701954904687949","0.6778202687595769","-0.07395768814446606","0.21185472585723175","0.4349943394965468","0.28799328990154505"
"-0.11266608780400925","0.01848828689096767","-0.06257831585758188","0.04111651837928322","-0.5650857564306411","0.11220910475664028","0.052395230910078736","0.45290656034223487","0.19527292427688825"
"0.04114567240635228","0.1053553124082377","-0.08160156441087839","-0.1084585376271775","-0.3677872648699708","0.03614151652017774","0.16026045218464297","0.41826475044259936","0.20736244930148595"
"-0.009313773832761744","0.07708429689949198","0.04965372053248443","-0.0797199862950964","0.037900856934833894","-0.05225680739145441","0.199534455828202","0.41989917415478006","0.34264270400711017"
"0.07664933738916135","0.12752109350269433","0.09858530273919856","0.04328766322168403","0.2068256528915234","-0.1371620206821949","0.29211248490347996","0.31010044949015086","0.34626446044907827"
"0.0758843532071207","-4.5164534359990165e-05","-0.07411631951555087","0.028575444227717257","-0.19557801270208644","-0.028676931114882575","0.22769507303741238","0.3927916589283679","0.3460264107298878"
"-0.026111646079351486","-0.05207584676327751","-0.11533413533169073","0.03564137090876308","0.26535009155698847","0.1427972756438478","0.08819944421893114","0.3530605459249501","0.5291886660955218"
"-0.10197446911732846","0.008776614386914705","-0.008491008895861782","-0.030880675376698405","0.24503730920315658","0.5084812590792762","0.1856552944893771","0.3964192822895496","0.5073220990327475"
"0.007145870986160199","0.08181986676536761","0.011133857471451701","0.005126383092837754","-0.11216592167478051","-0.11624198535233679","0.11812010000371696","0.4807714914352673","0.3634380473335278"
"0.013314549071309882","0.16068302835350623","-0.018247477631702994","0.08082925620500324","-0.2792430505134445","0.32709335053471356","0.10087172196307609","0.44110681842014954","0.3905757153212322"
"0.03077979624229118","0.19005961430114143","-0.04145173680721826","-0.017027556794924167","-0.02921735241926556","-0.3288719883363591","0.3006109568826884","0.4855950345858495","0.414788772473169"
"0.0031756711808513484","0.12244116563126296","-0.008640247423369867","0.047395019305932415","0.11537190852148367","-0.15386604256124545","0.19666810729083561","0.5320764504005504","0.4273714004875181"
"-0.008496580047792501","0.11038086796300235","0.04960475164064584","0.018711219448556513","0.033578933710876994","0.12499510366439055","-0.06044838519254139","0.5041716553145379","0.47688574207911916"
"-0.002685424243566851","0.060801082636784604","0.0306407321279541","-0.05575974548274196","-0.03706127071253729","-0.3449303641764771","0.10323520233599236","0.5170743010424036","0.4148737902300227"
"0.005353719616067957","-0.015928612811670323","0.04315764725229647","-0.05733957439832658","-0.0535875552685531","-0.1519511778133001","-0.10359447370236763","0.48716301830973024","0.3806286377693481"
