"AccX","AccY","AccZ","GyroX","GyroY","GyroZ","MagX","MagY","MagZ"
"-0.02549875074062456","0.16945509544239995","0.07887882155215409","0.3104201083083619","-0.19452513776339225","-0.2064779172209309","-0.17806924885743883","0.18418338366393447","0.7423621896305158"
"0.07333175762045988","0.2071687699455953","0.13680668874521512","-0.1861359480134842","-0.10264767543021946","-0.07807713060654442","-0.2881470900555838","0.2571610668126872","0.7630555116487088"
"0.143895305961185","0.12019377654237284","0.06142490938968481","0.07324468373629543","-0.08922865593717921","-0.017977141480794354","-0.242335800274172","0.23500997471345725","0.748738521394544"
"0.1688060965063304","-0.026772006249771524","-0.02207871045507467","0.2537274449545215","-0.1978121619622424","0.11419294878224934","-0.05597285852893505","0.2644960415210104","0.6305638393678864"
"0.08559874432594244","-0.012303014953176263","0.04550302398616575","0.05316482925850236","0.03993727114552778","-0.07667547168441728","-0.007647227925272621","0.3028319147701276","0.5745881482554034"
"0.11777620360565313","0.060394584840752635","0.008620354208936587","-0.006233751523404926","-0.03696882315694463","0.03207449830912382","-0.00025506590785510523","0.3011842030602868","0.5720546191011627"
"0.12812346591127882","0.05277210387566908","-0.0024911537196382113","-0.032338060085215045","0.055453052559162705","-0.01575656057424334","-0.0035739957932268275","0.294633220213904","0.5757954004027259"
"0.045034152833164205","0.04321034361614","-0.029356420523086246","-0.0156518015577862","0.056228584831078905","0.04028579152221506","-0.11516044148472164","0.2874311254821807","0.6317880950665797"
"-0.0105509144238957","-0.01355642631024044","-0.12361920546038191","0.07927431432337552","0.288230861566172","-0.08149022526534612","-0.25938303104903315","0.32611248667045806","0.6791259820827258"
"-0.5181758037676302","0.0826173274098125","-0.28918769247064324","-0.48292876017000713","0.49748333566250447","0.6831367901238581","-0.4771752330724069","0.2293359997126347","0.8423260681391085"
"-0.06785662859486306","0.0528057629288437","0.32077815167881746","0.5494650468712714","-0.6997638690155605","0.06736153759078507","-0.3857035139589188","0.20984250714540598","0.8242853001347513"
"0.0338351930049817","-0.14072084703554852","-0.33580141379699735","0.16424362565905679","-0.02668531659108879","0.13492536047686213","-0.027912814952615363","0.18456873559607462","0.6421432578513616"
"0.03839104835618516","-0.012047465064842788","-0.01820317244384903","-0.026970424601388748","0.13666823014731524","-0.27975874263977846","-0.1525738329198151","0.26179857799602924","0.6643668994929217"
"0.08727966654196942","0.21157551675353423","0.26124597031504443","-0.15501720075376427","-0.06138781777168387","-0.11049187276628769","-0.3718746394365392","0.2981944035867855","0.7522752600796585"
"0.10662048694859191","-0.055848249876771644","-0.19711918025811492","0.023626906395725324","-0.04806894979720231","0.1082441758765287","-0.20532470337063854","0.26842928882837225","0.6994792330735042"
"0.04313758225721478","-0.008921833603888686","-0.012937850645204323","-0.008852663880758454","0.1794894243003047","-0.10015049945894025","-0.33657329429213584","0.283484590177159","0.7573253148367688"
"-0.0038431154389399324","0.0030232465361972527","-0.0005424250096615113","0.07782389798436681","0.12673011792110422","-0.03949840019476963","-0.45957484731665027","0.3008652911164467","0.8046291947501732"
"-0.0902386583720759","-0.0023471848557104647","-0.015999572311112428","0.011008184698213805","0.10744324663558534","0.027932982478193053","-0.5762402614690922","0.26660883314895145","0.8628493546435942"
"-0.12045212858857723","-0.010880272667064367","0.006554566528945733","0.007615982421751178","-0.13967292144508014","0.016210644032017597","-0.5745305097099621","0.24860359631964335","0.8744797837811821"
"0.06337674833161942","-0.029270543658503057","-0.1499434826016131","0.08447172249493655","-0.13147975683068056","-0.02678110464757243","-0.36327559382444063","0.3150037206266931","0.7399306817844996"
"0.06322692947104172","0.09314484357965955","0.04185204332179993","-0.06590768244901148","-0.008795302190698474","-0.10469485427142723","-0.38510007216157854","0.3274147104411386","0.7424302038359987"
"0.016725198132188424","0.06790055369869329","-0.04891832688660726","-0.12895549879408835","0.0845611926325741","-0.08633532972844701","-0.4238712076406875","0.3074827139511297","0.7778656048926254"
"-0.01855260356838609","0.04726237578677715","-0.02183619784787403","-0.07117576979701012","0.1865000305994148","-0.07944016113317987","-0.4750631867817163","0.2770399113120561","0.819558312853685"
"-0.022445623960670086","0.003027130273102016","0.04627719884761395","-0.006401589680410326","0.038063924150948725","0.04611316089924755","-0.6087758317090188","0.2600445623049084","0.8818933321788256"
"-0.007917734450105981","0.01108627272417788","0.011528173643351977","0.12126869542226504","-0.15559444490826063","0.1308693789502344","-0.6065632117854386","0.2842818700367593","0.8776424443361397"
"0.023059584957067978","0.056899221626465005","-0.09325849252045539","-2.0653721994492963e-05","-0.06268850351911949","0.08721101453130202","-0.46500582349271263","0.28696604556408045","0.8159025493089753"
"0.012619934354086041","0.052085977022494095","-0.03839934254927941","-0.04638231108777835","0.029206934727640747","0.004370213062481822","-0.46897848199186887","0.2718575922246537","0.8218877993914766"
"-0.002322227005802748","-2.4710186661567312e-05","-0.010274875669981892","-0.033336527887566254","0.04034301319507336","-0.007475184415045738","-0.3951574354505822","0.26155939403814915","0.7993240867225019"
"-0.0013722392307760126","0.02373521544930389","-0.023554772766209348","-0.018409284920211797","-0.005133608592932498","-0.047309613597411204","-0.41994883595797605","0.2587954905248679","0.8098152779182496"
"0.002528726101084056","0.09563302435664504","-0.027313718177819295","-0.04630964094862417","-0.0218369558977848","-0.06737706505534555","-0.5064421602434072","0.2544503152900459","0.8522221350368806"
"0.005360529564276038","0.14165271752016242","0.020695943025213628","0.013327656262997792","-0.030732465135923055","-0.002611593505530975","-0.4986477036944296","0.2532145315076654","0.8472400944852531"
"0.010424861048349238","0.16294854154795194","0.044327770582039565","0.07015869152563863","-0.026531237331767685","0.06861144210205199","-0.4651063971256022","0.26136007407324907","0.8317498591865069"
"0.017863594474305272","0.17002988850430503","0.03937934746915031","0.09808293910664963","-0.03223473791430379","0.1970867263363153","-0.3435631617779939","0.2696252086177727","0.7674764350051019"
"0.017020295887871757","0.11429049644713149","0.08173767209473089","0.004318450422460636","-0.08449071871305534","0.27263559040474655","-0.2629031082001846","0.24877634028922346","0.7390464971132211"
"0.021279918492023868","-0.04418927168867","-0.07136473416462051","-0.15274750325689407","-0.09381893387112035","0.20166695037318744","-0.19959200629590687","0.19768398928650055","0.7304427001196255"
"0.004593275399499365","-0.194640061063356","0.013645728437572195","-0.10380963968402673","-0.026434937794692","0.21995197729629082","-0.15403215059672015","0.13573534419555278","0.7351186767465796"
"-0.11081605187414834","-0.41290348595315857","-0.3770285570211065","0.4450589620152436","-0.07543599424028528","0.14348982759159173","-0.0713606243611109","0.13363584056527184","0.6753681972297918"
"-0.22098966396715294","-0.11795955961569472","-0.04577732225296048","-0.19541383427262016","0.07358946537508401","-0.2688351842289491","-0.24857136551335435","0.16888889835726761","0.7683946267791218"
"-0.11468637243907207","0.09076799659394397","-0.08620697209569826","-0.01236372663139928","-0.35403569097556253","-0.19451966964514544","-0.046770371119497306","0.18083480825361298","0.6613912780030419"
"-0.0038544653526200543","0.2907001832932603","0.27367474143407744","0.14074031079015123","0.06852667771255815","-0.403811075590243","-0.19481475873363013","0.29665299585822485","0.6798061241375555"
"0.08652035731676885","0.15357578981778805","-0.005356999818191946","-0.11688030991819576","-0.13538438206064282","0.052710339015007344","-0.13059849413334174","0.3113229452748714","0.6354608621626601"
"0.16189059410102827","0.10487113987411044","0.05081265097266442","-0.022529582262117775","-0.0796025542110934","-0.14548092156844158","-0.08584322749727552","0.29596201997990457","0.6268910722718061"
"0.14980293603169173","0.006930803693977182","-0.04109029974840961","0.15192952125717785","-0.07335592423945042","0.049162044971984724","0.062100586483967164","0.3377394846229633","0.4940933360663101"
"0.07407744694924429","-0.07546112124583007","0.07553028209119138","-0.0043587623850913455","-0.014343182721320265","0.052155745622590906","0.0618491524017421","0.33613163690610254","0.49696693624796556"
"0.11843994655766704","0.06315203804313511","0.0012971730270748968","-0.010789870603964307","-0.05982134530191932","-0.05640108239349173","0.04128184447573007","0.33500215710500203","0.49754505699457086"
"0.11625429368028475","0.08914200540981608","-0.0806968058378606","-0.08658283477905382","0.0827006855762718","-0.07082602893853239","0.005729065249101613","0.3355469650090623","0.5120830934165553"
"0.03383632799634971","0.03163706655573681","0.016205635554734355","0.014171824454816172","0.17413517003889642","0.03379346190850414","-0.12225088260346931","0.3306968458631601","0.6051095229658855"
"-0.09920509017937718","0.031083763504704758","-0.08253430520780393","-0.035768488845835486","0.1885415807854194","0.27118426640270155","-0.17359372219383248","0.31354204088409243","0.6403238778546922"
"-0.3254656193927331","-0.10647146585140269","-0.13110445035570942","-0.38320143769787834","0.19449931214583532","-0.21197418606517743","-0.39329682324211657","0.16815805848596727","0.8389423614163309"
"-0.0234217165371611","0.0470267624145548","0.01960071878146365","0.09237982640508419","-0.3440462189962444","-0.12044420294761166","-0.2996124842050477","0.18664166323103556","0.7886288529103048"
"0.007714501661534628","-0.0327659068727907","-0.04901626467028444","0.17513419171860048","0.011665011053933354","-0.0549552767336598","-0.21769526021611363","0.22558878437251303","0.7311738528285675"
"0.09096498351390706","-0.004127489852854303","0.009676449976255537","0.13755477044366676","0.02008415858200387","-0.1161592102191403","-0.18923292210823284","0.2602837462627886","0.6913175284155479"
"0.10674272551892691","0.0888157715098159","0.05537375346963033","-0.06876172750318989","-0.08022015524220548","-0.07171724120594787","-0.1680118855684352","0.30061281916090665","0.6575654789446249"
"0.10195238095109199","-0.036398495457713335","-0.08658706397044542","0.06379258823946111","0.059935475011579066","-0.0037182970363679704","-0.1410581519539059","0.2941415643004837","0.649114713913366"
"0.025697304896329765","-0.01610467555135296","-0.005601844277384906","0.08385850597823831","0.16135943145352177","-0.07702864558605561","-0.31449738187277343","0.3197608237889752","0.7171459229477051"
"-0.035770422621140587","-0.00014640060967750684","-0.04944299358487787","0.020734037568574136","0.20768592875606626","-0.07117368449795763","-0.4835113719444794","0.34930004258716846","0.7723394506971341"
"-0.23830963224302862","0.07706099447806339","-0.05158130186182969","-0.25026485711364926","0.2542435449475924","-0.023696351350450114","-0.7401249962634062","0.30241998684266747","0.9121086429646343"
"0.025890253428891948","-0.06771436069979404","-0.01429265665273868","0.3189414287352078","-0.5381218860494483","0.1568552524317174","-0.4499197785592072","0.3227771992577966","0.7749579976082283"
"0.0543728618091737","0.09452745391775555","-0.06471196043054905","-0.12558081698953139","-0.1137606420087539","-0.02404014407032618","-0.2870910669102382","0.3340985732641217","0.6880018358982533"
"0.03215086581485067","0.053859550209003","-0.005755746508877619","-0.057613331771852586","0.06144159977144283","-0.030199993565697886","-0.26536716220599044","0.3249032788833975","0.6921507024327143"
"-0.008507929961472623","0.026432341271765688","-0.032949804443241915","-0.06703058542114725","0.16089719367555846","-0.032650137508313824","-0.38298802587088787","0.31634580839035376","0.7544857217578549"
"-0.026497543144475832","-0.02265006681484862","0.0060704740553413775","-0.025463265824958295","0.12363569279640542","-0.05907747836684472","-0.5487333728736675","0.31192090516957166","0.832276969279"
"-0.013286243620806614","0.011767920334122701","0.06361685026245985","0.10067218611952651","-0.07009843189863679","0.022380150626262228","-0.6362827203044437","0.3142064407670927","0.862866358194965"
"0.014462025344370851","0.04738406620979309","-0.06771072209266468","0.013674083775677977","-0.1636964459608952","0.09056892576797272","-0.48069531022355777","0.3231492631922767","0.7889009097322368"
"0.017839759655577","0.050550606366144044","-0.07387380690835023","-0.05312072440195124","0.02194980161361687","0.010562068942689504","-0.3832897467695583","0.3169171922897339","0.7522582565282876"
"0.0004880116213970009","0.033968862193357145","-0.007392706607481953","-0.07352311483982586","0.04808806396361404","0.01291398639391228","-0.4343308654612516","0.29113847682932237","0.7919445454275996"
"-0.00480785810175084","0.055829899398686635","-0.00028428899411236854","-0.07304229734377836","0.021902293841992868","0.021585509347575978","-0.46606184663805766","0.2706350964399332","0.8226019485490478"
"0.0037885665195782747","0.1437473462907985","-0.01541194560904933","-0.043887634803937724","-0.022720343651225782","0.02182886823917364","-0.49457447156238327","0.2383053981331387","0.8511169041977823"
"0.011432733383144635","0.18873396543764864","0.013202676559032562","0.10761069118671296","-0.017998327950565093","0.12648505606192725","-0.4761192099270613","0.24582640480870208","0.8360687612346754"
"0.022488684298957527","0.17949584992018325","0.10079356657591979","0.11049758712571449","-0.0666162406379799","0.22097287060571413","-0.3842451962820132","0.2526830116012651","0.7939679680407181"
"0.026265935571704195","0.07991942483996974","0.0160209528769431","-0.0680609086269633","-0.11180511940920361","0.22486054269484235","-0.2566172561445575","0.21893149754485","0.748347439713017"
"0.04319319683424741","-0.07413288322440076","-0.020220224417200523","-0.05156478703896525","-0.09779931473691547","0.29434198949997126","-0.13597918349295873","0.15908235608418322","0.7129120386563904"
"-0.013717540340651469","-0.16258110749349708","-0.0683193354626586","-0.11590473818708488","-0.00982082806086317","0.25139825039763525","-0.06713653177972963","0.09442295947059426","0.7088651934301538"
"-0.26707031350847343","-0.38828059397695464","-0.34062834742108705","0.2565048379441126","0.15149835885697124","-0.05331632909636941","-0.1134004029091462","0.11233518031628231","0.7289463875990002"
"-0.1381125942748567","-0.0912912328696483","-0.023487149058432247","0.0061539189508506426","-0.24804200050092148","-0.22053589400880047","-0.1596642740385628","0.13812718377435385","0.7352377016061746"
"-0.010743862956457873","-0.05591038966724787","-0.018067925028294823","-0.00907495486806157","0.2899770931718112","-0.07724386093236649","-0.17258798586493224","0.30757572993474974","0.8318008698406193"
"-0.518436851782273","-0.00893685071992044","0.2615957481138915","0.07782588894708337","0.4990754880088225","-0.017535950020857095","-0.38856986249628517","0.32571384674065795","0.8093391784798689"
"-0.0678339287675028","0.003429744332229222","-0.19702590617842236","0.011194339712211489","-0.700803904015978","0.118941482256621","-0.3450717662713443","0.3017821629549871","0.6387765546799549"
"0.03403154651164793","-0.00292974539142507","-0.012914532125281182","0.0064796404512786785","-0.024431907423517682","-0.08147918858091993","-0.09680575348228983","0.28131864655857797","0.6840740155316117"
"0.038336568770520545","-0.011186311135159773","-0.0005104786373668144","0.0845672887053311","0.13592351372726325","0.037852202606238415","-0.05793404437029076","0.34201821986948516","0.767272392388653"
"0.0873477660240502","-0.029332683448979283","-0.016078855278851098","-0.06446522996086898","-0.06222626574115619","-0.01845309849667414","-0.03797017824161899","0.2270770401104337","0.6900762691654837"
"0.10657996775675387","0.09308270378918333","0.006016608274318926","-0.1275916893332497","-0.049671374094141775","0.04509226758982424","-0.042797712620341086","0.21631376200582886","0.7514590896138628"
"0.04298208843979702","0.06791608864631234","-0.1501556811329137","-0.07000408823831883","0.17726811497842548","-0.08182132579813206","-0.16579926564485498","0.17866886463503198","0.8179769825762059"
"-0.0038317655252598105","0.04736594210423753","0.04205747948232278","-0.006623382927034305","0.12626788014314091","0.6839093580336919","-0.2900579890804942","0.2530550755357453","0.8610469781982958"
"-0.09012515923527464","0.002418419242228666","-0.048668818723429666","0.12152752057541688","0.10727247545650445","0.06893426512151828","-0.4010409929746493","0.3199069917632353","0.8748028512572261"
"-0.1204180788475368","0.011076692839812797","-0.022113688234959378","0.0006840176670886152","-0.1401479991613202","0.1358165727442776","-0.31434652142343794","0.26912026470669254","0.6972687713953076"
"0.06346754764106044","0.05710635426138575","0.04644042848707593","-0.045061307325345586","-0.13139244525039862","-0.27821360682011076","-0.052000200029778836","0.28578341377234","0.7917234992597801"
"0.06309073050688017","0.05222838070900211","0.011727080618296347","-0.03434893242893335","-0.007632132182206925","-0.11520729618738072","-0.25888016288458304","0.2905538049322821","0.7483984503671292"
"0.016662773606947703","-0.00011921445134415865","-0.0935802880953947","-0.018873179233168592","0.08585160642938833","0.10805379307017678","-0.45253469301434796","0.2572540827963072","0.7971986428011589"
"-0.01848450408630534","0.02338179539097036","-0.0387514522001188","-0.04615633681944961","0.1875272256615555","-0.1030090007253255","-0.3077086616526956","0.24528159690464185","0.8807710977883564"
"-0.02251372344275084","0.09567445088362919","-0.010494069757259392","0.012721408115807473","0.037744209687857445","-0.03732969170502174","-0.2995621973886029","0.32827843028903897","0.888065621326405"
"-0.007838285054345067","0.14181842362809902","-0.023634055733948018","0.07094412631731868","-0.15531196626617194","0.027803301436185222","-0.48195248063468366","0.31958807981939513","0.7980658239210668"
"0.02309590468084438","0.1626973932281105","-0.02750493004118903","0.09634681961781562","-0.06115284690121917","0.016988454366953894","-0.5739270679126214","0.314764536668813","0.827396950035597"
"0.012573399707997522","0.17009461745271776","0.020665885453032704","0.003184497607248","0.028112971986460927","-0.02504448235311019","-0.6822951573516357","0.25511471517304624","0.7953962663558604"
"-0.002310877092122626","0.11416621686617905","0.04445369058962451","-0.15159274488129348","0.03943266157125118","-0.10343115390462758","-0.2718038747109531","0.2454011888835819","0.7987799730786381"
"-0.0012961948091191695","-0.043904464315653965","0.03960180614921705","-0.10490466917813078","-0.007217273776484859","-0.08441218746718201","-0.3956100167985875","0.29665299585822485","0.8731875138770056"
"0.002461761610371294","-0.19480317801335606","0.08177731357860021","0.4464327262896651","-0.021012631860416908","-0.07942360610654056","-0.33395837983699506","0.28014930276449745","0.8200684193948072"
"0.0054638137787652065","-0.41285170279442845","-0.07137406157258977","-0.19472695213540944","-0.02994024094424706","0.04939657451604143","-0.4799410079768826","0.27924571892361705","0.8364938500189439"
"0.010515660357790274","-0.1176488606633136","0.013411144127145423","-0.011191049591349693","-0.025302455238681906","0.13092732154347192","-0.6086752580761292","0.22087154520321092","0.7612531352034101"
"0.017888564284401557","0.09070326764553123","-0.3766787792222594","0.14000365458502667","-0.03045640646297275","0.08625910049954245","-0.6931571097037593","0.25534061113326634","0.7449807365416099"
"0.016998731051879504","0.290881424348816","-0.04608046301196128","-0.11783597202214108","-0.08564888114561896","0.0024499403391676482","-0.48165075973601323","0.2632469697409699","0.7384853799179866"
"0.021320778181272333","0.154114334668582","-0.08596912319248225","-0.023455379925314816","-0.09253622403727217","-0.009384806737888631","-0.5255511504925141","0.24055106973767973","0.7592637196930334"
"0.004656834916108096","0.10484783745268186","0.2735814673543848","0.15098381396681526","-0.024975036812624564","-0.04764899164351679","-0.3016742436792935","0.27867433502423683","0.6549979426876427"
"-0.11088415135622912","0.007205254435247173","-0.0055295568656231735","-0.0035241508143124198","-0.07479784930793038","-0.06784888331456551","-0.5116719891536892","0.2532809714959654","0.7555399419428408"
"-0.22092156448507216","-0.07566825388075081","0.05045354576584808","-0.009623066903928551","0.07481182749903141","-0.0029253112603456507","-0.41733392150283527","0.2503576120107641","0.6509170903586646"
"-0.11469772235275222","0.06294231625027784","-0.04063792046190072","-0.08577549939749166","-0.3539072915927949","0.06790233512766877","-0.4588205450699751","0.2140946663966079","0.6913005248641771"
"-0.0037863658705392825","0.08906950898759382","0.0756352154308455","0.015011015239843169","0.06839699433596289","0.19543950118570527","-0.4361914776697172","0.11641459559790412","0.6227762128400864"
"0.0864794976275204","0.031873197759546466","0.0014657659261191882","-0.036442429725388595","-0.1363088576165694","0.27372270382072705","-0.4150710147628097","0.12013523494270578","0.6521583496087289"
"0.16192691382480467","0.030633767855339434","-0.08058254509023723","-0.3826041488829125","-0.07984522904452414","0.20119237294286096","-0.24479985427997786","0.17294173764356943","0.48261593889105914"
"0.14973824152371498","-0.10639896942918044","0.016079715547149407","0.09213294702823166","-0.07318515306036953","0.22254835730755387","-0.26898781299003205","0.18153907212959333","0.4931241336381778"
"0.07419775603425365","0.046967211782015086","-0.08263224299148111","0.17336223490086852","-0.01358113238459465","0.14761202922477665","-0.17077766047291146","0.29997499527322635","0.5213840360163512"
"0.1186045203060289","-0.03308178414104484","-0.13096453923617057","0.1385402969883604","-0.05890457370895878","-0.263923859659291","-0.07367381791758182","0.32313597519461673","0.5226252952664154"
"0.11649491185030347","-0.0042183692964257785","0.01973020652259684","-0.06585293097430626","0.08131268824855421","-0.19084445373122155","-0.3196266371501648","0.2816375585024182","0.6350527769297621"
"0.033786388376157155","0.08897112098600646","-0.049454652844839436","0.06412507901312542","0.17529076448380468","-0.40499751916605925","-0.09776120299474529","0.346004619167487","0.609751492490098"
"-0.09922779000673747","-0.03640626293152286","0.009541435745900564","0.08590222920677971","0.18689806868599432","0.05505287528446786","-0.23519507233897957","0.3472271149522075","0.8498246342936059"
"-0.3254769693064133","-0.016428320293416628","0.055299134205876295","0.020611593361506135","0.19182860498426954","-0.14697639230819143","-0.17585662893385862","0.32826514229137904","0.7767773776048977"
"-0.023228768004598926","-0.00033489130745538854","-0.08666634693818408","-0.25039426969022516","-0.3434684217737903","0.04714509089309706","-0.05728031575650571","0.3177809121376343","0.7460519602779667"
"0.007860915548008282","0.07719045237488888","-0.005394309450068969","0.32027537375529813","0.013126196029828462","0.05224127992689393","0.061698291952407176","0.3427490597407855","0.6802142093704533"
"0.0910648627542922","-0.06726384721884142","-0.04951994470062423","-0.1244459682410963","0.020008402946170994","-0.058506329947788975","0.09352984676210337","0.30636652214768917","0.6682607127568216"
"0.10681899693885737","0.09433585623045386","-0.051404081110413835","-0.05885270606290669","-0.07943049903818485","-0.066259600757193","0.050082037353607826","0.1739782014610499","0.6337435034742152"
"0.10191560723076838","0.054250513057415926","-0.014148081829215215","-0.06573247772995482","0.06014476600549023","0.034756412624689904","-0.023185854206783957","0.16611170684632637","0.712810017348166"
"0.025765404378410538","0.02608151037136867","-0.06491483155388036","-0.026547345024121278","0.16028087663827406","0.269981267800246","-0.2471633346528941","0.2334951429802166","0.7835107839477118"
"-0.035827172189541234","-0.02234972449421354","-0.005506238345700037","0.10011471655889176","0.2084049652995647","-0.21301715274345315","-0.11500958103538615","0.25306836353340534","0.8880316142236633"
"-0.23805993414206575","0.011900140862466423","-0.03318765334645792","0.010982302182898617","0.25293387124336303","-0.11471616373041492","-0.4059188141698162","0.3059944582132091","0.7977937670991351"
"0.025909548282148163","0.04734263968280894","0.00599352293959502","-0.05284298510299213","-0.5372487702466288","-0.05470695133407035","-0.3809765532130868","0.3217540234379761","0.6516312395162358"
