"AccX","AccY","AccZ","GyroX","GyroY","GyroZ","MagX","MagY","MagZ"
"0.10657587030835586","0.05014590454946039","-0.037500078519682636","-0.01374259471325232","0.34148431529849566","0.07011770538467488","0.4959155353384938","-0.8091760643755166","0.559511420891046"
"0.06865523087315861","0.13414594265436255","-0.012353568136579571","-0.08663429238528518","0.4593541952605131","0.08894546838026077","0.41622499479723546","-0.8558253265159754","0.6141312202151082"
"0.08084933772720897","0.11229132838032502","-0.0065130350088351985","-0.09978737741269582","-0.47625742247657243","-0.16191420905783233","0.4788907380410433","-0.9167886297826779","0.5082420281682504"
"-0.245060192439532","-0.1612756754862751","0.13281920242513726","-0.18409535983476785","0.12226309164852878","-0.4104804814906627","0.5357329417837594","-0.9219733469832436","0.4716163638100147"
"0.020295704228201088","-0.2264448056931722","-0.051622272836343186","0.12598703114959853","-0.026960655042796235","-0.3849253971463059","0.704559859664698","-0.8283054280926164","0.47599640756191436"
"-0.07391905597625129","-0.12926240495748056","-0.1477824789752773","0.004389734967449549","-0.03564904134180358","-0.5299316924526035","0.9001081860697859","-0.7566296811443379","0.4451072930429206"
"-0.11602314541388425","-0.051631782001266516","-0.029829731972142823","-0.03382458860775958","-0.10668927782733784","-0.7520400798405927","1.1372850675688044","-0.6144919123939692","0.415362219802408"
"-0.07582543825584226","0.05080029651679136","0.021267911038253273","-0.015789400361640185","-0.0763853505160878","-0.7144961904951799","1.322997463620374","-0.44348859342772834","0.39552127534417586"
"-0.01839326503483132","0.08009212743541583","-0.010410578898042831","0.029355853854824383","-0.05606147192446442","-0.5513125369990216","1.4060316632053211","-0.28013701994832735","0.3754188357365767"
"0.04019525420526486","0.12380031726608244","-0.040521542439728615","0.0960368538609353","-0.0876290600807895","-0.373640388390251","1.4330595738084755","-0.15634892843527878","0.35067485722771075"
"0.0593775037791492","0.15144058750525255","-0.0691955035237466","0.009439837991258831","-0.13211566574036268","-0.14387032946616166","1.42748680873566","-0.07661905972886951","0.29724812952263613"
"0.06899510609775236","0.1413650286431725","0.0019008023187569406","-0.0583333051604453","-0.16769920635508903","0.022026094521935897","1.4450410187150282","-0.08074440595944686","0.25093080119098077"
"0.035222292349665174","0.01840166182945748","-0.05398905181950975","-0.046513628328245016","-0.07463345707177925","0.1531535278768083","1.4720689293181823","-0.12428415704602955","0.2430042294757892"
"-0.143290188928034","-0.035073587792976","-0.031194863654405564","0.10568264209762297","0.23876400569504821","0.07050357987762385","1.4706757380499786","-0.17904163086961228","0.29144620589605263"
"-0.1281546690112814","-0.14438613042468523","0.04205756545024971","0.06374238129766038","-0.036130094049871914","0.5627241123298963","1.4143908108145444","-0.26420028107228816","0.3242801905884646"
"-0.07397682513623889","-0.138974412726599","0.022842872340664115","0.2165625134639589","0.22621594923533542","0.8305549868069338","1.2360623284844552","-0.44154927172675335","0.4057849599568363"
"-0.00274745087152155","-0.08744779696243991","0.006121558172070651","0.07400529202758258","0.24599176280134857","0.7378965708271107","0.982417926195268","-0.5575127938462763","0.5371862725138261"
"0.03239738042627127","-0.08486762291982065","-0.001046725573717163","-0.19001626987126147","0.016053594268500133","0.5867259911680432","0.7653029989583847","-0.6625000189915737","0.5909888994961161"
"0.09628628749258354","-0.11009806877135926","-0.0248917140412953","-0.13832624387787276","-0.24292053279582418","0.6656725147883589","0.6092377130941925","-0.7807194867632514","0.5376438890252185"
"0.11556090032509474","-0.10029257643547927","0.019615915830020342","0.20837914186880518","-0.003958916376259119","0.13940037849604198","0.5389372817006282","-0.8308384197020531","0.5541017399885134"
"0.12358696228603937","0.03733228659867489","-0.059672625782576406","0.03007791605439677","0.39882771273788525","0.022902199502782314","0.5415564812848511","-0.8097301562900808","0.6346422459935935"
"0.08532644762624839","0.1947654906121967","-0.021684377426236245","-0.12164179331975344","0.44205065755238343","0.1413370316115972","0.4624232172508742","-0.8777119571412642","0.6652862088100557"
"0.08984803977847823","-0.009333131693882646","0.05798065965637033","-0.02586938866767072","-0.539225067995368","-0.24897137768088687","0.501070343030848","-0.9344272223963075","0.59223100145561"
"-0.36873433577966364","-0.063356824107984","-0.006604525679824972","-0.16569721498966342","0.2636782280382889","-0.18455945996164927","0.5267329261911625","-0.9568019816129981","0.5582202885910458"
"-0.008341431196987992","-0.26231171780736023","-0.020083806996956936","0.1687331133642839","-0.04149107945322053","-0.376358498026118","0.6717920010365442","-0.8722238086541515","0.5649864755809205"
"-0.040576622470071745","-0.11172885510264434","-0.23254249315340914","0.01679389708146369","-0.011235736072188337","-0.47833614704319954","0.8524053170464875","-0.8143871669053471","0.5010835984543249"
"-0.10573060674275929","-0.10155981167380278","-0.04911092620149978","-0.0008561913248837666","-0.0907211998759352","-0.745099192734718","1.078966081081793","-0.6946505427009341","0.4739044463669773"
"-0.08013886886825013","0.035668261310318986","0.021114669327475816","0.04669786238935429","-0.09886798305138103","-0.7132099421853498","1.290954064451686","-0.5171168547416143","0.4906074490328036"
"-0.02353472027372818","0.07258947159409582","-0.009531194525414273","0.06908082782649891","-0.028752277218218898","-0.5682764533871559","1.399344345117943","-0.3631056878220111","0.4706030701062171"
"0.014982867148007645","0.11560483691331838","-0.04747731173755147","0.11218120189377445","-0.09330117410129672","-0.40688869375755266","1.440304168403135","-0.22798641665612315","0.45007570088089627"
"0.04050817048853105","0.1739288193984518","-0.05982958494725412","0.010388723996456892","-0.13360908310272407","-0.22255717654090787","1.4631525052016783","-0.12886992727228053","0.36152690592644715"
"0.06464412553135256","0.17619322334889867","-0.009054121274880698","-0.03344333976638536","-0.20819379252681156","-0.02777307164419239","1.483214459463813","-0.11192131101893","0.31370598048593074"
"0.05825196797872403","0.06196754737516482","0.02190875878561504","-0.012904039812148922","-0.12973433517057165","0.15621382810076212","1.497703648653133","-0.13157310425547625","0.30407969029985277"
"-0.02859914996597493","-0.018539284085080116","-0.177679069342048","0.09799027279817846","0.24541737150813267","0.20878498071875404","1.4790348856592013","-0.19033587106148073","0.3372242004821383"
"-0.21640668908567978","-0.08029415017036308","-0.014879371536590665","-0.0966776962065374","-0.021584352538295205","0.41924675369377384","1.444205103954106","-0.2523004975737888","0.3839010846441735"
"-0.14759399134711054","-0.17479977614444853","0.017733025429537832","0.015986150167542044","0.09886382634114516","0.9455650007745563","1.2820376403351812","-0.4620242872363665","0.3995907936062021"
"-0.03299923431836419","-0.11123027074658266","-0.009076839048715632","0.05387130965470611","0.1677046228330734","0.8918580666301485","1.0084706029106796","-0.6289246875019052","0.486374496302423"
"0.028615426085749376","-0.0897277816740137","0.005463981882157707","-0.12723536849244085","0.0014331818888053513","0.7005468321699738","0.7518726351328998","-0.7455874208469498","0.5472701792112966"
"0.08490762121633824","-0.12984408670621922","0.006582109405269729","-0.10876983117537632","-0.21718062296858567","0.6448013157986658","0.5653243243204085","-0.8627514754480289","0.4988772331315395"
"0.12561177134360493","-0.10060419165801784","0.0014551209011589086","0.13008834444316966","-0.06811411589377853","0.10443626642109921","0.509095124735702","-0.8949943478098166","0.5105301107252129"
"0.06818922631592526","0.03268921978285037","0.03541571448178228","-0.046391359129117425","0.39612328706566025","-0.09654367231523095","0.5053335083115518","-0.9025273593149642","0.5357807360859778"
"0.05714472574562826","0.1361818287749478","-0.006346575684190149","-0.06211402283740631","0.4261112991656416","0.039699146298999","0.44888139812393285","-0.9294667804944938","0.60687472982017"
"0.09192686300063223","0.006494740304518334","0.055710947525043936","0.06119687135676785","-0.4858784766379391","-0.3607293676198827","0.5358165332598512","-0.9588072666371354","0.5329206328897745"
"-0.28344779925129565","-0.01780906574693143","-0.005506431102731024","-0.23503444114060126","0.36055889282737447","-0.29724209255356066","0.6044729989569357","-0.9653508282948469","0.48866257885938547"
"0.02249382076572947","-0.2553107624743273","0.12440949560187872","0.09526087768379483","0.006444027932997753","-0.43249231577397845","0.7591172297275595","-0.8950471184683465","0.46653355184419093"
"-0.027645958826179422","-0.14269302104889242","-0.11569672131168586","0.13110885901856534","-0.03132914015740883","-0.5269466256203568","0.9473095062365319","-0.792685233584913","0.4544557446327959"
"-0.12190597153928877","-0.07622653279882645","-0.127340613028172","0.07837328696019581","-0.047625099805355564","-0.7528166825936976","1.1723377598768123","-0.6446635364084571","0.46238231634798754"
"-0.1111223950082691","0.020302514686942687","-0.033491424063900516","0.018677998047547908","-0.09172877793611812","-0.7650724447911336","1.3659077546810512","-0.4669055731503851","0.4646213685644437"
"-0.0556928860001618","0.08943227437230489","-0.008009310203690502","0.08894524031153501","-0.06385883372987057","-0.647198708171437","1.4536788045778921","-0.27169371458353836","0.44478042410621155"
"-0.011557247769631351","0.14379562737897325","-0.05937522947055548","0.09613024057207999","-0.08958677707183375","-0.45702810900488505","1.4656602494844448","-0.12309417869617961","0.42191594198342197"
"0.05345423924175341","0.19865029371984408","-0.0819505009059776","0.043784582101479556","-0.11994096362124017","-0.17696088739923893","1.4659388877380857","-0.018554184881923355","0.3662011317213848"
"0.08188436851032023","0.151565233594268","-0.005623530900589266","0.023157671933695004","-0.1639058305228089","0.00925267805188341","1.460644760918911","-0.00629028383956743","0.32137105705175517"
"0.05175197466078531","0.02852811784455216","-0.01998260964078315","-0.007038969252422268","-0.09681932077224424","0.20016954392649705","1.4567438253679401","-0.046843215653356036","0.32202479492517305"
"-0.062451877718711635","-0.032900590974473794","-0.16004801159397383","0.09413542340206134","0.28201088348009706","0.0839533688079586","1.4414187214176986","-0.10171810419216787","0.3659886669125241"
"-0.13702223506937883","-0.12818213885268023","0.026455411430851686","-0.07585053412207143","-0.04717515995900309","0.5498616292315971","1.391263835762361","-0.17830152238373","0.4056378689353173"
"-0.13075428121072363","-0.17475822744811007","0.031785001172526764","0.09881823745368812","0.2462550254774059","0.8883876230772112","1.2290406444927078","-0.38205035423425626","0.4648828637138109"
"-0.027732612566160834","-0.09537009463677855","0.01807854211704548","0.02776250326776798","0.30084613130346916","0.8256526819279595","0.9662011798333754","-0.5295971154839428","0.5987193498492823"
"0.014897176227359374","-0.09829512285900711","0.05091336674153963","-0.17182992993803156","0.14129458983041635","0.827011736745893","0.6930520997893346","-0.6734235453072693","0.6802894930049956"
"0.07294170254423893","-0.12042291981147014","0.0234011100013534","-0.20083757536885297","-0.16279294739220304","0.6615225438264548","0.4566832692258743","-0.8251523812454531","0.6402807351518226"
"0.10958853200170948","-0.10855037983275108","0.046648621017072824","0.07003587542913331","-0.1395037737493525","0.1795143375775113","0.3740112993706597","-0.8905748051579349","0.6105029750176391"
"0.11485611657324596","0.030574391139222026","-0.04949712835669363","-0.013001277521691338","0.2844041805351634","-0.09314360838679375","0.366488066522359","-0.8753768555013148","0.6529795933429645"
"0.04321369281461724","0.2513963637215374","-0.13921787823950788","-0.18866842043205967","0.6032392142111016","0.09045256309800488","0.2831473648584068","-0.9306277349821525","0.6566405254341046"
"0.10540411917994061","0.05033495111780045","-0.0558374525088065","-0.025184873702476098","-0.32536004315463946","0.20950819203258297","0.23059619022175845","-0.9981345999065664","0.5999941387024469"
"-0.14912487408678213","0.16251331507945596","-0.16281131899316834","-0.30694220872201683","0.6033110131227536","0.029338780195859507","0.30961799895427927","-0.9985567651748058","0.5474172702328157"
"-0.0018712852783761924","-0.2785572580757037","0.23684801931962512","-0.042849403352815","-0.1598731249850221","-0.1437635465876097","0.3441691424057339","-0.9997572976563619","0.4908199138416644"
"0.03297122074881481","-0.204226640326173","-0.06987497148662775","0.16785701122880273","-0.12251854454954662","-0.4687984944816305","0.44520337317587483","-0.9452715927242082","0.49774953529989374"
"-0.11495441595411358","-0.11808580564243094","-0.13841862565095162","0.00427237579127905","0.02676575255727158","-0.5752173404930305","0.6585845478139721","-0.8464981126208102","0.5142891034973657"
"-0.09736370673788779","-0.051163320450050224","-0.06637023855954777","-0.006937206619762533","-0.06745356590658022","-0.8237302214865849","0.9323466320160226","-0.6798087949893911","0.5402424970720546"
"-0.08330654447423716","0.0654160891712582","0.020294144641601407","0.03817849118399954","-0.02592842602294612","-0.7594420748311234","1.132325306653999","-0.4912988100558456","0.5387715868568644"
"-0.02396798897363522","0.12964829627572275","-0.02718414394645664","0.09188836583699207","-0.015743271745700286","-0.5655583437512889","1.2157217359686796","-0.3172611782241337","0.5465674109973725"
"0.023583732250828954","0.18154261800247723","-0.04647566443664765","0.12003723862512203","-0.09885122997199557","-0.3545650832671129","1.2443100207922222","-0.1829849183282614","0.5113145961733143"
"0.07173336428116485","0.16972201389418126","-0.06746275695579132","0.014188696665406514","-0.18784358766758247","-0.06966350952338908","1.2379570686092123","-0.12380130552048069","0.4806869768036876"
"0.06894311385376352","0.10863504310253927","0.00692783261799406","-0.009639355920482297","-0.10928361183502976","0.046278427747959205","1.239461715178873","-0.11476169171430353","0.46223522532646844"
"0.06756917066539163","0.03153832089427463","-0.011558446052356947","0.04491581288080963","-0.09082650494635812","0.2379172914946","1.2314090696486544","-0.1778120745258649","0.4224716191758272"
"-0.05949602236601248","-0.03554308806160077","-0.23103485907163634","0.05919820318835148","0.2786842005735548","0.08815187744193173","1.2032387422055735","-0.2453611559771029","0.4453034144049458"
"-0.20373598666173165","-0.14751266982415542","-0.029837992980810073","-0.09480996198364348","-0.06427287412039705","0.5184092177308502","1.166263445947444","-0.34718214161060446","0.4415771085264641"
"-0.1044115442563756","-0.17437390200697916","0.04965562817195111","-0.053425207702551915","0.05600226938196202","0.9066863254472445","0.9848699428273067","-0.5370245856720307","0.4551748562935556"
"-0.007311214510542354","-0.12233415984303998","0.026454791855201644","0.0329103253759194","0.2137803777372107","0.8227404216038162","0.7381357692284102","-0.6468271334081843","0.5560466101619314"
"0.036539429197382574","-0.07875788712324801","0.06605992613293893","-0.18420126229070516","0.03649689838317132","0.6563290129150661","0.4651538721365537","-0.7646508212408873","0.6023312515999159"
"0.07838066895707196","-0.1138686129640758","0.027495265896841533","-0.06757281306617356","-0.24134095673948042","0.4618628297704029","0.2899182744218772","-0.8559968311561977","0.5623388371935782"
"0.115160367482514","-0.019252882944693413","0.010126020165954139","0.023321339365598076","-0.0244196915594323","0.11861897419967668","0.18896763512782844","-0.9002977989920746","0.5779304854745942"
"0.06105569787678914","0.06505357679570502","-0.03236586163298797","0.0001126235970224926","0.39550102983134305","0.0410630548841394","0.1509892411565922","-0.9068017826558886","0.5983761374657378"
"0.07767588520522317","0.1062792320201478","-0.042431900694029724","0.07393886230522193","0.29986487951089197","0.06627352175680583","0.13349075882795236","-0.8905352271640373","0.6416535846860003"
"0.09898086256285209","-0.03042428867270072","0.029287285201984318","0.06333802646589984","-0.6055433293912562","-0.18745958586777522","0.20724630456666257","-0.9102054901310692","0.5872789370644698"
"-0.18005063106681346","0.19187785621667275","-0.29854795240472104","-0.2488402703964253","0.5221303770149033","0.017300466769292838","0.31577590435973996","-0.9454035193705331","0.47828449011887697"
"0.0011433020536436814","-0.27590852868412596","0.2426926829517031","0.030592987090091745","-0.08826567709743713","-0.43875367547088634","0.38170171517114476","-0.9391897743286336","0.4336995671517788"
"0.024476265772637455","-0.14442767912102372","-0.14397415397967595","0.11596480781953378","-0.09103950838425902","-0.3882502276830361","0.561562707896258","-0.8440310843345358","0.47016179704166006"
"-0.10362203240321169","-0.07679678865607201","-0.11539519449533131","0.01125038488794661","-0.010908811694466272","-0.6491644838902336","0.7948943814950341","-0.7388327765551187","0.45610643276317614"
"-0.09912566611750971","-0.014071760511285654","-0.00020513531574126886","0.018168703509449515","-0.11528600084913614","-0.8230021564055491","1.046170358628275","-0.5630669056565515","0.445123636489756"
"-0.06319324860521922","0.07110098954776997","0.025177639915245093","0.05158863035445794","-0.03752538623297559","-0.6601582666138742","1.1910901143468362","-0.37769677490553694","0.4356934676657035"
"-0.004287961804524359","0.1294613271421996","-0.04523857838872725","0.08949785858160775","-0.11661906730880811","-0.4626342101288607","1.2470964033286298","-0.21418293165115648","0.44878456858089605"
"0.03718162969257812","0.1792782140520304","-0.05192793015703136","0.033831676742573764","-0.1155444769310833","-0.26265900120436","1.2526134407507166","-0.1102075838831705","0.42157272959987757"
"0.06919055842237709","0.16444532945919502","-0.047727207249735726","4.734917418114864e-05","-0.1489525105227544","0.004048711540999829","1.250551517673775","-0.07902276322490787","0.37332687454163954"
"0.06652354886961598","0.06045829098066974","0.015295408297049612","-0.024451258507710554","-0.13740245893500422","0.126372867312708","1.2413285914782657","-0.11194110001587873","0.34181670904289874"
"0.03007602301410266","0.014427529024682405","-0.1761528479907739","0.09656444064142285","0.0926604003744132","0.2515005590231246","1.2365917411663727","-0.18263795124842705","0.32944471978846573"
"-0.20950327446716088","-0.02305978224670613","-0.025862382559696948","0.08282504110795945","0.09052079280718389","0.1228902893417534","1.2191489864884608","-0.2622609593713132","0.3841625797935406"
"-0.12026917867297326","-0.17268079263118635","0.028203647390058054","-0.039753200641048606","0.07268115655871937","0.734644546798484","1.1193129002089754","-0.40945151867592283","0.3955866491315177"
"-0.05883167702615503","-0.12934550235015752","0.03478581257090462","0.0904220981970604","0.23699296587429916","0.8456502028204095","0.915349698543936","-0.5378161455499796","0.4727930919821669"
"0.014232830887501905","-0.08778330268537309","0.014911890969672622","-0.04348289258923985","0.15220323780740874","0.7354939560596925","0.6256216424082697","-0.6575791550836577","0.5755279987897837"
"0.05817012833540825","-0.1103992968198132","0.042578008996286346","-0.14150331755599127","-0.12233904727041667","0.6657453212964624","0.3866893399113146","-0.7661679776736229","0.5851379455290262"
"0.08766523206834659","-0.098420807665431","0.03638431774801711","0.08595301455650704","-0.11558516298101944","0.3696897905112701","0.18866113304882345","-0.8700470189897918","0.5984578546999151"
"0.11074198956279532","-0.006722834846417993","-0.03006930122349302","-0.006035591619896479","0.1601896700801651","0.00881826588686538","0.18827103949372662","-0.8651789257404057","0.6392184111075185"
"0.07071758988471612","0.10720161307886192","-0.08813593114557956","-0.018590038946381622","0.5546552839932548","-0.012046865893819028","0.19498622140646876","-0.8530680596077864","0.6747980948682856"
"0.08731678775168801","0.07979401553918727","-0.023828109175387115","-0.21247721802595984","-0.01109094160035682","0.12814206545962498","0.15143506236241727","-0.917527419002097","0.6493186612518246"
"-0.05092693030118435","0.13736596662059433","-0.04788623166658025","-0.0680734428578771","0.16349720661026682","-0.23983416091388748","0.2876334407420228","-0.9619207354904014","0.4973082622353367"
"-0.021012133620936096","-0.282473222705605","0.2084384105129591","0.0605277603851641","-0.1104395743126268","-0.4307934972515616","0.37253451662636355","-0.9518679250404496","0.4729892133441923"
"0.013127514293072401","-0.13600368093839804","-0.024699645589781785","0.09683304777966376","-0.09838932364036777","-0.43530750075398356","0.5655472349233209","-0.8633451453564905","0.4907218531606518"
"-0.0947737227317768","-0.11177040379898283","-0.13601260687661565","0.027553586604691708","-0.010020659157331153","-0.6206486015496646","0.7667519178773169","-0.7595320673634841","0.47857867216191496"
"-0.11948929501314057","-0.01706846023469812","-0.024474533103599275","0.004263807319844124","-0.1168823299848654","-0.7838322550458229","1.0072724584200239","-0.5945841814635527","0.4737736987922938"
"-0.07133870016347157","0.05984752514449417","0.025160911372693915","0.040390889763489334","-0.05154532038155423","-0.7196169148984649","1.1593532172571532","-0.40753858230421286","0.4634773272859625"
"-0.010084134189947427","0.11117990075327083","-0.03258890886700367","0.06834913813093221","-0.09860950696943387","-0.5165595637975793","1.2425267359689214","-0.22554577369911383","0.4772548529682438"
"0.039376857772107116","0.1396511449192104","-0.0616635288713832","0.05767513332205345","-0.0879114691332873","-0.35259930754831625","1.2486846413743817","-0.10545294754962373","0.45559978591127726"
"0.061088433734115447","0.15796373283039303","-0.05394981202834032","-0.017378899950298867","-0.1589780318864273","-0.09734454390437033","1.2313812058232907","-0.05482741628893457","0.41846747470114287"
"0.07953605215682408","0.12050758308125833","0.012937096847766975","-0.042150447143628936","-0.140496992027205","0.01783632266893519","1.240771314970984","-0.06634065471370224","0.3713002871340442"
"0.03078850932061646","0.0013547510804856639","-0.1072932102449278","0.019227728068822354","-0.022145580697708257","0.17013200556656324","1.256765150729964","-0.1256139776409838","0.33068682174795966"
"-0.181831846833098","-0.00919498227855722","-0.04251864128503584","0.13457475757651277","0.14119646465115865","0.09952182712410754","1.2633688773412504","-0.19330290133732608","0.35641140706695246"
"-0.11205632976140203","-0.17559958854896418","0.02546470996643196","-0.00440469379846231","0.012360018923416248","0.6209207811406915","1.2033501975070298","-0.3108495432127471","0.36154324937328264"
"-0.09797028291775764","-0.11993472262949306","-0.00023611409824344793","0.14740820973691268","0.21133921474104303","0.8275456511386525","1.03499696465728","-0.4517208161583975","0.4301040088479806"
"-0.003652501044660677","-0.11445029471281441","-0.012142912415564746","-0.028359059131796323","0.2100994868665186","0.7854634894547832","0.7577240384593558","-0.5867081606779606","0.5392292033682569"
"0.02963023766286498","-0.11718212149706912","0.022921971498653014","-0.18400871237081917","-0.00594487427255317","0.7680384651819928","0.48284740124274206","-0.7210886426244294","0.5840102476973804"
"0.09355624215808264","-0.13014531475467317","0.02183131182935959","-0.008699808586398704","-0.11103550527933832","0.5798336417342377","0.2452246985378988","-0.8742554790075537","0.5914301725606731"
"0.12775308154047885","-0.06516523111611609","0.011387868587354612","0.1849458166186826","0.005463972788948088","0.14989422319737136","0.21359925674967187","-0.8644665218502516","0.6774947635961343"
"0.09461861701025469","0.06917832362470706","-0.03619690440242426","-0.04396908113695192","0.48290423828236584","0.09862388019083006","0.21042278065816739","-0.8665773481914488","0.68063270538854"
"0.09215736194898276","0.14868798637282862","-0.02888384647974292","-0.05405869693897676","0.3995935677955065","0.12582924538553458","0.13212543138511265","-0.908318939088624","0.7187619668556366"
"0.07307842288954293","0.014065847623055985","0.08478969803375708","0.027486194132731612","-0.4810200836161544","-0.24906845302502498","0.2077757172485801","-0.9586225693322806","0.6275818769606807"
