"AccX","AccY","AccZ","GyroX","GyroY","GyroZ","MagX","MagY","MagZ"
"-0.009102058470158134","0.14629893633336633","-0.08021981959018913","-0.08769620519345632","-0.06568731267994125","0.4111166936222073","0.9150710602902953","1.11647803604019","-0.3670802974445931"
"-0.11746737441357441","0.0767401863583094","-0.10334444810198322","-0.08871094327125538","-0.07994896983108159","0.5912399946704652","1.1364491528078824","1.0183773818330486","-0.2891057125926779"
"-0.08074544504811997","-0.005856544527760801","-0.0993688376808701","-0.10905865605520529","0.04248253431789225","0.8247304661586474","1.3408303118533829","0.8994323175065844","-0.22072636537785328"
"-0.10964928142858514","-0.08856337945912797","0.06731353419819382","0.027883809717296145","0.10148927321055294","0.8653322288444107","1.577672827448032","0.7070041111771914","-0.15373621114404165"
"-0.002785963644846616","-0.13138138847074277","0.020505626463482956","-0.07883505788030398","0.013673460347236656","0.7103514419279227","1.7300879521895298","0.51367880365279","-0.1149793613184638"
"0.04920531752466504","-0.13932757664547601","0.018489940348674433","-0.08231924868064061","-0.17345747906957867","0.38320753218250153","1.849066486494136","0.36439061067161554","-0.11646007760175525"
"0.10195587802028044","-0.1657421603426611","0.01655707084575507","-0.0014782238410753934","-0.1315221280707062","0.1672925517505236","1.8852894594674356","0.3023587015696818","-0.1644460718553097"
"0.09931698279204663","-0.11327654404125252","0.06380054026244658","-0.01942859384748502","-0.18118064866627778","-0.07440321320093217","1.871636185039038","0.29989167328340754","-0.22124281829785342"
"0.06176818418330294","-0.04484895732401058","0.04444706220725122","0.005348344743601851","-0.13508335408864494","-0.3451973125577856","1.8710789085317563","0.35317684573400526","-0.2714874769040665"
"-0.05524036091359224","0.004582440781191879","-0.19620851178268536","0.025623273657834855","0.1566164775769511","-0.29644122096442127","1.8370850415875832","0.4408025242229554","-0.2589683966281145"
"-0.1311586653306369","0.025182409071896505","-0.04363387745511432","0.007376087949921003","-0.07304191453016012","-0.7013424813644662","1.7989116008387984","0.5317395615346586","-0.22404245074076534"
"-0.16838126074931725","0.07453083443051102","-0.06878864884688464","0.028357482520215627","-0.03574237992695116","-0.8962212347217163","1.5977347817101673","0.7428881589775445","-0.2608642364610263"
"-0.07857910154858476","0.07957380744859335","-0.061186455620849615","-0.02669831607277983","-0.09414600796173514","-0.9065112212003558","1.3438953326434309","0.9245775362960964","-0.3207793125597732"
"-0.023486579307071837","0.05949020635598328","-0.0056047371058712755","0.11585890536359648","-0.07236939805768648","-0.7533263281504227","0.9983560343035196","1.0815042820994782","-0.45513878899397886"
"0.031982405293693644","0.10778329482760057","-0.006575818674706283","0.19448666514903246","-0.2707689373285762","-0.45025710375125205","0.6847765436562039","1.140699768305428","-0.6803187994927608"
"0.09923341007393123","0.14916579638072106","-0.07905501736810715","-0.029283298747248977","-0.1263885058875889","0.04868589628258426","0.4892560810764799","1.155317240718219","-0.8539025483320378"
"0.11287752284367047","0.004052923420706192","-0.023795065140718122","-0.11369910912445717","0.2193759062519558","0.2444868654091464","0.5524791008275692","1.1469662840058574","-0.753210572378852"
"0.0961123830646342","-0.13195268304539678","0.058802630018761515","-0.0064473596235726256","0.4815879249020794","0.1550562046219152","0.7043648128871495","1.0980214982193466","-0.5924400858585649"
"0.0658014343697709","-0.045939610602895524","0.03563876171579798","0.1455308480180245","0.08774456822330694","0.02812291151052972","0.7739129209958842","1.0771375101061265","-0.4824486886560099"
"-0.06874871615736061","-0.18585172937048272","-0.06132689276819283","0.18756449552913176","0.7204150380271498","-0.02283945996673344","0.7948943814950341","1.0379157181537555","-0.4714005185952481"
"0.003333716036507041","0.2558109127075002","0.09192514427009259","-0.05824665769649661","0.017467793498338834","-0.12738208226430414","0.7914949948006165","1.0652509192722597","-0.3506551333749694"
"-0.020617377694354105","0.13687776943861726","-0.1593747393875931","-0.10338806091456347","-0.14144234436395622","0.483704782201477","0.8908852598742772","1.044986986396766","-0.25963847794836786"
"-0.12107794691279974","0.03364587851604374","-0.12036832171301465","-0.06772011375488633","0.012139117605233623","0.7540110779540363","1.0579567567572787","0.9394192840076396","-0.2206757006926634"
"-0.10415158303643139","-0.04601439825630478","-0.05244837370306799","-0.04257405696737807","0.12063564965108368","0.909016133706559","1.3107373804601805","0.7705135987179633","-0.12573171499150404"
"-0.07114613629684623","-0.08545034338596776","0.039874593909929416","0.05383953891792494","0.10080957684691409","0.8640702493706154","1.537548918923762","0.553256797550238","-0.09261662301352236"
"0.021602250063254093","-0.12560611967969482","0.015248733598079661","-0.08363532738306119","-0.04449466725732879","0.5586712167121303","1.7568372245390433","0.3531372677401078","-0.028816709601989867"
"0.06135994878605719","-0.16291684899164485","0.02713549896938288","-0.07975640924695833","-0.15473710950484976","0.31493929641737767","1.8008620686142842","0.2559337147279752","-0.05610863147250197"
"0.11482819481258529","-0.14626620893400122","0.026076850708675044","-0.043491557335634715","-0.15743435528590952","0.054825911799319546","1.765196372148266","0.21223960946519244","-0.1197418417263129"
"0.08505974667097227","-0.09830551003309175","0.06320987814273835","0.019004370161754627","-0.16270918199527573","-0.2236322859772374","1.774948711025693","0.2367647730169778","-0.17216344745100756"
"0.03648262285672809","-0.0018863588491378786","-0.0455731492397508","0.05404653008180235","-0.04786203621380713","-0.41492167848498107","1.7362179937696267","0.32173872591479896","-0.20976318124063573"
"-0.23202361866899573","-0.022733624980449108","0.04811288480334254","-0.10634370218481311","0.10222162210940323","-0.02875353261998727","1.7236792723557923","0.4147733969030671","-0.15857714009670087"
"-0.12401454587883634","0.06240588612153573","-0.0079983643672064","-0.08329547677446246","0.004206773845921737","-0.8456935180978317","1.6030289085293412","0.5691143804384822","-0.15941065588530867"
"-0.1604957704110091","0.08026039965558664","-0.039773921155342666","-0.08894296592471798","-0.013737210154143678","-0.8320058945743586","1.4057530249516805","0.7269909980954028","-0.14745215583581245"
"-0.05809030613964743","0.06557085806511902","-0.010837673046139555","-0.0206147013539826","-0.048316762654269735","-0.9038173804005232","1.1427185135147995","0.9115563763038359","-0.20065988135329207"
"-0.004008744197917584","0.06251391273201576","-0.01614537111484643","0.1358744695357431","-0.208064554485838","-0.7528409514297322","0.8407861018696675","1.0567020725904108","-0.3612456869243387"
"0.0538894335803267","0.11305997926258682","-0.06746895271229177","0.22320548570002488","-0.3962495019257046","-0.3417996755129518","0.5299929937587595","1.150924083395602","-0.657013044305414"
"0.10764556258745968","0.12923280931233797","-0.0665148062112246","-0.10878908616736492","-0.1420669948953285","0.10870515467957248","0.4494665384565786","1.1500269822005935","-0.7380765406092286"
"0.12133781632385528","-0.04873272171424947","0.052447849101480946","-0.03381399836216586","0.2871325391779391","0.12742128102939956","0.5229434459416481","1.1290110674410487","-0.6826559123902296"
"0.1106649640161452","-0.13649187812037514","0.03801380170763179","0.13830059852630633","0.3782453580643147","0.009077214367353781","0.6519529573773218","1.1131534845528044","-0.6083095727357835"
"0.0752794278850707","-0.052685041453446844","-0.0387309688111026","0.007425573279331697","-0.25755793758460993","0.07042834648591682","0.6839963565460095","1.1014647836884246","-0.603537286259833"
"-0.2798853677187267","-0.07462690798979518","-0.045240643640894064","-0.22220098898020132","-0.03500524443399074","-0.15394675018769718","0.7586435446963704","1.1266891584657315","-0.4218635312370097"
"0.05925811418184149","0.2027324531350992","0.018527940988543774","-0.12318219267884122","0.07819531297359222","0.1445842018730169","0.7070118762967368","1.1729030626733186","-0.3035533195952126"
"-0.10502774862957671","0.0900388853388466","-0.06795222171932576","0.10300619821120797","0.08657663926043455","0.7800272701830492","0.8342659667344736","1.0953038093050553","-0.32192335383825443"
"-0.12076984472619919","0.03560074467876896","-0.0854779516068925","-0.0562730210176654","0.032404360419007884","0.7553944016080044","1.1139073180883448","0.9662267785408443","-0.27076836524330694"
"-0.10673193884921107","-0.04965614149037206","-0.003961415956738958","-0.0656838983520922","0.13182431338351883","0.9329937437086715","1.4177344698582333","0.7856587777160535","-0.18674180202822582"
"-0.03283555503173265","-0.12334171572924796","0.030413880258980272","-0.002982712640104421","0.08206048771752437","0.8344865382445273","1.7353820790087044","0.5580985054703592","-0.1312982929836571"
"0.042594599983416734","-0.12080724525260102","0.008012090005570368","-0.08003368113159413","-0.08572399562495668","0.5295971511427671","1.8682925259953491","0.4038762559166363","-0.1386953370213802"
"0.08292806466742964","-0.15600937822537345","0.010056689650714259","-0.03767943800387671","-0.15800156668796025","0.30013530643631636","1.8813885239164647","0.3118046494465395","-0.20463297327898908"
"0.11154112960929054","-0.12888846669043427","0.03592583176698485","-0.030153624385133557","-0.16850096086853628","0.0735687338687846","1.9229056237089384","0.27242454551857853","-0.26106035782305165"
"0.08404878637118918","-0.09790456511342548","0.05823881617722183","0.02423498873545701","-0.1394224016494802","-0.220423945853473","1.9315434095718023","0.2862768433826854","-0.3011181460167311"
"0.048072079169574844","-0.008102251564855343","-0.07434624242777577","0.017649781475356827","-0.09197528753278997","-0.37055824621386607","1.9256920062453462","0.3714882642438912","-0.3224790310306596"
"-0.2596276489497398","-0.04858522384224788","0.0019206287395583364","-0.0546084269602512","0.16758017138620998","-0.013374856601628335","1.8922554158084546","0.42454916139573673","-0.22914160615342466"
"-0.15698147984509642","0.10705619264167726","-0.020680664873165607","-0.055337228407019594","-0.06402397122667014","-0.8929692106930898","1.774948711025693","0.5564626150559314","-0.2506495821888723"
"-0.14115273000849257","0.09009705351372048","-0.04118035788094165","-0.06468263876868516","0.014981875847241427","-0.858750151884407","1.5910474636227885","0.7634291378103201","-0.27403705461039624"
"-0.04030703305679625","0.08638883236551162","0.013369973701930772","-0.018974176036554134","-0.08757640754557804","-0.8659094585145924","1.3397157588388198","0.966978760424896","-0.35413628755091947"
"0.028190822759840483","0.07423583868650786","0.02072454319316503","0.11751483467461582","-0.22991296330153863","-0.6450145129283296","1.0098080665281548","1.1375203361289998","-0.5700495636940032"
"0.07956397391748475","0.11004769877804743","-0.05961273346973886","0.1706489850671493","-0.3150449328473035","-0.19458734301111577","0.75050730769006","1.167995391430035","-0.8501435555598852"
"0.10508687020967535","0.10947640420339337","-0.07566180805803502","-0.11877279951345249","-0.000660953034377699","0.15806311340659307","0.6962285758808394","1.1625995915953493","-0.9150106960497724"
"0.09350800490949299","-0.0798797019243868","0.0182540885512245","-0.10000880982056469","0.3878424792551307","0.18438751985324428","0.8407582380443033","1.17004025444807","-0.7266361278244161"
"0.09205000759333914","-0.13386392307696662","0.009888846607117448","0.09270477749730859","0.585576681944712","0.008774096605282541","0.983170249480098","1.1546576074865949","-0.5275729453686777"
"0.08061633544859229","0.016664926322509252","0.04515131319613411","0.0542419682504866","-0.43992717318066527","0.15834948567180046","1.0163839293140773","1.1044463258953656","-0.5513853474079232"
"-0.271258506493911","-0.14733608786471694","-0.024024308131234257","0.020978006840585824","0.23615531190502592","-0.2484617321241618","1.0484830561334928","1.0736150686492534","-0.4882669557294289"
"-0.034481976091379395","0.2904625254537879","0.08163605797503512","-0.14604749566530015","-0.18551969622711303","0.20407682652805587","0.9822786070684476","1.1220057625212003","-0.3941287019572571"
"-0.10278437958339137","0.08378892269213158","-0.18238577903021255","0.03814960869601664","0.09073379624508479","0.7145499505618959","1.170303700625235","1.032216487032523","-0.3618667379040857"
"-0.12327317499232876","0.04787111342492892","-0.08395999126428567","-0.0026123428692037573","0.02896040595676742","0.7932537858218662","1.4157840020827481","0.8821631195026646","-0.3136862566331894"
"-0.11802580962678792","-0.10037567382815625","0.10042778744085763","-0.03197033287925769","0.14096192153976211","0.9128506098000142","1.6960940852453568","0.6856583798018346","-0.17595349277214758"
"0.010564489228288966","-0.1338119872065435","0.038257501463315614","-0.10757602167208331","0.009819534099463323","0.6225467931550047","1.8755371205900087","0.5062381408000697","-0.14676899975809077"
"0.052919874511868054","-0.1189583282655389","0.029842424984423386","-0.12125669347998151","-0.20598956593909545","0.34233881230035845","1.946311237014763","0.3946677760031634","-0.21464333446570008"
"0.09533971092160665","-0.15415007406422673","0.018848055074399635","-0.06238359272524667","-0.2048144570850579","0.16394587926136236","1.979469189198014","0.3408812822965313","-0.27848247214963767"
"0.10059117789750657","-0.11982046371456227","0.031103467957478797","-0.01425766574894729","-0.21075701367278765","-0.06586786356758909","2.001760249489275","0.328572526194425","-0.34392163327876546"
"0.07270773744628913","-0.06261725731315915","0.05693564205996346","0.015404649409486415","-0.18347103394797626","-0.3202246802782575","1.953277193355782","0.4027153014289778","-0.3790600439749754"
"0.01852700511324724","0.014361051110540847","-0.09967449500155828","0.0376740103938983","0.05954913561757034","-0.40688869375755266","1.9134319230851529","0.4828475464066778","-0.36647558991168155"
"-0.33362994289386216","0.027749079788205764","0.04809429753384123","-0.031448522596366706","-0.047055495106249776","-0.41853773505412556","1.9268065592599093","0.49272885221640733","-0.30031731712179416"
"-0.15503658479218038","0.06282033436751201","-0.022080905842264152","-0.1108975077901163","-0.003492941439637702","-0.8219585964560644","1.7799641995912268","0.6891940139233399","-0.31063003207496087"
"-0.07900274205516053","0.07566095897091753","-0.041165901115773965","-0.12222907057540566","-0.005847706412117477","-0.8012572793186131","1.5790660187162358","0.8983241336774559","-0.3313698661091425"
"-0.011682414282937828","0.04618423635358686","-0.018208558029491628","0.017808635159262752","-0.002647389590082763","-0.6610562135471518","1.3255052079031406","1.0911217346165583","-0.36052657526357906"
"0.014760455882055368","0.06874829461760384","0.0032366074202509506","0.20849467182073675","-0.1050929486916086","-0.5003722501625498","1.051826715177182","1.1995258599016687","-0.5667808743269138"
"0.0844599102264343","0.12138010570436629","-0.11954635135062346","0.13536421224804526","-0.0968719733074557","-0.08057720508811578","0.8639966683979433","1.1971116022739243","-0.8395856889041869"
"0.11162874616860508","0.09117939705333772","-0.05793368345812069","-0.2095408317476988","0.07174298411313337","0.1342553852567223","0.841984246360323","1.2020456588464727","-0.7600911634965749"
"0.09398238599492453","-0.11224821380687527","0.06561796216924115","-0.0025532300437987646","0.6049863210613001","0.10297285560821724","0.9221763357581348","1.1951722805729494","-0.5530687224319742"
"0.09021044497546717","-0.15400465362704205","-0.0021660922481292746","0.28282856839271553","0.4474355759262827","-0.03852173912388431","0.9876841891890786","1.1158711734670959","-0.48821792538892245"
"-0.01951976365458963","-0.15331910013745723","-0.07788401938952473","0.21208572782661012","0.5506345449407434","0.008191887228814244","0.9942321881496364","1.0621374504189935","-0.5512545998332398"
"-0.05055143076126494","0.2458911614566895","0.10426709121896117","-0.1529600377892065","-0.05482413734699512","-0.07090607392835685","0.9474766891887159","1.1270453604108086","-0.3927395089762441"
"-0.006223228664109125","0.1805246749421846","-0.22682174465133983","-0.02674356530395303","-0.1604499095752931","0.4447047626939924","1.014879282744417","1.1038130779930067","-0.32414606260787515"
"-0.17897227341371155","0.06488634329294266","-0.025405961830831495","0.030783611510778852","0.17065555810197025","0.7678443144937166","1.2767435135160068","0.9613322999621933","-0.25262713925596125"
"-0.0937338778519999","-0.0328569648433184","-0.019445644077412026","0.036241438989946674","0.10075692431170265","0.8810584345947841","1.500768669443181","0.7904081369837473","-0.21651302478367518"
"-0.06607207841126825","-0.0707265241210209","0.03581637340214382","-0.002198264266488979","0.06965363578406043","0.8566682543800848","1.7136482952247247","0.5955524803619776","-0.19306835029822716"
"0.02829769570581755","-0.13488186613725922","0.021150398189961665","-0.0992674926290037","-0.06710175123948546","0.6173775310796507","1.8936486070766583","0.41833541635383736","-0.18039891031138905"
"0.07835467283507755","-0.1329706261056894","0.025751986542835514","-0.07811299568073157","-0.17968483800686127","0.2633922886800428","1.9499335343120925","0.32923215942604916","-0.21632507514506755"
"0.09754501009136016","-0.1267590960030875","0.01629767517360348","-0.03676675138361721","-0.19678973205942044","0.13613136628219122","1.9791905509443726","0.28684412796188213","-0.27313816503444666"
"0.0923975853725979","-0.10708578828681987","0.05108684792355184","-0.021411858022310513","-0.20154521330783728","-0.12911487715716938","1.9354443451227732","0.2777016113715716","-0.34030973152813176"
"0.04560918731543661","-0.027879431021969162","-0.02810111590852117","0.06130373656230456","-0.13369284849965138","-0.3313398071820708","1.9181687733970458","0.3305646185539299","-0.36484124522813693"
"-0.17984843900685685","0.0068891413045113","-0.00306798786937608","0.025331560529207604","0.15231332947194182","-0.05620158617503708","1.931822047825443","0.37573630225555066","-0.3317947957268641"
"-0.13884196360898837","0.08381073575770928","-0.003174967931616942","-0.19186474910216675","-0.044729210368725285","-0.6744283422021761","1.8618838461616116","0.491132539795877","-0.3151571668483796"
"-0.13021510238417264","0.07138767555250543","-0.022985486291327815","-0.16373320580682652","0.004576777570634993","-0.7502927236461069","1.720335613312103","0.6953022176481793","-0.3043051181496431"
"-0.0432340038295016","0.07477701045631649","-0.03817748123039698","-0.09203531763808664","0.008652562455412972","-0.7214128087650199","1.5130287526033745","0.9017674191465338","-0.2940904638774891"
"0.003935478119711263","0.06945462245535791","-0.014740999641414261","0.06369231831849002","-0.05596574004226176","-0.5762851692785497","1.2689416424140656","1.0597495781205144","-0.4111749170066278"
"0.05705518354764747","0.09604786554679845","-0.022392758919452766","0.2043837310311713","-0.3032220453952758","-0.4179067453172279","1.0307337993765766","1.1365045009522987","-0.6368615743573085"
"0.11069673705413838","0.10225212462754114","-0.08629785671711687","-0.09484365821962353","0.029276321168036173","0.01625569337800646","0.8861762733877477","1.1386944832812909","-0.7582443540041696"
"0.11641780953157756","-0.0652005475080038","0.07717511329472118","0.0031075450509288733","0.5354849745821735","0.03456143371048967","0.9412909199578913","1.143483420542882","-0.57451132468008"
"0.10920051581045939","-0.1488837768033251","0.032338488753232385","0.1795640463578697","0.38999644660469046","-0.09775226034975039","0.9405107328476969","1.108496473937538","-0.5086635773800662"
"0.09439293215856978","-0.021848637748439603","0.02075738070261734","0.028921653785481526","-0.42683583828945243","0.013595343571901633","0.8871515072754906","1.0915702852140625","-0.5628421036395712"
"-0.3452126594713771","-0.052734899889053014","-0.08451967460149172","-0.16125893933629182","0.1558601957075501","-0.22826520677622855","0.913817188148912","1.1167418893328398","-0.4096059461104249"
"-0.004461269284487165","0.20432169077004583","0.0922906939036183","-0.12652293378886278","-0.1906581050043405","0.19532305737040206","0.9096097505189361","1.1330876008124857","-0.3094533039028088"
"-0.09682452791133676","0.16139150027831717","-0.20212132873626817","0.029333710614037497","0.13011549928620147","0.6523974614774727","1.0370588877342215","1.0730213987407917","-0.29873200277875583"
"-0.1229650728057282","0.000741700066011474","-0.02387354472305698","0.017662297220149416","-0.004292302656029861","0.8175468906924275","1.2951336382562975","0.9101183758588954","-0.26823513098381274"
"-0.09227039246564722","-0.09209397993048983","0.08366207035067771","0.014973337588941841","0.116679529619059","0.8119893272405209","1.5328120686118691","0.7322680639483958","-0.22520283546608205"
"0.0046672208128876016","-0.12307164920304788","0.03702041541539521","-0.06906411219569042","-0.01776177848194324","0.660381908532832","1.7468062474079757","0.5720827299807909","-0.18995165498670752"
"0.0614937806733618","-0.12068259916358559","0.01564071845934058","-0.08353423867512107","-0.18214754067652458","0.3825522736095693","1.8415432536458356","0.4597735759644655","-0.20900484530747104"
"0.0921233744265234","-0.1377695005327832","0.027459537034355684","0.0016169198461316347","-0.21713754362159451","0.21419450427085007","1.876373035350931","0.39782082285032677","-0.2706703045622942"
"0.10839559884796542","-0.11453339210549139","0.04792288160399583","-0.009892559065132348","-0.19559787012599741","-0.003982331679545777","1.8496237630014174","0.36077582056231533","-0.36118031313699694"
"0.07647139821948161","-0.05823698600167549","0.07051880556108606","0.011061685966458358","-0.18337051547166347","-0.2581207288659034","1.8538033368060292","0.394931629295813","-0.4020062433319423"
"0.021094844274696295","0.0089998150785058","-0.14713192454273152","0.04545784090528864","0.04620411123852042","-0.39235166097287116","1.8660634199662225","0.4595097226718159","-0.3891602941192813"
"-0.3171464759107322","0.012473493835883953","0.03904436253887099","-0.0061457301740712525","-0.09742721822423109","-0.412616139061701","1.8532460602987475","0.4929267421858946","-0.3038801885319215"
"-0.1614971025174609","0.08149127978461394","-0.030854097046881586","-0.061146459489979314","-0.027257184547918954","-0.7705572017349367","1.7111405509419582","0.6689960443710089","-0.32555159903572356"
"-0.07445823480280227","0.07873763993478156","-0.038361288673243246","-0.14554686587359664","-0.036364637161268414","-0.7065602811118895","1.4804280769274056","0.877229062930116","-0.3357662533078776"
"-0.012529695296089365","0.04543116623245201","0.01539144252280637","0.040945433532760936","-0.029386022278400467","-0.6139504028041353","1.2540902234950129","1.0333774415201813","-0.39934226149776453"
"0.02589642428899942","0.08294132928682671","0.019145244861203885","0.19931004064217597","-0.21051768396728102","-0.40150101215788775","1.0686007380463562","1.111583557461539","-0.5707359884610919"
"0.08185740956899268","0.11532438321303366","-0.11134110449187934","0.08517992662816486","-0.2390745044283326","-0.09041336433290949","0.8786530405394474","1.1097761624068887","-0.8041204092712679"
"0.11608563686164881","0.036535590346384636","-0.060841558508992005","-0.17334144680913643","0.16889409146944143","0.15049366344742418","0.88249824843969","1.129960939294587","-0.7008625121649169"
"0.08942430298996917","-0.11903103848413125","0.05662172373060803","-0.04186836151099599","0.5686321387948422","0.10368635938763233","0.9633590696462395","1.1165703846926172","-0.5049536149484197"
"0.06370056258488833","-0.11744180084918458","0.10630549510760463","0.3373683332004166","0.18524749024670972","-0.13737356205971885","1.0117028066529121","1.1012537010543049","-0.38551570547497677"
"-0.1334020343768222","-0.06613850932784486","0.09095241049952411","-0.005130992096272191","0.15177005104044175","-0.15655565006140879","1.0074396413722086","1.0869132745987964","-0.3991461401357391"
"-0.010055249609953607","0.21951812645584284","0.11762720748606809","-0.100567204588234","-0.0023680918237565206","0.10693110276544857","0.960099002078643","1.1186284403752846","-0.2910342393192606"
"-0.04061513524339683","0.12441316053707495","-0.1624808786464784","-0.04345497285085639","0.07393524421557413","0.5366351135927799","1.0643654365910165","1.0762799869050153","-0.21915085710291626"
