"AccX","AccY","AccZ","GyroX","GyroY","GyroZ","MagX","MagY","MagZ"
"-0.10537436358950236","0.09568015958420295","-0.0537391563073255","-0.09649477378264573","-0.056161990400777205","-0.9143257864034734","1.3920997505232833","0.8388516015142239","-0.24179143400406028"
"-0.025344820620006488","0.06594583504957374","-0.008877955265051635","-0.017716825059698748","-0.1053274918030051","-0.8703506555089109","1.092591491684826","1.0315700464655313","-0.3199457967711654"
"0.0178164444453997","0.08517561043242818","0.007138488339008886","0.21251896514635352","-0.1922927268929508","-0.6564451347005916","0.8035043035325334","1.1508317347431751","-0.49617718399778493"
"0.10215248572810492","0.17274468155280528","-0.08514957651236939","0.1049124424180791","-0.2294103709199747","-0.14387032946616166","0.5599466060251417","1.1569399384680144","-0.7593720518358155"
"0.11678849497483135","0.06208388372491255","-0.029821470963475576","-0.0859671069128803","0.028366868287110963","0.3120755737653035","0.597618497917373","1.1409240436041803","-0.7520011573130291"
"0.09480815762417402","-0.12473359705658686","0.01775223227468918","-0.08534420792204919","0.5407741610738701","0.24221287547271125","0.7481110187087495","1.113720769132001","-0.5976209585054014"
"0.06253940246913747","-0.12115002199739346","0.10254054040750633","0.3742031328746027","0.10595995210941687","-0.023540586639770916","0.8439068503104441","1.0960030205305769","-0.4755027237509452"
"-0.18668445627205682","-0.0844801813264644","0.03985807189259492","0.004482832853714414","0.2197301142161056","-0.09758965914831906","0.9018636070677232","1.0776916020206908","-0.44840528889777487"
"0.007737651666228817","0.18115829256134633","0.03629344665267739","-0.14950376672725332","-0.0532828540435324","0.08563762602875477","0.8763682068595933","1.1182326604363102","-0.3177557748952156"
"-0.03817920233058614","0.11784846651559597","-0.18726803515255616","0.07696767254502823","0.11432931191098387","0.6022095085580713","1.0038173440748788","1.0694461866253893","-0.2810647367496382"
"-0.14803688824034886","0.02808770166336433","-0.05904272387169874","-0.011588923859327745","0.09134169369707164","0.7560739290169712","1.2190096673616404","0.9077568888896811","-0.307998737134454"
"-0.09522624781834638","-0.08457366589322597","0.051504028861247865","0.035202632172161866","0.22368862754518534","0.9599078828709617","1.4876726715220654","0.7188379313525286","-0.24829612584456798"
"-0.03953677759029484","-0.07497176216940452","0.03536821368194561","-0.017235450259983822","0.10194399965101553","0.836039743750737","1.7685400311919555","0.5324915434187103","-0.14938395125176224"
"0.04711503675244685","-0.13807072858123712","0.017803657053642803","-0.03772661273424877","-0.08483129582341693","0.48166619997457677","1.8797166943946204","0.3816334233462705","-0.15640182732290295"
"0.08061344699059292","-0.16580448338716883","0.029052052980184432","-0.022578710536819497","-0.18277219120789687","0.24502077980190598","1.931822047825443","0.2969760943996289","-0.21028290285000295"
"0.10791226354273581","-0.14673363176780904","0.04804060097750412","0.0024314060072492885","-0.20597281285971","-0.03526243444444736","1.893927245330299","0.24838751055819502","-0.3239335977990143"
"0.06701651236817688","-0.07221916103698059","0.10605146909108676","-0.01808266990748209","-0.17126043237302777","-0.30580899167374864","1.873029376307242","0.28883622032138706","-0.3621282330534529"
"0.0019636241254676634","0.025353797444292715","-0.08170060539379334","0.007803548772067856","0.02188342656493624","-0.4581444754624733","1.8668993347271448","0.3908023252658459","-0.31839316932179795"
"-0.3221338800563287","0.007107479703769984","0.015999865811149188","-0.012048155418255782","-0.05128923759666213","-0.5285483687986354","1.8370850415875832","0.45031443542297545","-0.2528886344053284"
"-0.1658201613232001","0.09273539573121357","-0.058722609785842886","-0.10468777287379376","-0.03077461322974996","-0.9278920657467739","1.6623788565548243","0.6578614354211934","-0.2767827536787512"
"-0.08360501846750644","0.0885680614884646","-0.0428057113362227","-0.1406849803964759","-0.031542143595309734","-0.8348696172264327","1.4113257900244958","0.884854423087691","-0.3036350368293898"
"-0.0051544992043384375","0.06560617445700671","-0.006450664393397476","0.023330004111992944","-0.07238615113707195","-0.7371632833514278","1.1482076871115225","1.058153265699984","-0.3875913232230785"
"0.040770057347141536","0.09380631337933777","0.019433967114124207","0.23033946023180008","-0.27921727593296036","-0.4989161200004783","0.909804797296485","1.1460164121523189","-0.5857883029965382"
"0.10269801916225454","0.14726494352323585","-0.0653623955021435","0.026134493695132103","-0.20109766675853988","-5.12656186731269e-05","0.7230335758810807","1.1415309061772747","-0.8062450573598761"
"0.1290105235895424","-0.011709717124443382","-0.019592276981255676","-0.11735755760229061","0.1798888981404162","0.2719591878002307","0.8115569490627514","1.1364913082876662","-0.7157840791256795"
"0.09839700891924402","-0.15107547053517964","0.07451919900820093","0.00895730789202459","0.5443641066564695","0.11367298541584012","0.9549163305609245","1.0985360121400136","-0.570409119524383"
"0.060319141086947164","-0.08168914764992735","-0.005175990756041104","0.3119902537594457","-0.41209312843024376","-0.05742230862757377","0.9734457744280354","1.075778665648981","-0.5545723195408353"
"-0.2565562552770655","-0.02498037073495211","0.028387867883337685","-0.20100124280075604","-0.02223197872139615","-0.08273227772798175","1.0090557432433247","1.0847892555929664","-0.44569227672309075"
"-0.003883577684611107","0.1993254600353443","0.1087941239686131","-0.1316062516738524","-0.012345029257211586","0.12807653960233176","1.0035387058212377","1.1119661447358808","-0.33019313793699034"
"-0.07847319142194083","0.11365204818541005","-0.11253275499212986","0.006703799904639138","0.13562008251285407","0.7753433848283854","1.173535904367468","1.0336281021481986","-0.2824702731774866"
"-0.11520474898072651","-0.004560329073741246","-0.07577126642287606","0.0036552532980445155","0.004700271698676415","0.8026700942032625","1.386526985450468","0.8701314093578403","-0.30116717635723744"
"-0.1015615990303204","-0.08288471138706698","0.08028951356227369","0.006790543643547767","0.10972460837703622","0.8612550643906103","1.6331218399225442","0.6786266895527212","-0.2608969233546972"
"-0.01413760358241106","-0.11226898815504455","0.03454624331955442","-0.06321444562955464","0.07205889932440211","0.787574878189787","1.888911756764765","0.4932301734724417","-0.1919749737049358"
"0.05681832999169828","-0.16391401770376823","0.03468048471039721","-0.08526141145649824","-0.19150054556772383","0.40762198123323545","1.9886642515681587","0.35742488374566467","-0.22513746167874027"
"0.10120873021777407","-0.18358732542003586","0.02106303802330552","0.023083540214538907","-0.20650412480593472","0.13856310365285077","2.026559054063303","0.2971607917044837","-0.3028342079344529"
"0.09644775229474892","-0.0979419589401301","0.044184775182066094","-0.0013650044881824426","-0.21536171720673528","-0.10963185558865125","1.9786332744370911","0.27382296796962174","-0.4077101062775131"
"0.055523337988642806","-0.031116074466736317","0.0634246643680868","-0.03745511734720955","-0.1950569849915524","-0.3869882482092407","1.940459833688307","0.33826913469929976","-0.4376676443268866"
"-0.0842982483873577","0.03782048378065196","-0.1287325929886033","0.012524102607992301","0.11667474302494887","-0.2151042169947047","1.9438034927319958","0.426963419023481","-0.37677196141801284"
"-0.1388323354156571","0.05425403189992705","-0.051163786855310915","-0.1361793122711442","-0.07472440235987177","-0.7004202655951542","1.8972709043739884","0.5132566383845505","-0.32715325682559737"
"-0.15081943611308518","0.08390422032447085","-0.021814488312745406","-0.09997029983658749","-0.038994870624786335","-0.8416406224800657","1.726187016638559","0.7323604126008234","-0.33671417322433356"
"-0.0345686298313608","0.07837928242886222","-0.037380293894007544","-0.08150572526912238","-0.03480181418431009","-0.8149449028420862","1.4589729313970667","0.9636146309436128","-0.3902062747167499"
"0.0007398807530635704","0.056600494525642385","-0.020480335412984847","0.0807464647227904","-0.08321821360830221","-0.6182217179462121","1.1773532484423461","1.1220321478504651","-0.5220978906788031"
"0.046894551125160826","0.10528102459061595","-0.03675245723529669","0.19966625799396504","-0.2681363105680032","-0.4030299488280629","0.8989100415791309","1.1818608819587741","-0.7655008443991078"
"0.10302643683678409","0.1309882417326385","-0.08148375391627807","-0.11936007676910469","-0.0021299587667774197","0.10581473630786034","0.7641605821184575","1.16584498709494","-0.8569914597839373"
"0.10772066249544357","-0.07091349325454403","-0.0029374639324335613","-0.1432651493229479","0.5268451722133839","0.18871708020180386","0.8789316787930881","1.16967085983836","-0.6142259004902151"
"0.09500812557147112","-0.18090743450620428","0.015606848323804864","0.07907609416777961","0.7351577478863586","0.07397887719776809","0.962355971933133","1.1105809149494703","-0.3870846763711796"
"0.09798174494086644","-0.004611849457200954","-0.08409010215079483","0.30018694367043575","-0.412428190017953","0.1554978974377436","0.9091082016623832","1.045778546274715","-0.5544415719661518"
"-0.3064495531196939","-0.04899759465340724","0.1504998262252149","0.13025201187507277","0.34256129897327553","-0.06765647678333371","0.9790185395008507","1.016833840071048","-0.45812963976486554"
"0.011186470517488854","0.2489346034634827","0.09710892720879075","-0.1987965462180617","-0.24650090519020346","0.1446861309843619","0.9704086174633509","1.031728358441121","-0.3786187709104183"
"-0.06590839912463667","0.10415090005020942","-0.21874660867910486","-0.10994438568668075","-0.010082884880762878","0.6443159390779752","1.0942075935559423","0.9873746199467143","-0.30500788636356735"
"-0.1317941260905005","-0.014390646755683445","-0.041709062435645525","-0.0457068441639228","0.08487979164839252","0.8298511905619326","1.3249479313958592","0.8192473018703544","-0.29247246264077986"
"-0.08108243181471433","-0.09044865155548625","0.08654516237554728","0.05339571135258776","0.1360939553297572","0.8466452250978251","1.5684777650778867","0.6244180305778497","-0.25089473389140393"
"0.005410517338061451","-0.10301401604564935","0.014783019234463552","-0.02641526769054745","0.06877050917074096","0.7199376321615608","1.791388367990498","0.45910075006820894","-0.16981816283012097"
"0.05903570291588921","-0.12518024554222545","0.018921991101971507","-0.07768842310738301","-0.1331591432563716","0.4048310650892649","1.8741439293218052","0.3333746561206487","-0.18921946856847952"
"0.10510612659633786","-0.17893387143012673","0.010737561985068846","-0.02551991056307769","-0.14378538218086617","0.14516422705424206","1.9014504781785995","0.27217388489056143","-0.23760751161418597"
"0.09991373821471859","-0.10148710145521044","0.06712559625101393","-0.004809818829902392","-0.2346110054206339","-0.156749800749685","1.8284472557247198","0.24687035412545955","-0.3517991746534506"
"0.047673471965660366","-0.0305011537609269","0.08890987610654705","-0.023482732410684125","-0.1668208663358797","-0.3349801325872498","1.7824719438739933","0.3138495124645743","-0.37698442622687367"
"-0.12462112205870618","0.061666319326710885","-0.07066596306651675","-0.09914233518107783","0.04567040599524062","-0.10162071281365395","1.7777350935621008","0.40512955905672215","-0.29134476480913407"
"-0.17137562887534144","0.03246174067039722","-0.008640864316301615","-0.15712874355473777","-0.16221616280193207","-0.7641502290218216","1.710304636181036","0.49486606388686954","-0.27884202798001745"
"-0.15728958203169702","0.09260140118552201","-0.007190850769982903","-0.05982075329156441","-0.047014809056313646","-0.8980656662603406","1.5266820270317722","0.7052758721103363","-0.2975552746066037"
"-0.053459145147307735","0.07693442651369177","0.00019118657506995607","-0.057593913468083166","0.011880162863875445","-0.8988665378494798","1.2464276715198919","0.9224930952841642","-0.36376257773699744"
"0.006995317960388091","0.09149101227587629","-0.02315277171683959","0.11793844449836496","-0.19306576184173724","-0.7415802115097117","0.9244611694379893","1.0744330138564675","-0.5437529577357698"
"0.07706256929002145","0.12425735292580566","-0.05715714864339937","0.1615702563445258","-0.4065167462919392","-0.4532664394195334","0.6079559771274452","1.1346443352391187","-0.7922060365282274"
"0.1236274006980307","0.153497247974007","-0.05423275157519357","-0.13823959641392405","-0.041866827090865935","0.19453189331567647","0.5238629521786627","1.1461483387986435","-0.8339635431927931"
"0.10485473446845849","-0.05379439164568411","-0.022235799754775055","-0.14071386288445878","0.5569289161955678","0.27431326489557983","0.7127518243217363","1.1505810741151579","-0.632089287881358"
"0.08240814222754118","-0.16547209381646102","0.00967856263149265","0.025785015590539064","0.7906583065933469","0.12354312103108217","0.8722722245310738","1.0948024880490208","-0.40295416324839817"
"0.06869374364648369","-0.01232256039543588","-0.07207859554861618","0.15335800226138918","-0.4430863252933529","0.13854126170041972","0.8699037993751273","1.0659897084916785","-0.46087533883322057"
"-0.30310857003374403","-0.2049329681639271","0.08128083460234346","0.06996752020757378","0.1355243506306514","-0.16341645000836952","0.9468358212053423","1.0581400730353514","-0.3718689273673789"
"-0.00021234756739879447","0.3043086285085845","0.05456266732029645","-0.12726425098042377","-0.18299716113107312","0.1293773492137824","0.9173837577955133","1.0888921742936686","-0.31631755157369634"
"-0.08004258693493743","0.0981138744722291","-0.18673106958918503","-0.08037738273859059","0.18911745158475204","0.7420222729529802","1.0907246153854329","1.0174275099795098","-0.2552420907496327"
"-0.13782137511587403","0.0008755907399622074","-0.013303584133313097","-0.020810139522666856","0.028467386763423745","0.817061513971737","1.2987559355536271","0.8420838043491821","-0.27137307277621847"
"-0.11015957567514237","-0.10181949102591822","0.10749508035568835","0.07813163681073894","0.07744621099535645","0.8956197362155002","1.5495303638303148","0.63754473188717","-0.2545883528762149"
"0.002513393964683042","-0.11474113558718377","0.029581170585321667","-0.0481839988832558","0.02569834207071199","0.6991877773520404","1.7930601975123424","0.467794716061015","-0.1699881346772096"
"0.063789141963536","-0.13173455238961979","0.028624958832087703","-0.07918934973289415","-0.21903303488920703","0.339232401287939","1.873308014560883","0.358335177605306","-0.20932681121012933"
"0.10571703546320681","-0.1589281741431513","0.017347029799560664","-0.020988248198561377","-0.20136810932576235","0.15986871480756185","1.9039582224613667","0.3061318036545719","-0.27694618814710564"
"0.09628261915092434","-0.10894509244796659","0.03532484338644255","-0.024777630621917276","-0.2066788354909546","-0.17944116244196756","1.846001465704088","0.2841396317122232","-0.4071871159787788"
"0.058755522489949315","-0.032640911622358326","0.03884816358302385","0.0195743179246171","-0.14668605821160655","-0.37541201342077146","1.8120075987599147","0.3605911232574605","-0.43864825113701333"
"-0.11416490410094964","0.03129318358587763","-0.12583917470289965","0.019641710396577187","0.22163757196899347","-0.12848388742027167","1.8164658108181664","0.4383618812659461","-0.35297590282560276"
"-0.14128752471513034","0.08770384860462432","-0.003860012075348487","-0.1025119587790823","-0.11338093639330335","-0.6960518751089394","1.7565585862854027","0.5228740909016304","-0.33349451419775056"
"-0.1452543403676126","0.08697778513610949","-0.02036261603947656","-0.11963927415293935","-0.03123819486931631","-0.786234869813241","1.5835242307744881","0.7257508876199494","-0.33272637219648454"
"-0.032354145365169264","0.06312467856819134","-0.017632352674951078","-0.08102242497020859","-0.024282794967882503","-0.760024526895952","1.3124092099820248","0.9208572048697362","-0.3839467345787739"
"0.012308155040581527","0.07477285558668263","-0.018421279002673267","0.1009459140684281","-0.09598166680297102","-0.628681586277093","1.0369474324327654","1.062559615687233","-0.5060159389927238"
"0.058089251511425605","0.10843768679493153","-0.010562994507953555","0.21061272093948247","-0.33565122049142476","-0.39053149827028166","0.7794856860686994","1.1269134337644837","-0.7079228811978298"
"0.10251749053729327","0.12913932474557638","-0.08429043161097559","-0.11268822204505581","-0.02071462838848409","0.1381432527894535","0.6778663149659128","1.1170585132840192","-0.7878913665636695"
"0.10847551285261495","-0.044346218098315036","-0.022054057564095595","-0.16485962283815944","0.5487677732377917","0.22145088624517356","0.8217551091460034","1.1211218539908239","-0.5608482031256468"
"0.09406335910084049","-0.1886874278955836","0.02741121013365229","-0.0033265105220608203","0.750833843597043","0.08076201686941833","0.9330432276501244","1.0785887032156998","-0.2971303449888821"
"0.08839716732538953","-0.11459571514999911","-0.17235484925600664","0.30519324158747096","-0.1462648379299149","0.11356620253728819","0.8983806288972137","1.0459764362442023","-0.406533378105361"
"-0.21698438068555578","0.09531972464346668","0.030158202040728943","-0.07221037788662717","0.008541752801763404","-0.1435912378517646","0.909191793138475","1.0671638556439695","-0.29190044200153925"
"-0.007638573083805457","0.22760973506776075","-0.16644203230242383","-0.14877207703168663","-0.49377635691965804","0.24475382260552617","0.9374178482322846","1.0726388114664498","-0.23381583194836236"
"-0.13620383863622107","0.06771684823100123","-0.03649223546227838","-0.056320195748037476","0.08883591168041717","0.7638399565480197","1.1584058471947742","0.9734959367533423","-0.12676298648682072"
"-0.09979001145736717","-0.026417955628263323","-0.04539760280557178","0.031531667949535845","0.050287076014463604","0.8448007935592011","1.3433380561361494","0.7996693875557501","-0.18000503324265477"
"-0.061026905105684044","-0.0773171860777114","0.06296617838705452","0.09425384160279121","0.05453996488131648","0.8313315895600387","1.5695923180924503","0.6015815280990222","-0.183984662547086"
"0.020107954458241373","-0.1159979836514226","0.028360606554735768","-0.0627032255922574","-0.025149647161227532","0.593812491290125","1.7743914345184115","0.440353973625451","-0.10291789755390428"
"0.08339021794733047","-0.13957686882350687","0.01803021521634208","-0.06067663768545756","-0.18973668563813995","0.26887704562384585","1.835413212065739","0.34989187224051704","-0.1391562222221398"
"0.1043088159065756","-0.1400131301350608","0.0281976581587743","0.008089196578218693","-0.1770330648698478","0.1194635296936782","1.863555675683456","0.30577560170949486","-0.19745656577354456"
"0.08254775103084455","-0.09350040330154716","0.0731726545954395","0.011596011994141925","-0.16552609262908882","-0.19021652564129746","1.822595852398264","0.3043639865938192","-0.30423974436230133"
"0.02704121647608713","-0.0028036501925505475","-0.02632499904506284","0.07813933880753438","-0.08622180141241048","-0.35242942569607455","1.7977970478242356","0.37010303445748055","-0.3365670822028145"
"-0.24210433708683285","-0.0054588196320607555","0.00494704926480466","-0.09441619739747667","0.05335767613611371","-0.03740779954989953","1.8331841060366123","0.4168050672564693","-0.256533223049633"
"-0.1305135763774419","0.06131419412524231","-0.030457568630853676","-0.12816923560388782","-0.0732644911562813","-0.755874555934048","1.7504285447053058","0.5579929641532994","-0.2641492692749511"
"-0.10645272124260435","0.05183589777302784","-0.04830547785644309","-0.12411605979028816","-0.07601438947255253","-0.7588110850942257","1.5801805717307986","0.753943611939565","-0.2915899165116657"
"-0.027665215212841963","0.061873024090994794","-0.024875192023960806","-0.06689022360017781","-0.05827048510629065","-0.7274557489376171","1.3380439293169748","0.9399865685868363","-0.3433659560863602"
"0.008529089158059012","0.06452694706961484","-0.04947028007852507","0.11421260354857143","-0.018070992461457807","-0.5491768794279833","1.105966127859583","1.0727707381127747","-0.47610743128385674"
"0.06977402693825191","0.11525167299444132","-0.033400552968560794","0.2458397287826207","-0.262464196547496","-0.3258550502382678","0.9008883731799806","1.119789394862943","-0.6983292779054228"
"0.10941715016041292","0.11623845453248008","-0.09429244785484617","-0.15388427740465915","-0.10120623427418085","0.0598592683928804","0.788792203740301","1.1173751372351988","-0.7834296055775927"
"0.12044913407937928","-0.06456173630179975","0.05510789389233482","0.014353326846909016","0.494415997117235","0.08838243138425975","0.8680647869010982","1.1308580404895963","-0.6089959975028721"
"0.09120282286212089","-0.1955014140950934","-0.06082710174382432","0.16526721480633644","0.6306424654916112","-0.04750848910746958","0.9578141683987882","1.0830874018553762","-0.4884630770914543"
"-0.04707565296867735","-0.1514390216281413","-0.09646096262999877","0.05178984502073877","0.380854051854337","-0.11589806905276608","0.9354952442821631","1.0532587871213328","-0.5371992355547557"
"-0.05763778105307785","0.2282641270350917","0.1301447008691157","-0.07859533323004593","-0.021795680668257558","0.12783142435838304","0.927665509354858","1.1123883100041203","-0.3444119366838288"
"-0.013251809795934441","0.16368706575101788","-0.2481351470128398","0.0149752630881407","-0.07139771945332954","0.43504576595225075","1.0216780561332517","1.073733802630946","-0.31205191194964477"
"-0.18276578158623097","0.03952086417830403","-0.018582368671684602","0.014095309954261817","0.1324154577561202","0.856449834855774","1.2926258939735304","0.9324139790877912","-0.22672277602177862"
"-0.08585801570702306","-0.08742598389686222","0.05799924692587164","0.05447880465194634","0.18524749024670972","0.8560129958071525","1.4968677338922107","0.7454871139101437","-0.22726210976734834"
"-0.02124321026088651","-0.08841172671749252","0.03626659837450883","0.021770349760916588","0.08381238116183291","0.7547148741990376","1.6952581704844345","0.5612779376467876","-0.22298012669646133"
"0.06306221336702529","-0.13061273758848102","0.009781432841921555","-0.09834325301355105","-0.13362583618210952","0.434778808755871","1.8641129521907374","0.41927209554274364","-0.1868333253305043"
"0.09671910366740402","-0.14926810224445597","0.022318504815510544","-0.03836491571867076","-0.21530906467152383","0.18631689231798917","1.8942058835839397","0.3603932332879733","-0.24193852502557928"
"0.10229873798480688","-0.1334795976358357","0.02615409113971381","-0.01445695491602927","-0.18195607691211926","0.012246238976742289","1.9195619646652495","0.33416621599859764","-0.3028832382749593"
"0.06895563050509416","-0.07149413628587421","0.08529568481462602","0.045536786372441886","-0.14648741455603606","-0.2656683368726413","1.8451655509431657","0.3747996230666444","-0.35812408857876843"
"0.023739708982795486","0.0182323508918782","-0.06583120774400983","0.02896497751745587","0.00828830264363188","-0.3892452499604517","1.8122862370135555","0.44865215967928257","-0.36217726339395917"
"-0.3733077276120157","0.023933870746925347","0.0369150875548878","-0.055364185395803636","-0.026807244701566483","-0.3960647928861537","1.8476732952259323","0.4844834368211056","-0.29229268472558995"
"-0.15261990826603228","0.08283226395893821","-0.024662471050779167","-0.12374058744651051","-0.054747551841233","-0.8363257473885043","1.7002736590499683","0.6715818066389755","-0.30306301619014914"
"-0.07956117726837406","0.08917155630278094","-0.044352585209164894","-0.16428197307850154","-0.06171922616264126","-0.7662616177568254","1.4993754781749773","0.8715826024674133","-0.334426090667371"
"0.0017508410528466504","0.04956110664849636","0.008525284516501485","0.0007594950528794094","-0.07404231269917785","-0.6782628182956313","1.2317155717276593","1.0583247703402061","-0.38017139835978575"
"0.04407830457576506","0.09203114532827646","0.004423920890951177","0.23039722520776587","-0.25210122029905874","-0.4518103092574618","0.9795758160081321","1.1467420087071054","-0.5933880057750207"
"0.09935308851703889","0.13560014702620915","-0.0871466753576766","0.058546421709537465","-0.20725562008122558","-0.04590674592919081","0.8097736642394506","1.1575072230472112","-0.8229970903662087"
"0.11794387817458346","0.01863433452895294","-0.03494949209366981","-0.15774490329837285","0.16725468298672097","0.23401971642745506","0.8523495893957592","1.1700798324419672","-0.7227300440307443"
"0.0884666828812413","-0.13503767374852851","0.06838333482060244","-0.04926805493221382","0.6256644076170732","0.11731573770462259","1.0113127130978152","1.162718325577042","-0.49037526037120155"
