"AccX","AccY","AccZ","GyroX","GyroY","GyroZ","MagX","MagY","MagZ"
"-0.010941043396430226","0.11570870865416455","0.02332903270073166","0.03692402845594244","0.021258776033563926","-0.5868663817896034","1.3341429937660045","-0.19781611190809845","0.44226353329355284"
"0.047200727673095126","0.21210168415942518","-0.05433188367920055","0.07835884571620437","-0.10789789284014635","-0.2760553986954188","1.3491894594626055","-0.08484864392661223","0.42773420905684095"
"0.0653335041738713","0.17987028297485363","0.010052042833338933","-0.05190502608505218","-0.2280246519250913","-0.009369770590850379","1.338879844077897","-0.06519157362421299","0.3869736526492374"
"0.05469338772348754","0.059476703029673283","0.07586574342096236","-0.004351742570493669","-0.05649465869143142","0.13287448848635772","1.359220436593673","-0.09591201248741223","0.3487299870542926"
"0.001052797036329755","-0.05455265535386127","-0.1567766521617436","0.10057044172465045","0.1552546915526183","0.28280735750766417","1.3686941372174593","-0.16775134847713358","0.34640921760365917"
"-0.26961208543426424","-0.05690742771884431","0.005735975592526849","0.03970830029749357","0.03241393360722815","0.3162740823992767","1.3670223076956143","-0.24309201766031585","0.37752714037834934"
"-0.11578244058060258","-0.19369404580436977","0.054810497580313894","0.08092457339868492","0.05098831205159804","0.9306882042853915","1.258910665282998","-0.40847526149311914","0.3922362425302512"
"-0.034404950544729244","-0.13074777085158104","0.035246363804103696","0.13349647802515135","0.24489084615601808","0.8612065267185413","1.0335201819129842","-0.5387132467449884","0.49255231920622183"
"0.020117582651572635","-0.0913751874838342","0.018142358408999974","-0.03906676017665512","0.1549938221736161","0.777576117743562","0.7369376247377547","-0.6682388281067037","0.6010237758530801"
"0.06371789333288462","-0.09569832933785247","0.013987484099807565","-0.19567723751590899","-0.14300756063796957","0.6318902950282975","0.49937064968363964","-0.7937010687616144","0.586445421275862"
"0.10514454308772962","-0.1286807232087419","0.00034855879018103064","0.019972896258781056","-0.2022967085831281","0.37306315872006934","0.31432698544080806","-0.92291002617215","0.5507676768340822"
"0.12455459571583176","-0.018337772907838515","-0.048175366969933936","0.2044511235031314","0.01728829621920886","0.06633419384689215","0.3287047193286717","-0.8995985877665531","0.5964476107391552"
"0.06598340722373186","0.17539341094438302","-0.007575400723443297","-0.17047245300283548","0.5463744761827253","0.08771018462610335","0.31505144490027415","-0.9006012302786217","0.6042434348796631"
"0.0741211562273192","0.09953483988700494","-0.0033416337814786714","-0.09100902656509444","-0.49229251274551683","0.2200602819403952","0.22335159562709875","-0.9861028897617422","0.5417787810745865"
"-0.28969649672328834","-0.022734663697857566","-0.05935664220105417","-0.031292557161259074","0.5639412765669123","-0.057580056061798196","0.30106380456750775","-0.9872506515847682","0.47429668909102807"
"0.06694333809885925","-0.24520404208999338","0.13624545576987837","0.07013696413707345","-0.08491027462623411","-0.09424055977555437","0.33923724531629224","-0.9717624633062335","0.49894260691888137"
"-0.01101806894308036","-0.1555211810433964","-0.0673574290952839","-0.0029396777330099066","-0.08114801165566983","-0.5855315958077044","0.5125781029062118","-0.9023822400040069","0.5052511773973637"
"-0.09763329615116327","-0.13287714153892782","-0.11995114077531861","0.015472041881446505","0.008264369673081216","-0.6464221054183321","0.7212502910577797","-0.7956667757918543","0.4885645181783729"
"-0.09271328935888552","-0.03631589381349639","-0.05424514308819444","-0.006640776018098083","-0.06167854011270513","-0.7868901283861732","0.9683188305610455","-0.6385685253482501","0.4828933421264728"
"-0.06816139636415326","0.052807098549939674","0.033395897862640134","0.04039377801228763","-0.02997932061835141","-0.7099821869927578","1.149015738047081","-0.45554668890181743","0.47637230683912973"
"-0.018248842134862303","0.09140791488319931","0.005711399091741786","0.06589220115318724","-0.0010927038231116671","-0.5837114331051149","1.273399854472318","-0.2776304136681556","0.4764867109669779"
"0.017704757402756982","0.21036702608729385","-0.07031900070249233","0.0631271843036247","-0.09742482492717602","-0.3320678722631066","1.2970841060317826","-0.14827765621312586","0.4574302519568473"
"0.08277305075479623","0.18557284154730924","0.000564171116396206","0.02532578403161103","-0.23590577912742475","-0.09334989349308723","1.2831521933497447","-0.09959936225219115","0.41261652073405297"
"0.05700704258099113","0.07286161555511281","0.013333625263794882","-0.03967906892189251","-0.07626807896038956","0.08542891403885783","1.281201725574259","-0.11516802578498399","0.37778863552771647"
"0.03003365896344509","-0.01070943226009461","-0.16367872490322938","0.06394167046474235","0.03386666491965342","0.22065972219044805","1.2786939812914924","-0.17635560435043882","0.3407216981049238"
"-0.21787017447203239","-0.022993304332564572","-0.012562158605427583","0.017540028021021826","0.056215272819862924","0.17264868386334367","1.267548451145862","-0.25307886478710523","0.36922466938594245"
"-0.09876942296425283","-0.16975160953932386","-0.0018426737588065154","-0.036975668046693486","-0.003968250234773878","0.7247671305324316","1.1665142203757206","-0.3952957895252689","0.36342274575935896"
"-0.05167792938102325","-0.14962126616333304","0.005721725352575845","0.15009428111932197","0.14172299000327324","0.7340378258976208","0.9783219438667489","-0.5182382312353754","0.4230599832619033"
"0.011730463440705469","-0.10180910385183359","-0.002960801281918536","0.04721004517625097","0.1932913616487877","0.6672985268026722","0.7176279937604498","-0.6106792323151816","0.5388533040910417"
"0.0482001341408807","-0.09656773580873505","0.02571708378121639","-0.17061686544274995","-0.06412448970298293","0.5999282379708257","0.4859402858581544","-0.710745593552563","0.5705759343986432"
"0.08323231557669769","-0.10413583084678817","0.06598351180276689","0.013332812271513375","-0.22576059291099854","0.3987638560806332","0.31427125779007986","-0.8286088593791636","0.5274946085404063"
"0.11469147446728127","0.026281372090049156","-0.058148469683469144","0.03459513717492163","0.1296703460339591","0.17053001447752947","0.29891829001447373","-0.831023117006908","0.5597402291467424"
"0.06283113672707487","0.11112796488284775","-0.016870274625397447","-0.06192628666551749","0.5784925226617157","0.09749780619882802","0.24341354988923372","-0.8512606645531363","0.5937345985644711"
"0.09072102806782428","0.05460615710139562","-0.017095387111579957","-0.15410570981252802","-0.4487584393138601","0.12139775592562999","0.19877570165598324","-0.9266963209216725","0.5205159567416707"
"-0.12916562931106448","-0.014225490687738008","-0.14945946373472865","-0.02429625582220235","0.47211046856401667","-0.18985977375158994","0.3268099792039144","-0.9354826355669061","0.4204777186619027"
"0.019577441005688527","-0.2139282609212068","0.1710160412503254","0.1061255069133607","-0.06432791995266356","-0.3114393616337588","0.391593373175392","-0.911128976655343","0.45530560386823926"
"0.008939250193971012","-0.1529036131740725","-0.08571752085824269","0.013004514658107796","-0.06747271228302075","-0.4655222016169694","0.5689466216177382","-0.8431867537980569","0.46321583213659534"
"-0.09411900558525059","-0.10785443916908163","-0.08452380510582536","-0.017890119987596122","-0.01606876014518931","-0.6237550125620841","0.7909098544679707","-0.7386612719148964","0.43208156591506974"
"-0.1021296624368652","-0.037807492012047625","0.006404704244140578","0.007901460406329873","-0.09632630157890057","-0.7588353539302601","1.0351362837841003","-0.5813123608432751","0.41341734962898985"
"-0.0507054818545652","0.06680589306378017","0.006225233830844615","0.047309208384992245","-0.03168813471566879","-0.6977506936313562","1.198613347195137","-0.39653590000072225","0.4032026953568358"
"-0.01081587688312375","0.11282107425864059","-0.012764553317775162","0.03776643435544356","-0.05711930922280374","-0.5656068814233579","1.289839511437123","-0.21368556819451187","0.39272654593531453"
"0.03500084390304601","0.20351149119144557","-0.06847473051752921","0.0641948736093924","-0.14142559128457075","-0.2793316915600799","1.3090655509383355","-0.10181836844337475","0.3632593112910045"
"0.0755567198530112","0.1614642104969095","0.003714300246434569","-0.008143146768008364","-0.25358506447319984","-0.038337295970021903","1.3068364449092096","-0.07316258159515904","0.3154056989568172"
"0.0498946961671838","0.05708661427280254","0.01709011243000925","-0.06613061416622766","-0.06598168821771441","0.1008469055715927","1.3076723596701318","-0.10340016893280941","0.2819996936251645"
"0.001964586944800805","-0.020807842905160818","-0.16068410926135196","0.11677351748305485","0.1248430658738903","0.23799252488630707","1.3099014656992576","-0.16920122232024343","0.27256952480111185"
"-0.21272871923313552","-0.06221631239349287","-0.021552201287560278","-0.03750614307597933","0.018477764855576836","0.322923743472737","1.29987048856819","-0.26306571191389466","0.3056813480897265"
"-0.11427081422759358","-0.17682527509094914","-0.003425276494234558","0.016226837567399507","0.04813550196195896","0.8150714694169059","1.1682417775482936","-0.4210214855586102","0.3212076225834007"
"-0.022196401400682","-0.1252114070644793","-0.01878269813186537","0.11068894001465818","0.23251750038132507","0.7822842719342602","0.9572011642407788","-0.5390562560254331","0.40856334591886223"
"0.020789630546095107","-0.08757555920368072","-0.00895436959522368","-0.037517696071172495","0.17851753892786318","0.7023669948725634","0.6916867723464949","-0.6526582911757417","0.5174107018429358"
"0.06737660679876628","-0.1047590612918653","0.03214022454521843","-0.15534765679579252","-0.10568169976715491","0.6227166750072465","0.48103625259407734","-0.7636877567227162","0.5252555563239502"
"0.10630628089508037","-0.07633767556153186","0.04460402137192893","0.15612109361175283","-0.0850036132113817","0.2645571928097001","0.33397098232248196","-0.8516960224860083","0.5450801573353468"
"0.10869984975723349","0.03739668707799952","-0.09577529891061719","-0.01871615914390693","0.4285763951323599","0.08958373876796882","0.3292619958359531","-0.867514027380355","0.5970196313783958"
"0.06732461455477744","0.14037824710513372","0.012392696376595328","-0.06848068593843591","0.46598362810304683","0.09000116274776268","0.2937356184967559","-0.8741103596965965","0.6641748544252454"
"0.05162488250881257","0.09885551870187087","-0.05978414939958426","-0.2122269031301081","-0.6113590412350675","-0.17570376169265045","0.33079450623097745","-0.9497702913638848","0.5424978927353462"
"-0.16541577720328676","-0.15171947532842597","0.03181597995502894","-0.0626810823514705","0.09572621390195317","-0.3682284379545515","0.4434758160033022","-0.9393744716334885","0.5017373363277426"
"0.0005733130084326366","-0.1928111360071772","-0.018896287001040027","0.12728674310882881","-0.008076823289206269","-0.43224962741363315","0.545178778582181","-0.8872766389998141","0.543511186439144"
"-0.04935753478818776","-0.13335495154682028","-0.1659050667390527","0.04726781015221676","-0.0056595932635892625","-0.555341163780753","0.7529314604967348","-0.7920387930179215","0.5414355686910423"
"-0.09119203481254527","-0.07056760035752624","-0.06371432427302752","-0.007030497055947286","-0.0808512428208416","-0.7319454836040046","0.9851207172555831","-0.655864108681435","0.5173616715024295"
"-0.07994630500162478","0.017028477415470904","0.01917395186632257","0.02797719642844084","-0.08458717952380015","-0.7015366320527424","1.182285145531788","-0.4918133239765124","0.4948077148695133"
"-0.03139132603204251","0.06971534052488185","-0.004415358383004239","0.0377288871210658","-0.011416669329551349","-0.6258664012970879","1.2834308316033856","-0.3259155662230423","0.48701189072900547"
"0.004117450973672223","0.14624700046294326","-0.018235406307660188","0.08671551223925547","-0.09463424056096867","-0.3978364179166742","1.3352575467805674","-0.17416430275498343","0.4740351939416608"
"0.06544326557784776","0.18971732400707209","-0.044199756548820815","0.016931570274182156","-0.20265809643844315","-0.16313250462676557","1.3528117567599356","-0.10296613026640074","0.4306760294872214"
"0.06181151105329365","0.1214839774452125","0.017464542647852268","-0.038945453727126954","-0.09110173410769076","0.004178307125424202","1.3586631600863917","-0.08687635648062482","0.39210549495556757"
"0.05951903822111883","0.011801028185645747","-0.06421411529739603","0.052158578117320414","-0.07218750748150143","0.1553741263739675","1.3567126923109065","-0.12488046548741777","0.35776791315429446"
"-0.16095792369090994","0.002928553374742567","-0.07245653669514276","0.10144654386013162","0.10913346400443484","0.10669569505591367","1.3564340540572657","-0.17561021879870356","0.3837049632821481"
"-0.12146307464605044","-0.15157405489124132","-0.01943944832091159","-0.09811219310968787","-0.05524775092574186","0.5017850650471994","1.2979200207927049","-0.29923999833616227","0.37257507598720896"
"-0.07326433882972508","-0.1521661238140646","-0.011009088975984953","0.06324463975475514","0.05446098607849929","0.836185356766944","1.1292324220385865","-0.4764570623443026","0.3980871964973411"
"0.006557235163815412","-0.10724159589808915","-0.023006138812995933","0.09741262303852054","0.1942726134413649","0.7266115620710557","0.9169100727643243","-0.5751909644538031","0.49846864696065335"
"0.03862682151160138","-0.08781134805540157","-0.00880505186356317","-0.11124409764591105","0.07147972143707607","0.637763353348653","0.6899870789992859","-0.681365529416024","0.5733379769138338"
"0.08143088060441753","-0.09550824405210395","0.03396590746068025","-0.08811981501720546","-0.14444832546511951","0.5419742575203759","0.532667920993711","-0.7961680970478886","0.5439688029505364"
"0.12557903548627863","-0.04550334929134155","-0.019559232946586683","0.11911299900966939","0.012162571916373275","0.21906768654658307","0.44609501558752523","-0.8393476883900045","0.612840087915108"
"0.05673841598704877","0.09548280327659521","-0.0012926971067844756","-0.03277037779638389","0.6083848028794943","0.09551261541120372","0.38356859147053807","-0.8846117207440527","0.6559541006670159"
"0.09953409855166673","0.11106564183834004","-0.06239462813843464","-0.052815787206112824","0.13252076282654315","0.2399049091658278","0.3317140124679918","-0.9096118202226073","0.6844570719480345"
"0.007028053817714393","0.188875962906218","-0.13039305573072016","-0.15279637035730342","0.021766155009237988","-0.2969265976851118","0.4681074376251456","-0.9483982542421067","0.5469269668277522"
"-0.10438265967638183","-0.16570061164632266","0.28581514819473797","0.017850033392038236","-0.14885438534349668","-0.3174337641342869","0.5297979469812109","-0.9404430774687195","0.5410923563074979"
"0.05808347459542685","-0.19081679858293044","-0.03439600451296418","0.16907007572408433","-0.1430291003114652","-0.3051780019368509","0.6303027650694346","-0.8709045421909032","0.5791235570935819"
"-0.1007335744038314","-0.10090541970647178","-0.1777967887155563","0.0018250663095283686","0.02626794676981778","-0.5902640188344371","0.8418449272335026","-0.7699674650877779","0.5788620619442149"
"-0.08192008463453461","-0.032955642997122274","-0.03705191879948443","0.010472483211607288","-0.06354052522154674","-0.7903120342670414","1.088941330562132","-0.6130539119490286","0.5572887121214253"
"-0.05751261453977137","0.07050788190753825","0.04745200410996269","0.005725068661858752","-0.014590659883980334","-0.6853735872537476","1.2586320270293572","-0.4466416402748916","0.5404222749872445"
"-0.015485550648788506","0.11464921689753345","0.00020171936112069872","0.06346414666342515","-0.0366709791843169","-0.5093517194953248","1.3204897193376068","-0.28806581139244947","0.5412231038821813"
"0.03351136239469893","0.20098740788888328","-0.06047600887546629","0.08170343782462368","-0.13724928792347998","-0.2853018252245735","1.3664650311883333","-0.16639514255291435","0.5079641895720478"
"0.07042585562677872","0.17837452990666855","-0.010024583268065662","-0.02649132490890241","-0.2648574936025623","-0.058046017713661115","1.385412432435905","-0.1364200892414504","0.45702166578596115"
"0.05457014684884732","0.07669344407492862","0.0386333773576754","-0.03425878867710244","-0.0922217971294618","0.13524555376693098","1.387641538465031","-0.1477314798973411","0.4154275935897497"
"0.04024435799125433","-0.01404267642384872","-0.11380081982255244","0.08711023957502172","0.048257560111767336","0.2674451842978087","1.386526985450468","-0.21345865436283318","0.3932331927872134"
"-0.22960694214284755","-0.012535497464170561","-0.04532118847539974","0.07855235838568977","0.06492448080324935","0.04770300842318593","1.3608922661155174","-0.248698900129121","0.4401388852049448"
"-0.11745774622024313","-0.1606005091707749","-0.01723375900675636","-0.022894492405432485","0.007815865804961783","0.7602481688149098","1.2569601975075129","-0.4166019429067285","0.43046356467836044"
"-0.05782071672637193","-0.1582114591313126","0.006715111644812423","0.12111551817648347","0.17037793564358256","0.8234927555208866","1.0385078066531537","-0.5861408760987638","0.49820715181128633"
"0.02553536703907689","-0.10051070709125627","-0.0003542465221850963","0.055436740503379045","0.11074893951660462","0.6977801848620377","0.8071544646552276","-0.6674208828994898","0.5984415112530795"
"0.06481454455331599","-0.10567313261131171","0.05310459929052717","-0.1535858250288359","-0.14777500837166174","0.6297060997851901","0.6218321621587553","-0.7758777788431301","0.6063353960746004"
"0.09713205687938209","-0.09564016116297863","0.05447592672929035","0.14901600156796055","-0.08321342701419208","0.21865268945039265","0.5399682432390989","-0.8291893366229928","0.600141229723966"
"0.10878072658121614","0.02651300607213615","-0.06925126533225053","-0.027795850616129856","0.35524577336512714","-0.016760844605165512","0.5102375415756295","-0.8344795951406184","0.6569347074771427"
"0.06764427057337552","0.13051043172474605","-0.002138211343877313","-0.01395247412592803","0.615301431368636","-0.011992746389462034","0.43327765592005024","-0.8437144603833563","0.7635920415252665"
"0.08066447641524864","0.051991705384297114","-0.01690331866006644","-0.15433676971639118","-0.32777727318025646","0.03038234014534416","0.4430578586228411","-0.9056540208328625","0.7040692081505704"
"-0.05664607713995729","0.06033572232647124","-0.190192432220762","-0.10917418600713687","0.36994061728323446","-0.23572302008963866","0.6008507016596056","-0.9131738396733777","0.5734850679353529"
"-0.030004866192339982","-0.2147592348479763","0.27858676561089596","0.003386646159803587","-0.08024813196296489","-0.38558065571923816","0.677141855506447","-0.8986091379191169","0.5480383212125627"
"0.033210962762763384","-0.1774796670582801","-0.0968595562981935","0.12248262260767386","-0.10937455712312227","-0.3926914246773545","0.8017210187092326","-0.8231075182274183","0.5585635009745901"
"-0.11199856060141446","-0.07901548904054655","-0.12688419229930653","-0.003322755798623044","-0.028551958254709846","-0.628220478392437","1.0089164241165043","-0.7167482559603426","0.5540853965416778"
"-0.09720965564458749","-0.01749641180698441","-0.01016274863802539","0.04422744691721729","-0.08535064128436633","-0.7852155786997909","1.2386258004179507","-0.5340694287943545","0.5431352871619288"
"-0.05415237506715899","0.09361103450654695","-0.003433744028118488","0.009919864941534556","-0.014858948483853272","-0.6638713985271569","1.366186392934692","-0.35656212616429966","0.5276416995619254"
"-0.008620648803594751","0.10317866055588913","-0.015127201796608106","0.06583443617722144","-0.053400125599230644","-0.48212208546458574","1.4096539605026512","-0.20759847273308435","0.5133575270277451"
"0.046673102678541675","0.1711346695696894","-0.05984404171242181","0.07035550829614402","-0.10768010280813532","-0.2882383543847512","1.4263722557210972","-0.09380250541267825","0.471371212107483"
"0.06801880729396183","0.16864174778938093","-0.018165187733988578","-0.018847093089429393","-0.22989381692509814","-0.05399069521229169","1.4330595738084755","-0.06155171745211101","0.42631232918215706"
"0.06008613880833049","0.09410858014520017","0.02938104765035758","-0.055792608967549916","-0.06694858022796121","0.12007510436174829","1.457579740128863","-0.07301614301773848","0.3906999585277191"
"0.023968859984079657","-0.031342514861781","-0.14468047022072567","0.09776884039030959","0.08587779652035518","0.23594180824138952","1.4567438253679401","-0.13519712923001925","0.385715207242908"
"-0.2564792297304153","-0.05912301195109345","-0.025614552299679506","0.10659725421708131","0.055906537499759365","0.08985554973155552","1.433338212062116","-0.14710218979437165","0.4465618598112753"
"-0.12513141630526342","-0.16114064222317503","0.003045984645254202","-0.005554601920021325","0.12000860582265628","0.880548789038059","1.3341429937660045","-0.33154883402111246","0.45510948250621375"
"-0.026442434659770978","-0.18294332062678953","0.046549488913065845","0.06918095378483961","0.19779076011231245","0.8548238228414606","1.1057432172566697","-0.5305469873374816","0.5108569796619219"
"0.022578548867044624","-0.09432722235868284","0.019649372915122698","0.01971199111733557","0.1290337290173115","0.7084342038811952","0.8583960394997641","-0.6253626680511348","0.6126276231062471"
"0.05559843789662669","-0.10561080956680399","0.04325541170700069","-0.19409832817284398","-0.13108654800668415","0.666230698017153","0.6430086694354534","-0.7448750169567958","0.6044558996885239"
"0.10468527826582817","-0.12106692460471648","0.008679889293709032","0.07820095478189788","-0.2477214866882873","0.451597112127798","0.528349028062279","-0.8284373547389413","0.5499505044923098"
"0.11997061287081529","0.004112379605166549","-0.0637618250728642","-0.03436469113303973","0.09819370316572658","0.13249346776061563","0.4700579054006311","-0.842065377304296","0.5746127657669986"
"0.04206408653086389","0.1212554596153509","-0.022126341389934016","-0.056728401578195725","0.5563784578729026","0.056289322612201514","0.40237667359128937","-0.8850470786769246","0.6051096375619418"
"0.0888389088354281","0.05099453667217373","-0.04475117887735962","-0.07815728216230536","-0.4212115902100465","0.08624192004601448","0.3888627182897126","-0.9326857906648196","0.5659670823910474"
"-0.03614765353768866","0.005687553006402622","-0.24218722077242125","0.010194729952171777","0.42280854922965","-0.19452181715382252","0.5032715852346102","-0.9356277548778633","0.4610258102606455"
"-0.032460055491813196","-0.19524173474297793","0.2181574872099764","0.10704974652881334","-0.05780857877466286","-0.37121350478679827","0.5838259043621551","-0.8994798537848606","0.4846420909378656"
"0.029048694785656415","-0.14521710435145474","-0.14514515195825836","0.024272535969834773","-0.09724054105393591","-0.41734856208843374","0.71325337317829","-0.8373555960304996","0.481585866379637"
"-0.09861537187095257","-0.1076570828614739","-0.11462485543711043","-0.029724238063787847","0.031157452653318325","-0.6915378716065175","0.9392289968809497","-0.7344264265678695","0.4688216344011534"
"-0.09655493849806128","-0.027532499407542897","0.021808594055524655","0.030488047383753887","-0.07751738002313419","-0.8014756988429239","1.1946845478188022","-0.5634494929308935","0.4575446560846954"
"-0.05055143076126494","0.06955330060916179","0.03380894829600253","0.02963408848905961","0.0054785719009839895","-0.6646965389523308","1.3458458004189167","-0.38075747310027297","0.43451673949355124"
"-0.012375644202789101","0.1346549141845089","-0.025430744856833234","0.07626005158944729","-0.05150942092572823","-0.527140776308633","1.4021307276543509","-0.22228718553489063","0.4231417004960805"
"0.039468325608754164","0.2302584644593385","-0.07391873522924566","0.06836454212452309","-0.1149126465085458","-0.2312575542592857","1.4216354054092042","-0.09927878050162181","0.37925954574290666"
"0.07299850888489341","0.15675882063657728","0.011981938373138087","-0.006078722801950934","-0.26746618739258465","-0.020891643186602322","1.4294372765111458","-0.07878793379444968","0.32418212990745193"
"0.04706208168912488","0.05042947440197049","0.02782942369743172","0.009597921475485213","-0.12177183586836593","0.14755470740364296","1.4386323388812907","-0.10574978250385458","0.28196700673149366"
"-0.010767735916467404","-0.03703364754274354","-0.10184920553321132","0.12829763018823015","0.19112782111100776","0.23264852719150428","1.4233072349310485","-0.15995052587994654","0.29674148267073724"
"-0.24399146297976132","-0.07189092633590664","-0.04162851760113985","-0.03391701256930484","0.052589427781437416","0.4122330600797956","1.3893133679868752","-0.2127977018647458","0.3432385889175825"
