"AccX","AccY","AccZ","GyroX","GyroY","GyroZ","MagX","MagY","MagZ"
"-0.10042547221723085","-0.16320768986601417","0.10344925136090362","0.06841749335249173","-0.10063902287213014","-0.17347345566107744","0.18567970373486753","-0.993833791236377","0.4622025384327975"
"0.046445877315923756","-0.22021250124240105","-0.011895082155547304","0.12891378993186525","-0.0653067784481857","-0.382255825182508","0.31925888253024975","-0.9311554415674517","0.4740842242821673"
"-0.09882719212424043","-0.13862124880772192","-0.1748393476126815","0.0059108793345487125","0.0744282634089178","-0.6035876098173923","0.5122158731764785","-0.8459440207062459","0.47594737722140806"
"-0.09788362917777622","-0.028594068598990923","-0.07214468361795416","-0.008425328675601255","-0.05553973316645996","-0.7977140292575722","0.7717674064428505","-0.7019988569012269","0.48225594769989055"
"-0.07856947335525351","0.03111036932198834","0.027731530744724824","0.04158181101798406","-0.09395215090027477","-0.7379156172684981","0.9732228638251229","-0.5186867818328798","0.47996786514292794"
"-0.024343488513554654","0.08068315764083062","-0.02210362361609908","0.027859740977310397","-0.04726610524709561","-0.5472596413812556","1.1136008160093398","-0.3431056082391673","0.47645402407330695"
"0.02674755657948347","0.12600239817202158","-0.056880404853046566","0.02163460206739698","-0.04948229832008704","-0.43790426620967793","1.1479011850325178","-0.21500747319068664","0.4752936393479903"
"0.06841163758187754","0.14912424768438262","0.0003400912562971032","0.014929051107368068","-0.14755721833965071","-0.24019333968719847","1.1374801143463533","-0.1372129683858626","0.4558612810606445"
"0.06733231710944246","0.12337444312861306","0.017704524949635824","-0.02849095582691821","-0.08704988219346342","-0.05786400144340217","1.1455884875272992","-0.1218751764841382","0.4248741058606378"
"0.0614610448160355","0.047659215073602705","0.03775977569111392","0.04449412855625936","-0.19708889419130374","0.12219377374756245","1.1766287889828808","-0.15768666462901254","0.3673615164467016"
"-0.011894234536225717","-0.02679501004753498","-0.16017605722831618","0.1112184522943446","0.181829862052075","0.15381849398415431","1.2155266891911307","-0.21740589962087203","0.3456247321555578"
"-0.21730211106548764","-0.08514184431565461","-0.02417300628724472","-0.09470887327570335","-0.03435905422912282","0.4076947877413391","1.205885805615161","-0.28234019494195195","0.3595166619656873"
"-0.11659120882042905","-0.18283944888594333","-0.0371324636339901","-0.004912062837361842","0.050098005547113356","0.8416215760386782","1.0928701299384669","-0.43062574541105764","0.3594022578378391"
"-0.0415394418031985","-0.14035590687985325","-0.011831059338376134","0.09188740308739264","0.20498022446573172","0.7794933557902896","0.8395600935536482","-0.581826874763942","0.4444372117226673"
"0.02985457456748351","-0.08602267667803024","0.008794324916272085","-0.04122620752817628","0.12994796849234683","0.6973433458134164","0.5461540124699239","-0.6913787618720784","0.5424161755011689"
"0.07740244451461518","-0.09747557482373073","0.03225174816222628","-0.11134037260585404","-0.12096529476080857","0.5468522935633157","0.2783547868957855","-0.8228040869408711","0.5560466101619314"
"0.12376893514000033","-0.08135260320958572","0.016860662914276438","0.21762153802333176","-0.10145035057379763","0.2823947872950772","0.17890879417139685","-0.8444136716088779","0.5997980173404217"
"0.11742395573469502","0.032214525927183296","-0.024412575538594914","-0.07540381830793598","0.20958492799967937","0.12232239857854545","0.17514717774724664","-0.83135293362272","0.6344788115252391"
"0.07465648377653768","0.1075423123888374","0.002713685571614149","-0.005817817660505446","0.4805827401389516","0.03044058535182702","0.12412851350562262","-0.8542158214308126","0.6817113728796795"
"0.06159198824534074","0.0977139682699713","-0.01781822536996416","-0.2207183545970794","-0.3814110601842932","0.14781681083281584","0.0966826455220073","-0.9396119395968731","0.6074794373530815"
"-0.2366836642413292","-0.1460896269745627","-0.12498002980150587","-0.06337811306145771","0.5754291024312308","-0.20119817394692086","0.23282529625088463","-0.9754300240740635","0.5008547901986286"
"0.019164391511777155","-0.21669124922771535","0.1834075542511975","0.2023715843683629","-0.06067335534957727","-0.3580597956560848","0.31811646569032254","-0.9226065948856028","0.5335743707631926"
"0.00029602104049212754","-0.14015855057224547","-0.16653496864993036","0.005143567903803122","-0.10534424488239055","-0.5012944659318619","0.4588009199535444","-0.8600469791983699","0.5314660661214199"
"-0.10134015058370126","-0.1094021281076898","-0.10651874068237328","-0.008852693222788166","-0.0790945627824229","-0.7214128087650199","0.7016341580014701","-0.7539647628885764","0.512507667792302"
"-0.09688229707132441","-0.02809652296033769","-0.009809383992283854","0.07104676250853464","-0.13012204929349241","-0.7705572017349367","0.947420961537988","-0.5786474425875137","0.5071633606771109"
"-0.04341693950279567","0.07600269699830148","0.01628817501363615","0.04118515818301896","-0.04837898837770146","-0.6388987662476289","1.1335234511446544","-0.3614170267490533","0.5322995819100277"
"-0.005058217271025765","0.09361622809358924","-0.020061089223122","0.04738719110254606","-0.0656346601447298","-0.4848159262644182","1.1866597661139482","-0.2151802970973722","0.5174270452897713"
"0.052280562474671895","0.1265736927466756","-0.053301322847961345","0.05448265565034407","-0.11301954853798832","-0.3128712229597959","1.1933749480266902","-0.12484484529291007","0.47328339538723024"
"0.07441385330458974","0.149685155084952","-0.033958171053600036","-0.033889092830921376","-0.2081196003181045","-0.16655926427484075","1.20922946465885","-0.07456891964498169","0.42606717747962536"
"0.0702958750168066","0.10847923549126998","0.03149999637350671","-0.04827931109359936","-0.07035902853143075","-0.02248028119342244","1.2325793503139457","-0.07282353011410424","0.375320775055564"
"0.043383149017247546","0.01129683475557836","-0.08272290521636527","0.02751218837191622","-0.1168392506378742","0.12381493199466885","1.249019007278751","-0.13067864159339393","0.3415552138935316"
"-0.1754290982678051","-0.003590997988164637","-0.04238026938985942","0.19108815906304505","0.14432450390213034","-0.02685570964208728","1.2759075987550845","-0.1614980254413368","0.3604482384353077"
"-0.13514473736978166","-0.14483277891032384","0.0005707799233300041","-0.05418866813489978","-0.05393383084251044","0.5639860918036916","1.2564865124763231","-0.255255654451465","0.3356879164796063"
"-0.11576318419394006","-0.15840881543892038","-0.024751276893952085","0.09194516806335842","0.18570700328128248","0.8975369742622279","1.061829828482886","-0.44037512457446226","0.3845875094112622"
"-0.013868014169135565","-0.10596397348568101","-0.006683005262163829","0.0450178643383492","0.3008939972445705","0.7935935495263495","0.7553556133034093","-0.572288578234657","0.5110857879176179"
"0.022315699189101014","-0.10119626058084112","0.019969073950545195","-0.14946525674327613","0.05285987034865992","0.6997216917447999","0.41533335238558505","-0.7056796103336895","0.5979675512948517"
"0.10041151580994513","-0.11510468668014541","0.014687398059140155","-0.024211533857452523","-0.1664451186982343","0.48132643627009336","0.20554661121945392","-0.7873158190794927","0.588537382470799"
"0.13541134651616907","-0.056233300120752554","-0.012754227056941103","0.24110300075342583","0.006158028934917328","0.2258702412870609","0.14327096153074323","-0.765679849082221","0.6660706942581572"
"0.06717345191947653","0.07335604504154065","-0.019383686512407662","-0.02165928466936399","0.48304783610566987","0.11465830015884189","0.11836070165525876","-0.7947169039383156","0.6871864275695541"
"0.09461907916353458","0.137293256402002","-0.02670707069592306","0.01568095854452278","0.4164663120337242","0.10869059337795177","0.05371662681060152","-0.8254821978612653","0.7506316881847572"
"0.0820018324689617","0.014568794592233219","-0.0035867792136792583","-0.11077235034219043","-0.5572944607611188","-0.17053449961729625","0.16115953741448022","-0.8765905806475032","0.666904210046765"
"-0.3328885720073546","-0.091163289132508","0.010992228229758434","-0.19838256389030684","0.28789839423556024","-0.1317383383325017","0.24728662161484036","-0.9276857707691087","0.5645288590695281"
"-0.0032288605380849174","-0.2175326103285694","0.09256950294613793","0.13020387439510125","-0.06047471169400675","-0.4305022712191473","0.3104817775405654","-0.9145326841305236","0.5380688186429402"
"-0.01663130565520936","-0.12739271362224922","-0.1970408084059106","0.03182723207656081","-0.08521900994633767","-0.49595532200426606","0.5064201975007507","-0.8333186406529599","0.530779641354331"
"-0.11557062032731472","-0.09482996158437834","-0.10050059586828308","0.005569103226751116","-0.11014519877485364","-0.7343966360434918","0.7612070166298652","-0.7217746611853185","0.5202871484859745"
"-0.0955054654249531","-0.012849190121526043","0.0035435038922392156","0.053304250140641926","-0.12419624578514812","-0.8132703531557037","1.0525790384620124","-0.4908634521229737","0.5319563695264833"
"-0.04452418173589144","0.0913165077512547","-0.007191263820416263","0.008383701680684285","-0.12661586910782022","-0.604072986538083","1.1938486330578795","-0.3129999475478417","0.5088957660416683"
"0.0027781692812928983","0.09102566687688536","-0.03195900695612601","0.030147234025555723","-0.14193775685435495","-0.47467155280198603","1.2364802858649164","-0.20686496057951834","0.4575119691910245"
"0.057523113743547065","0.15545003670191532","-0.0652240236069671","-0.010598254521514427","-0.14362503127817672","-0.3078475739006489","1.2594679417902794","-0.11052288856788683","0.41917024291506694"
"0.07561256337433254","0.14296465345220377","-0.019170965539226027","-0.028905900904272475","-0.14237573021543207","-0.09373819486963966","1.2775794282769295","-0.07543171991194607","0.37916148506189395"
"0.042910404724682306","0.09019157679789051","-0.03518699609285318","-0.09379522390584442","-0.06797769796163974","0.061584782634935255","1.256319329524139","-0.09251753987747444","0.36443603946315667"
"0.003236471283861243","0.0007372335811550883","-0.14455448983855013","-0.008545864925449871","0.10879122252556035","0.24955905214036248","1.2845453846179484","-0.16660094812118106","0.34779841058467215"
"-0.22785461095655682","-0.0631771259963201","0.03110966371397924","0.0003092170652260681","0.02819215760209112","0.25669408993451337","1.287053128900715","-0.2431052103249484","0.3713166305808796"
"-0.11919082101987129","-0.17812367185152647","-0.025321286491992202","0.05194484770624699","0.07165203882504084","0.8370833037002217","1.1625018295232936","-0.3898208337027886","0.3885099366517693"
"-0.05448936183375336","-0.16242865180966778","0.014311935215213732","0.09311972257466285","0.20259650059888565","0.7573359084907666","0.9138729157996401","-0.5491222591400173","0.4708972521492552"
"0.029811247697492806","-0.09549474072579393","-0.006682798736947147","0.03962454108234317","0.1457341558675644","0.7670191740685427","0.5930209667323002","-0.6612862938453853","0.5988664408708012"
"0.07261626960964208","-0.08746337772356684","0.040392972203799234","-0.15593493405144473","-0.127257272718578","0.6025492722625547","0.3588255145472382","-0.7604687465523903","0.6180536474556153"
"0.1257475288695758","-0.11019155333812079","-0.011814537321041636","0.19901158826635273","-0.04477468301277155","0.2749442546324775","0.253751029099306","-0.7980150700964361","0.639561623491063"
"0.10159096949302539","0.02430988644878854","-0.002298887962455288","-0.13588085989532095","0.3468692336723949","0.03975496462187841","0.2456983835690878","-0.8157328186978604","0.6540092304935976"
"0.07381594249871802","0.10286496789853365","0.0026874568690956366","-0.02268172474395849","0.4500921356574063","0.01949218535157095","0.1948469022796484","-0.8487408656083322","0.6991334872062654"
"0.0865047459261289","0.06013213371441272","-0.026424131149069816","-0.11634667052288926","-0.1104970134419484","0.18916362678483914","0.2009490800343812","-0.9021975426991521","0.6457231029480263"
"-0.11893085979992708","0.04665477533962008","-0.11133284348321208","-0.008457965887021926","0.3641727713805246","-0.07508031372629546","0.31817219334105074","-0.9395327836090782","0.5428737920125616"
"0.004210844448985523","-0.17867419207801127","0.2260674030088664","0.10471989249819312","-0.04051222095769839","-0.2851319433723318","0.3266427962517298","-0.9437808216207376","0.5519280615593989"
"0.03945388331875726","-0.16866095626043895","-0.1297652190720093","0.03362372282909692","-0.12207099800024922","-0.4186833480703327","0.48245730768764494","-0.8689784131545607","0.5628945143859835"
"-0.12062542182623016","-0.12550224793884865","-0.12265662111384236","-0.04064278127092179","-0.048577632033271964","-0.5977145514970368","0.7197177806627556","-0.7830413957385683","0.5373823938758515"
"-0.09156753435246472","-0.04796095467976231","-0.03681028429596743","0.043799023345471005","-0.0779003075519448","-0.8118627606657013","1.0183065332641985","-0.5908242720432951","0.5353884933619271"
"-0.08353762111418755","0.07287408016401437","0.01472085514424251","0.0843355952294649","-0.09018270803854528","-0.6631433334461211","1.1937093139310593","-0.39517705554357657","0.5351433416593954"
"-0.010883274236442619","0.09195947382709257","-0.022167646433270256","0.057020463594441156","-0.04644041776309772","-0.5077985139891151","1.2678270893995025","-0.2629205926029374","0.5116414651100232"
"0.03596751451350528","0.1545463525565535","-0.05003615917223156","0.03981709100222914","-0.1060311211371946","-0.32723837389223576","1.294576361749016","-0.1451655066263232","0.4780720253100161"
"0.06474233310333148","0.1558862980134693","-0.03764258091919267","-0.0013622125143440962","-0.176066172859601","-0.13545389712938777","1.2965268295245012","-0.09470884147292981","0.4388477529049446"
"0.07218877782573381","0.11621768018431085","0.02133833613714156","-0.06142950787221169","-0.11941922486323572","-0.011022235636441306","1.280087172559696","-0.08141855112216673","0.38548639898721176"
"0.05308933071449836","0.02170166703614081","0.027847597916499663","0.020242466146621417","-0.1905934859838537","0.1452394604459491","1.2917899792126082","-0.12645962744392594","0.3336940159656818"
"-0.03755336976405375","-0.04390164704749335","-0.15380888479803476","0.1544651643007335","0.15839709058592044","0.14225196673009885","1.3188178898157623","-0.1783622086410394","0.3309483168973268"
"-0.22838416158977654","-0.09490578795519607","-0.07142597586390358","-0.13252086379331077","-0.08315120129076035","0.5209817143505101","1.280087172559696","-0.2488967900986082","0.35072388756821704"
"-0.10744442515572489","-0.1970179415114477","-0.021676116417568995","-0.07488971002184044","0.014219132075791783","0.8958866934118801","1.1094491060300924","-0.44615351168348977","0.3362599371188469"
"-0.009737519230021783","-0.1172652188897461","-0.03499286238917285","0.07460604777762682","0.17940066554118267","0.8333459029509045","0.8002442359649362","-0.6140697471257297","0.4236646907948148"
"0.022257930029113415","-0.08780407703354234","0.025825922570407382","-0.1490705294075099","0.1071661738251703","0.613664399166368","0.5093180353386149","-0.719030586941762","0.47656842820115514"
"0.08544487440422296","-0.09934630487637054","0.011838775092934678","-0.10342657089854067","-0.144536877456157","0.4554315882212533","0.29688423076289616","-0.7969992349197349","0.45845988910748026"
"0.12903074279553803","-0.07117940491111026","0.005908424148455651","0.13917670066178747","-0.08340967737270752","0.19903618928368466","0.23034541579348197","-0.819901700721725","0.4657163795024187"
"0.07777601841586837","0.06031598669571046","0.016741497864251383","-0.07100790363693928","0.27578831113692454","0.07993930332784788","0.24881913200986439","-0.8367487334574053","0.47959196586571273"
"0.05052052873371618","0.16319886856904078","0.011935181064081462","-0.08416291416354876","0.39124096107332496","0.11831318686564164","0.2263051611156907","-0.8573029049548134","0.5005279212619197"
"0.06771359356536065","0.10465467799331343","-0.04592630736027565","-0.1456912783135111","-0.6639637105054257","-0.10021069344004796","0.24667361745683067","-0.9219337689893462","0.398528469561898"
"-0.1805609253133707","-0.13879783076716043","-0.07283447784166935","-0.06657155348276653","0.260040416514588","-0.24666583825760682","0.290169048850154","-0.943134381053746","0.38862434077961755"
"0.01482111350004235","-0.15222844685857229","0.04424053699057001","0.051106292805143574","0.04744623241009984","-0.3896578201730387","0.42753770789505063","-0.9040709010769646","0.3998196018618983"
"-0.04182828760313651","-0.16503583250490703","-0.12707832600298685","0.05011466071773083","-0.006848822570251728","-0.5858713595121877","0.6489993918887298","-0.8228964355932985","0.38872240146063014"
"-0.10864794932213333","-0.08790275518734622","-0.1205170198690251","0.028231362322690315","-0.015296921844930414","-0.7324065914886606","0.9519906288976965","-0.674505343807133","0.3687016790872082"
"-0.11200818879474571","-0.022550810716559816","-0.010629082577291542","0.03493402503392094","-0.10687834829468809","-0.8003593323853355","1.187105587319773","-0.49449143489690645","0.3505931399935334"
"-0.05638611592001306","0.08108617999531383","0.01757771846659357","0.03944258140805093","-0.0532828540435324","-0.6573188127978347","1.3087869126846947","-0.32606068553399964","0.351524716463154"
"-0.0005214125733324808","0.11905337870941173","-0.0320085730081295","0.09486422484882973","-0.0704906598694594","-0.517700199091202","1.34361669438979","-0.16352969579473914","0.34081975878593646"
"0.05128500728421882","0.19191940491301124","-0.08478815738317728","0.0809399773922758","-0.08184924769280427","-0.22541361854217165","1.3447312474043531","-0.062016099247174404","0.315618163765678"
"0.08314758747538253","0.1615369207155018","-0.018266385090162363","-0.04545749201767047","-0.22728033654096566","-0.05314128595108325","1.3221615488594511","-0.01762805982472307","0.25769698818085557"
"0.05437276888555633","0.07030533201288817","0.034926249718247836","-0.09771746577392164","-0.09967691745599346","0.06086642508831327","1.3196538045766846","-0.04237749867526063","0.22867102660110264"
"0.00817862292080087","-0.04129654378707101","-0.15122318908518612","0.09207513925928147","0.13511031024012493","0.18873649527063147","1.3480749064480424","-0.11190547982137103","0.2296516334112294"
"-0.2302905438693676","-0.03715621619694204","-0.048699941020304185","0.0006672636412540297","0.04339677379292759","0.32154041981876896","1.3450098856579944","-0.166472979274246","0.27015069466946584"
"-0.12331168776565381","-0.1658564192575919","-0.05496798134657865","-0.07734472150038656","0.05356110638579435","0.8331274834265937","1.2253904833700144","-0.33835624897147354","0.28196700673149366"
"-0.0570023202932142","-0.15923978936568983","-0.02733077685030029","0.01182514639880623","0.17050478038750105","0.8982165016711946","0.9767058419956324","-0.5544257103222754","0.34281365929986096"
"0.004317717394962583","-0.1023180753819799","-0.0021883969715308436","-0.07191577650920163","0.1497740412965164","0.7809252171163266","0.6593090072734382","-0.7046505824923559","0.431215363232791"
"0.06295437760171509","-0.11212356771785989","0.040649063472483926","-0.17336070180112503","-0.09763304177096681","0.5491092953145267","0.4035748180819448","-0.8201127833558448","0.4537366329720363"
"0.11889129239838019","-0.12595928359857184","0.029143543651174202","0.13084891662671927","-0.22579409906976944","0.360103600277632","0.2786612889747902","-0.8787409849825979","0.4465782032581108"
"0.12032685602407217","0.0010256854054849463","-0.005779663964400252","0.07686369558828982","0.016531535690396882","0.1497534639483711","0.2825064968750329","-0.8735562677820321","0.5150409020517962"
"0.06723025826013102","0.10498499012920431","-0.09321025571943667","0.10007943942894124","0.6401438548002245","-0.03185994363240671","0.2716117411576791","-0.8751130022086652","0.5457012083150938"
"0.061958822411262035","0.13531969332592444","-0.04360702917694576","-0.18434567473061964","0.0569069356687771","0.2301075800586893","0.2051286538389928","-0.9402451874992322","0.5668332850733261"
"-0.19376117837053847","-0.08079273452642477","-0.04362148594211345","-0.04286191909760759","0.3387080907146187","-0.2911991523809635","0.30638579521204623","-0.9794142087930735","0.49364733014419665"
"0.03418437310855453","-0.24344860966969284","0.11965115460954386","0.12429259185460197","-0.052198690477587344","-0.3162203223325606","0.39092464136665417","-0.9403243434870272","0.5092062915315416"
"0.00939370091920684","-0.1315475832560967","-0.09457125689736579","0.03226143214590368","-0.05833510412677745","-0.5396392268664142","0.5740457016593642","-0.8609836583872761","0.5217580587011647"
"-0.1192774747598527","-0.10726237024625834","-0.12372229123191734","0.0008497046903459865","-0.02603133779631397","-0.7081620242901683","0.8501762110173615","-0.7416296214572051","0.47315264781254673"
"-0.09255923826558526","-0.019160437095340304","-0.02761784690148716","-0.013271810159131125","-0.08440289565056006","-0.7642473043659597","1.083089927235676","-0.5790696078557531","0.454161562589758"
"-0.05335323502066378","0.04768933787844809","0.01204715903656601","0.05727944323668779","-0.08667413455581802","-0.6538483692448973","1.2287898700644313","-0.4173671174554125","0.4701781404884956"
"-0.008235521070344056","0.08151828643723395","-0.016143305862679615","0.08374446697541496","-0.08471402426771868","-0.5513610746710907","1.3032141476118795","-0.2577622607316366","0.45821473740494856"
"0.042348118234136284","0.20009411091760607","-0.06535619974564306","0.03050922787494135","-0.08669328093225855","-0.33847484497622166","1.330799334722315","-0.1371984564547669","0.4323920914049432"
"0.07823239477977044","0.16711483319894202","-0.01632091754902545","-0.029968776462043028","-0.0792022611499009","-0.11116321914242991","1.3213256340985289","-0.07675626344104733","0.38014209187202075"
"0.03946351151208853","0.0815525641117132","0.06509545337103771","-0.016974545118538333","-0.12417949270576266","0.04687301423080511","1.3316352494832373","-0.09043837593139514","0.3587648634112567"
"0.022903018982308336","-0.027227116489455114","-0.1062998239526912","0.15826802521848143","0.07620408982377702","0.21817702026411592","1.360334989608236","-0.14142670546947758","0.35905904545429473"
"-0.23916773812079625","0.001267602689915714","-0.037388554902674793","0.07771284073498694","0.05543745127696637","0.218198862216547","1.3516972037453725","-0.17710626696802706","0.3941811127036693"
"-0.12796210514465603","-0.178871548385619","-0.025079651988475195","-0.008122062551780851","0.06282316598890109","0.7252525072531221","1.2642047921021724","-0.32625857550348686","0.40037527905430353"
"-0.06302956931858768","-0.1561963473588966","-0.0024948803930857455","0.10648172426514975","0.17869942950404824","0.8649196586318237","1.0412105977134691","-0.5183701578817002","0.46141805298469624"
"0.006304976498536209","-0.09376423752329649","0.01182502051350371","-0.025289813408813956","0.18797106229537525","0.811673832372072","0.742064568604745","-0.6540171356328874","0.5696443579290228"
"0.046815599939844424","-0.10596397348568101","0.04164451501688732","-0.1749588661361786","-0.08516157081701609","0.6344627916479574","0.4766337681865532","-0.7766033753979168","0.6045866472632075"
"0.10498432995069734","-0.1199451098035777","0.03193989508503766","0.08234655455704282","-0.23698754939631475","0.4733419892147341","0.3315468295158075","-0.8548094913392743","0.5806108107556074"
"0.12798608381909551","-0.0011866788027979692","-0.04976354588621237","0.15507169654837433","-0.012881127797546445","0.186991565959749","0.29883469853838157","-0.8339914665492165","0.6566078385404338"
"0.06677677035422831","0.10895704549916246","-0.09540768402492465","0.037799167841824174","0.5708339720855033","-0.011785490529727176","0.23062405404712272","-0.8507989212909995","0.6700258083923353"
"0.0849384314349983","0.10757555134590821","-0.06641980461155125","-0.11530690095550503","0.2145749523594927","0.18952765932535706","0.14193349791326745","-0.9016038727906904","0.6941650793682896"
"0.02479495897190241","0.1548371934309228","-0.1388440675973149","-0.2784640755708818","-0.277254772347806","-0.30971627427530746","0.27241979209323736","-0.956854752271528","0.5687454683530734"
"-0.0734954154696755","-0.12637477056195656","0.0924435225639624","-0.031203021448512096","0.054745788428052194","-0.3178706031829084","0.30479755716629403","-0.9619471208196663","0.5395560723049659"
"0.04859681570612893","-0.2211265725618475","-0.021717421460905238","0.18504209157862556","-0.06025692166199572","-0.3972054281797765","0.4213798024895896","-0.8954560910719533","0.563646312940414"
