"AccX","AccY","AccZ","GyroX","GyroY","GyroZ","MagX","MagY","MagZ"
"0.007123372931693942","-0.030779530026394677","-0.023070161630167108","-0.02447628999729573","0.06805252005422106","0.014732581228479561","0.17812860706120254","-0.8870259783717971","0.472024949980901"
"-0.020973620847611014","-0.02794590893611072","0.0340774310776881","-0.0429880392951329","-0.03235347129697722","-0.007457871688050359","0.17266729728984367","-0.8918808789565508","0.4672199766112796"
"-0.022562272747270167","-0.032376038683200555","0.043251281202667066","-0.11948523421703058","-0.21056554990838233","-0.17433499934030314","0.21688718814263308","-0.8982925139679373","0.4025489574834179"
"-0.012144567562838672","0.006107610326384597","-0.032671518953676155","-0.009567149700525059","-0.25231661703401465","-0.44435977659486203","0.33837346673000607","-0.8570258589975313","0.33905466652770827"
"-0.04898203524826832","0.011237004632850957","-0.02040598633497961","-0.024841172095479643","-0.13478179865970658","-0.42812392528776366","0.4848257328435915","-0.7845189741774065","0.29976502033529484"
"-0.04370578530273369","0.019572296348794","-0.010914087376311601","0.032200778921139595","-0.0991264591333282","-0.3641998111728201","0.5776958627820583","-0.7264448644652174","0.2815584205606075"
"-0.020781056980985667","0.023384389237849027","-0.03844389875991573","0.07875934954956719","-0.07040928776958714","-0.44360744267779173","0.6715969542589957","-0.6522625112367673","0.28433680652263343"
"-0.006473561690722097","0.03367392388607222","-0.01905324616571774","0.050543084289477125","-0.030955785816818484","-0.4253330091437931","0.7567209407462493","-0.5664838057963646","0.2969212605859272"
"0.013286379483038305","0.03676203074142932","-0.023103205664836098","0.07540031619715645","-0.007094135518396028","-0.35267211405641985","0.8215043347177269","-0.488330460513537","0.31141789792896823"
"0.032824872210179545","0.03589989529240598","-0.02964798978146337","0.05131906046661758","0.0029352151205649874","-0.2629016895647052","0.8591204989592303","-0.4246758536618079","0.3230054017352998"
"0.03810497343304668","0.04369027585586993","-0.0192349883563972","0.024240765233053584","0.026227260719881653","-0.13509957212328366","0.8781514916828941","-0.3828419141122052","0.33558985579859363"
"0.03418244746988827","0.021652847317943105","-0.005613204639755205","0.008938341724915823","0.04885349107847887","-0.017128517471088595","0.8817459251548597","-0.36954370816266263","0.35062582688720445"
"0.020721270373443113","-0.014149664316920291","0.010674344616242728","0.013300078785132759","0.029903364996463552","0.0687319548471034","0.8718542671506128","-0.37152260785753505","0.36595598001885316"
"0.006087379329249557","-0.05564850221978854","0.004368778658097296","0.03975066127986848","-0.07034945534321049","0.12099489324745684","0.862909979208744","-0.39090263220265214","0.35577401264037006"
"-0.00251637423157112","-0.11440874601647597","-0.00042239984368989204","0.03828150539113853","0.05604534872895322","0.0043566830702779745","0.856166933470638","-0.39687890928116687","0.3695678817694869"
"0.00867062360002864","-0.06107580067900176","-0.005284209969582052","0.06589508940198552","0.11080877194298128","-0.011426069068055832","0.8455229521815604","-0.3808893997465978","0.4005714004163289"
"0.01976230231764886","0.025936517910439816","-0.017681918726954564","0.08100544436503702","0.078872616040176","0.14654027005739975","0.8243185810794982","-0.3832113087219147","0.43472920430241196"
"-0.05166830118769197","-0.1259800579467411","0.10462851034815328","0.09814431273408723","0.09262210762153213","-0.03074115029121502","0.7998820062352037","-0.394068871714448","0.4669094511214063"
"-0.0012261963251812649","0.0246651278024825","-0.028474926550714146","0.1854464464103861","-0.09617073727032126","0.025092947331619046","0.7910213097694269","-0.36249882524891686","0.49531436172141224"
"0.043911736831134134","0.09347911739567227","-0.11377397154438389","-0.1303546771945936","0.13314062676380534","0.025378106155024737","0.8019996569628733","-0.37243290171717636","0.48632546596191656"
"-0.02544110255331916","-0.01323247684524847","-0.026006950211373787","-0.07196391398917312","0.1994134155156474","0.1795847172020114","0.75563425155705","-0.4152299057849503","0.5016883059872363"
"-0.005635908870901805","0.009566747040044284","0.011080497107367979","-0.006012581904470105","0.006351168007261179","0.17718695620180017","0.7245660862761051","-0.4592538276635451","0.5104647369378711"
"-0.003768039364635892","0.022011204823862447","-0.056345504541842256","-0.022690389490353357","0.08428625397873606","0.208505889104357","0.6868106029077814","-0.49094260811076856","0.5226079179366078"
"0.005868819340629797","0.0027035256353733893","-0.04561032377875341","-0.05125998385343418","0.12061650327464313","0.22947416343818816","0.6353182536349681","-0.5410615410495704","0.5294721656074954"
"0.005589601734023021","-0.0013952532584171112","-0.008006831901090326","-0.13826847890190697","0.11080159205181607","0.20932617576232404","0.5809280665242911","-0.5993071554019817","0.5224608269150889"
"0.005414368615393967","-0.015866664193107748","-0.028452208776879213","-0.13728647431048852","0.08892925026556478","0.18679498838786934","0.5413614345073026","-0.6618403857599495","0.48928362983913254"
"0.010305490827677875","-0.027866966413067618","-0.011988018503053848","-0.05075646581293236","0.04659900525260636","0.17736897247205913","0.4869712473966255","-0.707302308083485","0.4704886659783689"
"0.01319202318839188","-0.02304835635521305","-0.02527791619648915","0.008413354368346724","0.05560737536787608","0.1506829603684935","0.45085972972478255","-0.7327245728302791","0.4710279997239388"
"0.011787269781359952","-0.003050657192282778","-0.010876912837308983","-0.0006928127178605207","0.04675456956118567","0.1414583757917698","0.40666770269735714","-0.7561151672236711","0.4880905582201449"
"0.00500902167614759","0.002137736262984214","-0.030220064631670294","-0.02292144939421652","0.022163442320379003","0.15225558094353084","0.36392459458886417","-0.7789120917086013","0.4905420752454618"
"0.005139002286119707","-0.006239935123224074","-0.031186602645738318","-0.02886450267149699","0.057043353600915885","0.15099845523694233","0.3211814864803709","-0.8076984859366785","0.4887279526467273"
"0.007307271424321168","-0.008144838978602279","-0.012917381978119253","-0.052207329459273144","0.042286283959376815","0.15453442464717287","0.2730885239019749","-0.8386220918352179","0.4778922473948263"
"0.0062953483052049465","-0.011876950627205743","-0.00510659828323622","-0.05854414732272044","0.025463798959315487","0.1314280658586999","0.23641972972285052","-0.8666301188499788","0.46133633575051897"
"-0.007022368710604333","-0.03813364927830464","-0.036116359567918595","-0.059824604289962134","0.030858290521435024","0.05305914053600599","0.20420914760197817","-0.8913795577005164","0.43811229779734945"
"-0.030168545478971524","-0.051025171034724794","0.037939452629626565","-0.04624790943880237","-0.09640767367877283","-0.080181623060753","0.20666116423401718","-0.8960629536450477","0.4129760765644328"
"-0.013001476769321486","0.006227166700098558","-0.009873613334671709","-0.039548134976370046","-0.20705697642565504","-0.22698381223360556","0.2776024636109555","-0.8792291135739997","0.36727979921252435"
"-0.024603449733498886","0.012349055490350223","-0.01674016373888829","-0.06323562612074209","-0.21823606696986997","-0.34971131606020756","0.3817853066472372","-0.8442289743040231","0.3044392461302326"
"-0.03520409059122445","0.009594480794850216","-0.008192085020453366","0.015149520765637506","-0.16065333982497373","-0.3413385676282958","0.4940207952137366","-0.7890968288048779","0.2624202443162997"
"-0.027540048699535486","0.02599987967235599","-0.006283792018319066","0.03895350461154057","-0.11651615553544026","-0.3303205160686207","0.5847175467738055","-0.7323551782205696","0.2435762501150298"
"-0.006791292070653921","0.021283063920530688","-0.030854097046881586","0.06561396651895202","-0.054692506008966475","-0.41875615457843623","0.6755814812860587","-0.6600593760345644","0.25050587157325915"
"-0.00015072713007868895","0.02420289855571697","-0.03337370469039224","0.03081249399876175","-0.014129950200880063","-0.3672091468411014","0.7531822349250112","-0.5891619962996024","0.25683078549857696"
"0.023083066197603037","0.033243894878969005","-0.035569067743713406","0.05736512795103705","-0.00543294803247448","-0.3227971768979173","0.8097458004140863","-0.5212329661069488","0.2690883706251618"
"0.033031878366801805","0.032659096978004974","-0.04014773179753564","0.015287193958355974","0.027012262153943412","-0.2438506532776017","0.8472505093541336","-0.4652828754005897","0.2837811293302282"
"0.03361534688267662","0.0302046077418096","-0.013764135366512177","-0.012219524846954299","0.06196157904907721","-0.13456808461412756","0.8614610602898125","-0.4322088651669556","0.29919299969605423"
"0.028331394382476987","0.011887345602288926","0.005845227432151205","0.017091386707687513","0.05186186547669725","-0.03288651539666719","0.8654734511422392","-0.41904258586373777","0.3115159586099809"
"0.016300966815058177","-0.027940715349068408","0.01275390898057075","-0.005456786560719251","-0.06165700043920952","0.04480530940066343","0.866058591474885","-0.4215491921439095","0.3098979573732717"
"0.009060565429944973","-0.07815750846115704","-0.04284288587522532","-0.03138305562360548","0.1024226590620288","0.020295726512674132","0.8598449584186957","-0.4293064789478093","0.3160267499365641"
"9.671743853489194e-05","-0.1046448023769345","0.0032721297575201173","0.08103914060101708","0.04709920433711522","-0.0324448225808388","0.8530183212044968","-0.42380513779606405","0.3406399808707466"
"0.019758451040316354","-0.020130599154843686","-0.027029250033945736","0.10306396318717377","0.045998287691784705","0.07949032986120913","0.8415662889798619","-0.4118525836390347","0.37277119734923436"
"-0.07026034251036962","-0.016989517711655022","0.07769968734509143","0.18632254854586727","0.07282236108496828","0.19565554042407507","0.8081018347176062","-0.42363363315584185","0.41317219792645815"
"-0.022379337073976067","-0.04636652345777335","0.013259069660572968","0.2722383227989872","-0.11693498252007686","0.012874559141676187","0.811724132014936","-0.3863643555690781","0.4483596389631744"
"0.06703576875483941","0.14134425429500325","-0.17746428311669957","-0.10172250410754982","0.05596158333202589","-0.0015418575279137624","0.8327613201648135","-0.3580792825970352","0.4332746375340573"
"-0.018547316128131583","-0.002316283984500242","-0.12117790056240496","-0.07197450423476685","0.22273609531726893","0.20795498652637326","0.8047860394992811","-0.40591588455441746","0.4398937335024132"
"-0.012558579876083168","0.00046238895487608016","0.04656601093040034","-0.027661065672209675","0.026638907813353062","0.19226033026284475","0.7511481756734337","-0.45785540521250195","0.46723632005811516"
"-0.006983855937279268","0.04127110301156226","-0.0585181498213285","0.032581065012914384","0.07444740978535833","0.23665288513720117","0.7250397713072941","-0.48736739599536577","0.4872733858783725"
"0.002843640995945519","0.004655784617403371","-0.04416877776631863","-0.07024829420298913","0.14863243860124975","0.24386315632305908","0.6652440020759861","-0.5403887151533138","0.49614787751002"
"-0.012751143742708516","-0.00807836106446072","-0.03739681591134204","-0.06938470781230056","0.03538401525256547","0.2805988934285223","0.6069250155889745","-0.5952042367012795","0.4988118593441978"
"0.018530856390579737","-0.011996403129178858","-0.060963408386833916","-0.10001843731655899","0.11688535316579474","0.2195215137804287","0.5569651767111855","-0.6498086756151253","0.4761271551365981"
"0.0068056425517621175","-0.010495456473951469","0.001551774702565711","-0.06863183762554641","0.06029105770464092","0.2045961796191947","0.4998721985401926","-0.6995186359503202","0.46637011737583645"
"0.007588414669594175","-0.018892448003957146","0.009710388167383222","-0.002573447785386792","0.0006718740955887469","0.18556455840091884","0.45384115903873845","-0.7336876373484504","0.4658798139707731"
"0.00846843154007203","-0.0020892203590104803","-0.018704218549526513","-0.007881471426883332","0.04138161767256174","0.1533573860994983","0.41427452702175","-0.7598223059853988","0.47012911014798914"
"0.008466505901405783","-0.002550410888367546","-0.021174260141033678","-0.040232649941564676","0.011678886581544368","0.15225800782713428","0.36849426194857265","-0.7892815261097326","0.4668277338872291"
"0.004549756854246138","-0.012272701959829711","-0.039877183763683266","-0.05138129030296234","0.030324585278155226","0.1652345544547957","0.32636415799808904","-0.8203238659899644","0.4519061669264663"
"0.008218098513459077","-0.025921448707018555","-0.009893852805906465","-0.042462378013844206","0.03736327191710534","0.15093535626325255","0.2723083367917809","-0.8519730684432906","0.44473139376570525"
"0.006720914450446973","-0.022782444698646813","0.018450287507071644","-0.05991510275230853","0.00252907261032023","0.10165748469514589","0.23689341475403983","-0.8767752779523579","0.4275054008011447"
"-0.007340099090536175","-0.05303716665491542","-0.03065583283886763","-0.06937989406430341","-0.03541689152746214","0.003957703405870354","0.2245218762923899","-0.8945326045476797","0.39529246708847965"
"-0.024343488513554654","-0.05340175646528553","0.0046665880205515875","-0.03742142111122951","-0.11986916470958818","-0.11953839445794508","0.2482061278518547","-0.8940708612855427","0.3664462834239166"
"-0.020944736267617226","0.013415714397099708","-0.060407855553961484","0.03177331809899274","-0.21663016464592041","-0.31389051407324603","0.3370638669378946","-0.8593345753082158","0.33364498562517547"
"-0.03986413616355796","0.03102519449449447","-0.005160914415223376","-0.018376308535308198","-0.17502269534359208","-0.316608623709113","0.4504696361696854","-0.8048356777114297","0.31297052537833564"
"-0.03099657010546052","0.019608651458090164","0.020241480711347702","0.04003756066049858","-0.09672598218709666","-0.3068768204592678","0.5279589345071819","-0.7553763780042521","0.2988497873125099"
"-0.024574565153505083","0.03483936481836642","-0.01199008375522066","0.09220511045520449","-0.08009256765438558","-0.33439768052242114","0.6119405041545083","-0.6911676792379587","0.3091951891593475"
"-0.006329138790753078","0.03680461815517626","-0.03507340722367852","-0.0006044323046328605","-0.030688454535767566","-0.3464350231955465","0.6871171049867861","-0.6257848333193744","0.31494808244542466"
"0.01036999972299737","0.0197301813948802","-0.03486688200699732","0.015203434743205575","-0.04103635301275792","-0.3612632820126423","0.7523184563387249","-0.5662331451683474","0.3079204003061827"
"0.021625357727249134","0.02316314242984665","-0.03397882357526816","0.05691071014010615","0.012639795349153502","-0.29894091107597753","0.8024176143433345","-0.4996761520974721","0.3196713385808687"
"0.03136620092049252","0.02722764364915791","-0.03530058496202784","0.04582176025387313","0.05538240544469983","-0.21265306455521749","0.8296127078986727","-0.44615351168348977","0.340509233296063"
"0.02941360331291146","0.01671893962774927","-0.009514465982863096","0.03990566396537669","0.006476098113535644","-0.11413372467305598","0.8486994282730651","-0.4122087855841117","0.35494049685176227"
"0.019870138082959062","-0.006552485191430248","0.016391437621976746","0.05498617369084587","-0.018498195985787152","-0.05367762722744629","0.858897588356317","-0.38914800780653197","0.3673615164467016"
"0.016967237793581898","-0.007866462713134499","-0.02274591703997762","-0.0008423277306519766","-0.024219133266217743","0.026339152061991996","0.8571700311837448","-0.3881453652944633","0.36522052491125806"
"0.0147075008187334","-0.06593907558542018","-0.036403429619105455","-0.09806405562971639","0.11423597332583628","-0.02055309292392067","0.8551081081068026","-0.39782878113470554","0.36079145081885206"
"0.0031623341952104846","-0.08389018983845807","0.013674804921752225","0.045610918091597986","0.11534885645644215","0.00901217388678125","0.8337644178779204","-0.4026704890548268","0.39625673045177096"
"0.007829119502875868","-0.043994092896846464","-0.010620821568624294","0.08680023420400532","0.08176850547680627","0.07033612490898562","0.8219780197489159","-0.39371266976937097","0.42802839109987895"
"-0.004162795291217883","0.03131603536886379","-0.008493405311591238","0.15829690770646432","0.05463330346646407","0.2414314189523995","0.7972906704763443","-0.39972852484178306","0.4619737301771014"
"-0.07151200764343439","-0.18025304253887328","0.10223075258248453","0.1939667803653403","0.13194876483038226","-0.06766861120135098","0.7699841216195493","-0.39125883414772916","0.5045484091834394"
"0.025883907637668773","0.09185456336883795","-0.10857573184051805","0.006534644800019313","-0.2552125064706449","-0.009063740568454996","0.788429974010568","-0.36189196267582274","0.503616832713819"
"0.03766881627514026","0.04706610743337098","-0.0405194771875618","-0.14474778370606986","0.05890294541270243","0.05209081397822837","0.7958417515574123","-0.3854540617094368","0.476895297137864"
"-0.046343910275501006","-0.011696213798133378","-0.0013057081954353917","-0.0665513357411785","0.17091164088686234","0.22525623973538741","0.7474980145507399","-0.42749908389315916","0.5057905111429335"
"-0.0074556374105113725","0.05087820032242601","-0.005422581864758457","-0.0752594058680215","0.0835371520005003","0.1961190751923345","0.7115536798310813","-0.4830402019959114","0.5069999262087564"
"0.010008942473074841","-0.01392945622632638","-0.08442054249748476","0.038191006928792126","-0.03915522152747578","0.17819168601362959","0.6835783991655484","-0.5120772568520058","0.5029467513935657"
"-0.0008795813652556371","0.021585330686393085","-0.04282429860572401","0.009525041330808373","0.1312427421991377","0.23713098120708134","0.631166543655721","-0.5419586422445791","0.5363200698315473"
"0.0055636056120286085","-0.011359669357791735","-0.03274173752734776","-0.11094564527008781","0.02766323895292146","0.22089270301637945","0.5827949428236843","-0.598990531450802","0.5262525065809125"
"0.0037111412150927386","-0.004181301091393513","-0.0065473181948042785","-0.07958022607026267","0.01306388758731126","0.22742101990966718","0.529909402282667","-0.6480276658897403","0.5190613899733161"
"0.0037015130217614594","-0.015465719273441468","0.013289841917858466","-0.048593167463013495","0.05970230662909458","0.20802293926726992","0.47816627858157723","-0.6951914419508659","0.5068528351872376"
"0.008167069088803358","-0.011091680266408575","-0.016294069270856894","-0.005846892698408227","0.042245597909440685","0.19528665411635024","0.42519714656446805","-0.729386828678261","0.5051858036100217"
"0.00787629765019907","-0.005636440308907733","-0.033212615021380905","-0.041881840005388","0.07215463120660477","0.18342162017907013","0.3704447297240578","-0.762262948942408","0.5094187563404026"
"0.006868225808415365","-0.00969772150425276","-0.014759586910915567","-0.011779548280014854","0.045914522294857395","0.16617375840933193","0.31906383575270114","-0.7949543719017002","0.509435099787238"
"0.004556496589578026","-0.007406310901185895","-0.031799982539281485","-0.00955367120613304","0.04970550483008247","0.16028128502014882","0.2718903794113198","-0.8196510400937079","0.5164300950328091"
"0.0029534023999219696","-0.02083900442741467","-0.021285783758041528","-0.0017074545206996407","0.038973960835164995","0.13472862755939558","0.22546924635476853","-0.842474349907903","0.5211206642745821"
"0.009592041701830952","-0.022761670350477575","-0.005476897996745614","-0.006713174787975207","0.04320531002852229","0.09432829621271879","0.18746298855816834","-0.8585957860887967","0.5287367104999002"
"-0.00767708585713054","-0.030985196073270126","-0.04440008600900157","-0.013097552481634323","0.035807628831312215","0.04183237698643389","0.1642245582045286","-0.8684111285753638","0.5297826910973688"
"-0.018951700248044837","-0.03044194686864457","0.03583496067164512","-0.08687979353313979","-0.10741444683502294","-0.07159288198813396","0.16597997920246546","-0.8754560114891097","0.5102032417885041"
"-0.016660190235203164","0.011951330594650178","0.01023091432350652","-0.11553796085936818","-0.17214834558045738","-0.24841319445209273","0.23848165279979205","-0.8726459739223908","0.4355954069846907"
"-0.024382001286879736","0.014956236185589491","0.0002498397366074186","-0.0780523424559675","-0.1913904539031908","-0.43637532953950275","0.36969240643922774","-0.8324479247872161","0.3637332712492325"
"-0.03618616631101374","0.02797552018325045","-0.0019591539810147104","-0.05415978564691689","-0.12375348582996085","-0.3729365921452497","0.48967403845694096","-0.7776719812331478","0.30576306532390374"
"-0.030717352498853778","0.02245889202690951","-0.01289672945645113","-0.019492135321047394","-0.06229361745585717","-0.338766071008636","0.5778909095596066","-0.7257588459043283","0.28029997515427807"
"-0.0150137691755564","0.018781832400954525","-0.040728067656409815","0.009323056464847991","0.00041052605717550406","-0.4076167588385885","0.6655505041549911","-0.6584498709494016","0.2803816923884553"
"0.0018788960241525182","0.027821790006798092","-0.02402637338340107","0.023673705718989406","-0.02099655878157091","-0.38434294508147726","0.7437363981265896","-0.5895313909093118","0.282163128093519"
"0.02019845947555528","0.03307873881102357","-0.025461723639335417","0.038391258845473536","-0.05057842837130743","-0.33129126951000176","0.8046745841978243","-0.5209427274850343","0.28242462324288614"
"0.031004180851236855","0.026356159743458406","-0.027574476605984107","0.03685952423278064","-0.013553644270020088","-0.2455494718000186","0.8466375051961236","-0.4642142695653586","0.28381381622389906"
"0.03057668906732858","0.0316453087873462","-0.034040781140272515","0.04382598033425504","0.04416980874171402","-0.08758604493488711","0.866755187108987","-0.42976822220994626","0.3009744354011179"
"0.03271896208353561","0.015168134536915713","-0.023253969073013376","0.03291995287191369","0.04691731376093018","0.03366105989360873","0.8589533160070456","-0.42604789078358607","0.3170563870871973"
"0.02057299619614159","-0.004630338627071575","-0.02410898347007355","-0.021925003558806624","0.03201664629608714","0.0814706668816265","0.8444919906430899","-0.43691864644075185","0.3312424989403649"
"-0.0011202861985373292","-0.06711905856143285","0.05852588622840871","0.039558111359982516","-0.054173160548017074","0.04965422284036189","0.8357148856534058","-0.4514833481950128","0.32660096003909805"
"0.005840897579969117","-0.09999134838702534","-0.06479445115627021","0.058800587603786945","0.1230217668149848","-0.0020148571422266897","0.8299749376284059","-0.4464833282993018","0.35126322131378684"
"0.012505533003872513","-0.05023990067392762","-0.005827164764236928","0.0603631302036616","0.09509438347941566","-0.021643734415312303","0.8169068035326542","-0.4352167927031616","0.38756201673531343"
"-0.004037628777911388","0.024654740628397884","-0.01836551719416934","0.07959694170107116","0.13396392095074816","0.1261253251851558","0.7973463981270724","-0.42987376352700607","0.4282735428024106"
"-0.04337842672947061","-0.16385169465926053","0.08686527646140316","0.20558716803045862","0.11968311742316726","-0.07693687968293678","0.7800429625759809","-0.4205201643025759","0.4705867266593817"
"0.011992350299315951","0.05945281252927866","-0.08824332425825378","0.17486582831265204","-0.19083042239230524","0.06011166428763948","0.7762256185011027","-0.3882245212822582","0.4936309866973613"
"0.03080584006861274","0.08626210884167927","-0.03451165863430566","-0.09702428606233215","0.1407919974488524","0.046909417484856906","0.779039864862874","-0.4010345986403989","0.484364252341663"
"-0.025017462046743384","-0.01275155068513063","-0.03968718056433656","-0.14624967308118042","0.14930495507372343","0.15270455441016956","0.7364082120558375","-0.45315881660333807","0.49330411776065236"
"-0.0031999759580911306","0.00974312125600111","-0.011936387198883545","0.019754352099710482","0.039256369887662824","0.17985895504920157","0.7053400467748924","-0.49293470047027343","0.49091797452267716"
"-0.0039028340712736484","0.030452861202431986","-0.051799884522689014","-0.046868882930434626","0.05997035589926203","0.20454036129631534","0.6699251247371509","-0.5238187283749155","0.5080949371467315"
"0.00023728906117139552","-0.001716320809372672","-0.034701661833652364","-0.07185897428283528","0.04767838222444128","0.19318497291576026","0.6223337110153085","-0.575349276429393","0.49959634479229914"
"0.005850525773300379","-0.006848519652841878","-0.04408823293181296","-0.09079433340442157","0.007638761822886871","0.18550631319443595","0.5872531548819363","-0.6211146300394754","0.4895287815416642"
"0.010613593014278435","-0.008761837119228623","-0.02819405225602771","-0.08519401898453814","0.0404099390682048","0.18300904996648315","0.5433676299335162","-0.6666952863447032","0.4688379778479889"
"0.004416887786274647","-0.010936911372547759","-0.009302984160981546","-0.028606485778849788","0.0416472736456741","0.1744008938250365","0.49616630976677095","-0.7068537574859806","0.46323217558343066"
