"AccX","AccY","AccZ","GyroX","GyroY","GyroZ","MagX","MagY","MagZ"
"0.03334768310806738","-0.0035625371311727824","-0.009619380792937149","-0.034964484133484526","-0.00045824077381357876","0.0789685498864668","0.9728884979207539","0.17683049759160885","0.12583805911247326"
"0.0355111381496032","0.006449659968991089","-0.02565998784734937","0.03379509225779542","0.037147875182149376","-0.031214392593888293","0.9725541320163846","0.17585424040880512","0.13146020482386686"
"0.023309328740887827","0.04087846783116368","-0.051822602296523954","0.04941185351014704","0.15079358584197466","-0.03131874858883675","0.9631361590433271","0.18844004246819362","0.14700282276437646"
"0.006102784438579583","0.09651113351097246","-0.02293798549149114","0.02571762311857898","0.1033057856753483","-0.008019937930609998","0.9475045530140802","0.19595986130870874","0.17387144936185053"
"0.015419024305914074","0.0974605212223066","-0.048257977056606415","-0.08928859303091329","0.06308403536790333","-0.030185393946024354","0.946780093554614","0.19255615383352823","0.2111671950403394"
"0.008457840527407627","0.05501229560810421","-0.025226284892318845","-0.13970297580505742","0.08690691425403371","-0.0488408482057651","0.9336562318081344","0.18908648303518524","0.242301461261865"
"-0.02381393788033494","0.11769265890432669","0.06682200418249255","-0.12133371344793589","-0.08289511850586825","-0.023749298629667848","0.9303961642405372","0.17464051526261673","0.2753805976568087"
"0.01936562075240064","-0.03778671766387839","-0.06018893882427941","-0.13461965792006783","0.039093625687918306","-0.05457557416072378","0.9254085395003676","0.16805737561100786","0.287360344187191"
"0.014747939230724715","-0.014504905670614248","-0.10381739084818317","0.005974998457870742","0.10371264617470957","-0.1752086774375461","0.9045106704773104","0.1886115471084159","0.3140491928694751"
"-0.003488821758029151","-0.011086486679366266","-0.06247104246860668","-0.0026464242050235746","0.12314143166773814","-0.19386413169728683","0.8658078170466085","0.2228333191650761","0.34917126011884964"
"-0.01065219759649219","-0.007460324206425913","-0.02343571126369283","0.021887805212047032","0.051100797013186164","-0.23415282639820476","0.8374424428259785","0.2667780850558759","0.36495902976189093"
"-0.00722456077056096","-0.0034596002359942113","-0.030114736771162883","-0.012029863175866618","0.04229346385054202","-0.27190542773351467","0.7922194542600826","0.31049857564792366","0.3802891828935398"
"0.0004664400624555594","0.00897966396078164","-0.04080861249091548","0.046595810931814724","0.017802855086048126","-0.24588923550450195","0.7538788305591134","0.36175207774511897","0.37912879816822304"
"0.005189068891442301","0.011975636582008186","-0.04851406832529111","0.06182458409559611","0.006729548271667169","-0.2656683368726413","0.71400569646312","0.4188499302745041","0.363716927802397"
"0.007133001125025221","0.016146606335686785","-0.027677739214324707","0.04403585974693075","0.0015157506372051415","-0.25239328356175517","0.661872479206933","0.47015620303022954","0.3580130648568262"
"0.009318601011222958","0.022797513902068075","-0.038134110934893925","0.04124388590858419","-0.003545115315438149","-0.22692314014351925","0.6167609459424932","0.5178872636705518","0.34353277096062057"
"0.011329930598124748","0.021188540636360657","-0.04671936419233147","0.024011630828389283","0.0015456668503934707","-0.21127216778485292","0.5694760342996558","0.5563438810742389","0.33715882669479647"
"0.010965022070869704","0.011182679712388401","-0.0299804953803201","0.019194994582441737","0.008752362942609242","-0.17785155368170605","0.5231106288938326","0.5906843871125914","0.33122615549352935"
"0.00907404490060875","0.01615491607495448","-0.02790491695267403","0.026510928788509178","0.0026530453977726674","-0.16501819318664832","0.48513223492259644","0.6210011304380367","0.32575110080365477"
"0.008168031908136482","0.02333245336742593","-0.035240692649190296","0.016636968896756626","-3.678116241639522e-05","-0.15258769536976366","0.4432807692257536","0.6444313028253261","0.3206029150504891"
"0.008359632955428705","0.03063255931409589","-0.02486899626746037","0.0005026334597515252","0.01521330767246634","-0.11004199891763475","0.40552528585743025","0.6681649064991625","0.3209788143277044"
"0.006312679053201222","0.02792670046505274","-0.0017117367714306313","0.027680669551816445","-0.015138724909590529","-0.05157351914325282","0.39164910082612026","0.6827032229241584","0.3161901844049186"
"0.0054211083507258555","0.03507826982231265","0.003501992323686295","0.08718822229257554","-0.06246593484382196","0.008100636405324423","0.39045095633546484","0.6903549684109983","0.28570965605681087"
"-0.02625949898647691","0.04181227478137088","-0.004074591775480255","0.08231670931946049","-0.11761228558666063","0.1308965783495438","0.41561199063922577","0.6893391332342972","0.23158016013781207"
"-0.02880134202593154","0.021500155858899212","-0.05433601418353416","0.09761480045440081","-0.16019143349334594","0.17351750819337972","0.47264924115949014","0.6708957880780864","0.16499695773020304"
"-0.020164852607784525","0.004563681544795058","-0.05702497250472341","0.058412599515216726","-0.1066342319950713","0.23376246676548906","0.530243768187036","0.6468719457823354","0.11513310143525579"
"-0.020039686094478065","-0.0011029581796759438","-0.028656668741393602","0.03267637722325794","-0.060594376546760066","0.27176503711195454","0.599903331597227","0.6048665015925104","0.086278746047275"
"-0.019962660547827915","0.01368578092329979","-0.023881805731724225","-0.04883385486287095","-0.01163996394478904","0.31457526387685975","0.6681975675645784","0.5544177520378966","0.08804220396081969"
"-0.011220261003036984","-0.0074686339456936065","-0.02067240386449836","-0.057238658865893556","-0.006008775303923441","0.3624576773729812","0.7359345270246482","0.4905784478813126","0.09754264960626473"
"0.000412522179800467","-0.008631997443170891","-0.03627951448909674","-0.04412408382246013","0.0030771376359304222","0.37386403030920873","0.8062070945928487","0.4205913620059919","0.1194314279529782"
"0.007729949111563803","-0.00810640643448919","-0.04929060314001242","-0.06848261143763477","0.014850723168623788","0.36301586060177526","0.8655570426183313","0.3494037436491152","0.13435299491374086"
"0.019553370522360364","-0.012285166568731253","-0.038235308291067714","-0.07987193919888991","0.022309433440738047","0.3240643787663598","0.9067955041571645","0.2772662534386997","0.15733188116437863"
"0.033230219149425914","-0.009170053060754135","-0.010231934585613592","-0.06460465605113135","0.011927789475271264","0.2043000998195735","0.940455005196969","0.22015520824468207","0.17465593480995192"
"0.035467811279612495","0.005158949717236381","-0.004434358702938908","-0.048622049950996386","0.06822962403629597","0.05765323119734191","0.9450804002074057","0.19411288826016115","0.19778191208210874"
"0.028785845107712815","0.007050246374563736","0.008597320512079887","0.016240316061791524","0.059649654093883134","-0.004047857536839","0.9406779157998812","0.1900495475533565","0.20830709184413626"
"0.02536013392044782","0.042201793809544086","-0.010217271295229226","0.1249087515982371","0.05430781506697505","0.020934967653823574","0.9373621205815564","0.19474613616252037","0.21133062950869383"
"0.01801863650535631","0.08116719995317385","-0.1105439171554899","0.14136214225249322","0.25360244743645954","0.012632113469691265","0.9231794334712418","0.20292558823465962","0.2375945485732564"
"0.01819386962398538","0.11672665171445716","-0.05530668270193581","0.03100311841944886","0.1124290340492612","0.034512896038420615","0.9100834355501257","0.20837415872787501","0.26766649075047794"
"0.02842575067712341","0.052103886864411","-0.049451692809023756","-0.14761677751237082","0.08201262177642303","-0.060244774258389235","0.9011670114336213","0.20041898195448796","0.30167720361504213"
"-0.09939525553078522","0.1714774463144818","0.03463917966706096","-0.3523069698471514","0.07967197725656815","-0.03301999399485708","0.8778171257785249","0.18230545341408916","0.36260557341758665"
"0.019276078554419852","-0.11007729442319003","-0.058171187457304076","-0.25004370739571263","-0.03596495655307234","0.023786798576240817","0.8830833887723357","0.13911266940734077","0.3868429050745538"
"0.037965364629743294","-0.04771789480618223","-0.11792099789534241","0.22617075446626883","0.049473355015741044","-0.036946691665243524","0.8751700623689376","0.14179078032773476","0.3982833178593664"
"-0.04805772868846664","0.014734989377587117","-0.06475108086076715","0.038096657468048","0.053620938812171004","-0.1485493610536184","0.8576158523895695","0.18519464696860286","0.40228746233405077"
"-0.01537964052214457","-0.012485639028564392","-0.016651357895715372","-0.004891074896094272","-0.004371760118258064","-0.1908547960290055","0.8346281964642065","0.21672511544023657","0.4088738714087357"
"0.0021831469334205648","0.00635783735008306","-0.052962621492604174","0.006616478515970851","-0.01647825327131116","-0.27547294663059013","0.8117519958403003","0.2605247620200791","0.4064713847239251"
"0.006589008201808607","0.024516591213072453","-0.08643003285579284","0.045820797504273696","0.01704178662253703","-0.27280337466679216","0.7766157120561996","0.31474661365958306","0.40454285799734235"
"0.011402142048109258","0.03704663931134787","-0.03466035679031613","0.026185519423901883","0.02716782646252272","-0.3096920054392729","0.7326187318063231","0.37383655854847314","0.40109439071506314"
"0.010832153002898214","0.014225394616995728","0.0014623492837427497","0.025482712216318093","0.008238522064886497","-0.28872373110544175","0.6746062473983159","0.4322800628703716","0.3999993797770882"
"0.00975957226579501","0.023144445516494336","-0.019827715728272247","0.04545687815568921","-0.011583003474878461","-0.2237293613213755","0.6328662370029294","0.48096099536423276","0.39207280806189665"
"0.017315778392173773","0.033641723646409896","-0.03346870629006559","0.02273213661074701","-0.01706197842304184","-0.1899010307728486","0.5916556392894605","0.5182302729509964","0.3808612035327804"
"0.013757198136937284","0.02568618701500051","-0.035153952058184196","0.01543256914786988","0.003655597534139958","-0.1726604496539208","0.5518939604949235","0.5517660264467674","0.3730326924986015"
"0.011501312439421305","0.015250193212184198","-0.04018697158870507","0.005576516398666726","0.0020193003375910987","-0.17743412970191222","0.5099867671473524","0.5818584944734605","0.3703687106644237"
"0.011853704315345697","-0.0003836463743161058","-0.04974289336454425","0.02729171871364678","0.01119855186259255","-0.187726543064155","0.4671600675627673","0.6118981918416238","0.3703850541112592"
"0.0024594760820279495","0.009081769882033443","-0.05140748661099473","0.046534194957451216","0.019253193101418327","-0.197676765838311","0.41561199063922577","0.6481780195809511","0.35556154783150923"
"-0.0038161803312922373","0.031371087391512266","-0.03344392326406384","0.052202864598894186","0.004176139643616887","-0.17089367839060723","0.3624199480192041","0.685671572466467","0.34443166053657015"
"-0.021358748580861724","0.06876906896577309","-0.0008170695327676692","0.05375192870437681","-0.03513208917790925","-0.07202486726954854","0.33422175675075844","0.7092600568293461","0.32025970266694476"
"-0.030467019472240807","0.056820702616236306","0.032900237342605256","0.09508084350870144","-0.14543675714886192","0.08628317706727318","0.3511629625721171","0.7160806644443397","0.2806758744314934"
"-0.017536355828348504","0.023599403741400633","0.004867537056382397","0.11611884775544254","-0.20624564872398757","0.27540536251713355","0.4204881600779392","0.6969381080626073","0.20212926894033748"
"-0.024796013600124234","-0.004516495199104154","-0.04790481893608156","0.12904857487578544","-0.11388592207192233","0.4093207997556524","0.5279589345071819","0.6465948998250532","0.12510260400487816"
"-0.03520409059122445","0.00835331736347914","-0.04079002522141417","0.06846274258366494","-0.02633600451142392","0.4213338735927431","0.6238662214103329","0.5851170826376837","0.07635337078410834"
"-0.013396232695903443","-0.011480160577173312","-0.046779256505169016","-0.005721061325762745","-0.026336243841129425","0.48545213839596296","0.7273524688125128","0.50602705816595","0.06517772183803003"
"0.0017181051955203485","-0.01654390794342488","-0.05262392013724701","-0.05653488890871033","-0.013540959795628237","0.4364533584422533","0.8170182588341106","0.41972064614024807","0.07303728542119624"
"0.015046413223994016","-0.019701608865148938","-0.042436031198363346","-0.09519217357461714","0.009356670449013494","0.3847607376887113","0.8788480873169963","0.33998418110152256","0.09806073687094838"
"0.026818805210134855","-0.028394634856566243","-0.03261575714517223","-0.0898469877985826","0.005369676884978474","0.3211035807701475","0.9267738669432073","0.2658545985316022","0.11956217552766177"
"0.03349210600803639","-0.0200838568714629","-0.008176802154418957","-0.039592421457943824","0.03328270043821724","0.16609852501762487","0.9469751403321627","0.21675150076950156","0.12962973877829684"
"0.03390900677928028","0.0023852626214206753","0.012087782546687202","-0.0062214022925864395","0.03271070244205638","0.06771023685004983","0.9613250103946619","0.19324217239441738","0.14280255692766672"
"0.02676392450814663","0.020985990741710592","0.004148416251898455","0.036226997745955225","-0.025952358993496783","-0.02083339798011945","0.9627739293135942","0.19358518167486188","0.14221419284159065"
"0.02337768891353983","0.05203533151545252","-0.06407780865438643","0.09742225053451484","0.05962572112333246","-0.001259853653192561","0.9548048752594683","0.20423166203327547","0.1398770799441218"
"0.008915179710642847","0.10372294847792314","-0.04265701318021224","-0.030824660855936166","0.06359380764063247","-0.02454046268439342","0.9514054885650507","0.20603905708792558","0.15687426465298618"
"0.011826745374018142","0.09888252535449085","-0.03105649175922916","-0.12657107126883427","0.06871546333847443","-0.0176871860766034","0.943436434510925","0.20144800979582161","0.1806539797985608"
"0.013425988286341683","0.0410467400513345","-0.007004771549753139","-0.11234163218926109","0.09011153901076754","-0.045850927606311404","0.9357181548850759","0.19818942163159836","0.2198455653099615"
"-0.029812302325714617","0.1215566876638048","0.06470305545934343","-0.06825347703297048","-0.11164579602838023","0.009941184930182935","0.938337354469299","0.17416557933584734","0.2527122368960444"
"0.045343449179493615","-0.05794095154026386","-0.0559221278476458","-0.07088082068981454","0.14682071273056455","-0.06802536309105853","0.9291144282737895","0.17077506452529925","0.26394018487199616"
"-0.007744483210449393","0.003617472308730811","-0.06639708683771632","-0.03360026795109242","0.1038945367508946","-0.18320040514371577","0.90286670478083","0.2009730738690522","0.29358719743149614"
"-0.003979859617923798","-0.025615027071522304","-0.04665121087082667","-0.023826434017680583","0.15562804589320867","-0.20523408137946264","0.866950233886535","0.228624898938736","0.33944690925175897"
"-0.012346759622795297","-0.014336633450443427","-0.01915031301755791","0.04648605747747973","0.042583052794205045","-0.24834038794398913","0.8305600779610517","0.2783612446031958","0.35564326506568644"
"-0.003931718651267452","-0.005524051085312159","-0.0448337889640321","0.046438882747107654","0.03150208742924788","-0.27195396540558375","0.7895166631997671","0.33242478426711","0.3604318949884722"
"0.0028080166806198265","0.02506191785251493","-0.056849426070544384","0.0776406345150297","0.02669156034856452","-0.2748419568936924","0.7446559043636041","0.39027461868054664","0.34905685599100156"
"0.0083490419427643","0.01135676875004661","-0.04713034937352705","0.09059539312495778","0.009728588811370804","-0.2776086042016285","0.6943059719307179","0.4516732798801211","0.3300167404277064"
"0.006191363817227243","0.014434800046541638","-0.03390653974942974","0.08596167930290191","-0.007072117185489418","-0.2708375989479955","0.6366278534270796","0.5096286556106178","0.3064168031973216"
"0.010600113543614658","0.02473264443403252","-0.03280782559668575","0.041968836356954864","-0.004443080370499041","-0.2536552630355505","0.5836587214099708","0.5629270207258479","0.28922349712643186"
"0.014754678966056605","0.026092325521709096","-0.04130840351528399","0.012667552298307348","-0.002692144245012504","-0.20911224137778003","0.5264821517628857","0.6033097671658774","0.28152573366693656"
"0.012226315397265755","0.015240844755508043","-0.03411306496611093","0.015001257327325308","0.015056307385653991","-0.15849230317696406","0.4825966268144653","0.6334813911803655","0.2827678356264305"
"0.009220393439244018","0.012422908298091864","-0.03377023310642014","0.023625568239017913","0.033821192275607155","-0.14380723049247188","0.44553773908024374","0.6572281875188343","0.277113003021366"
"0.0029716959672513865","0.025717348537254367","-0.0349990581456733","0.009768809529384012","0.01793209312702171","-0.14985017066506906","0.4085345789967504","0.6834024341496799","0.2785512263428853"
"0.005050422907472046","0.017496938966687203","-0.010722018924798082","0.012034063061882507","0.008459902042480136","-0.0972644567454564","0.368633581075393","0.7022283665802328","0.27825704429984727"
"0.005884224449959823","0.027742847483754992","0.00819168433399634","0.08640550686823907","-0.0376737706503897","-0.05725970742614245","0.3549524428216316","0.7210674916754182","0.25616070417832365"
"0.0004221503731317292","0.049444770298748636","-0.026638917374418262","0.10589444700949753","-0.09618749034970674","0.039211342694705005","0.353977208933889","0.7310543388022075","0.20253785511122363"
"-0.03063069875887237","0.08627768960280621","-0.04959212995636698","0.06836646762372195","-0.14931389837806938","0.20176886022117235","0.3958565384560958","0.7176505915356052","0.14074328262640046"
"-0.03634984559764531","0.005108675794666826","-0.05586017028264144","0.026121977950339513","-0.11428320938306334","0.3742280628497266","0.4894232640286642","0.6724525225047193","0.10397869897006355"
"-0.039353841917000774","-0.01806355151200458","-0.005742695950614318","0.11802509196231364","-0.0648017927695667","0.37879060402421766","0.591098362782179","0.6178480835908735","0.0551624576172684"
"-0.038535445483843044","0.023366731041905175","-0.001459362956646203","0.003422941819702092","-0.06438535908198516","0.4562809974824617","0.6876743814940676","0.5468187772095865","0.023140742232578095"
"-0.019153892308001446","-0.032224385941565126","-0.008559906431362585","-0.060335824327259376","-0.006735380289841583","0.4283475672067214","0.7777581288961272","0.4684411566280067","0.029738591720047843"
"0.00034801328448097083","-0.01669452196765185","-0.05763835239826657","0.03887263364518846","0.027242018671229787","0.423493799999816","0.8543557848219728","0.3869104891992636","0.03452395295346658"
"0.013212242394387546","-0.015548816666118417","-0.05801629354479317","-0.0873149563520821","-0.011695727766172085","0.42361514417998863","0.9135664137206352","0.30506319781934077","0.042390053915366974"
"0.030388939297368862","-0.024086035046266448","-0.03696311295631152","-0.09490334869478818","-0.005612923971015468","0.3203997845251462","0.9580092151763371","0.2318307164444293","0.056715085066635834"
"0.0421613312835097","-0.01643692005035331","-0.020980126437353353","-0.07212373042267849","0.02275458669298039","0.18721969301847355","0.9795200883574037","0.17614447903071973","0.07787984871853902"
"0.03879531489489856","-0.0007530142847651425","-0.004271823357410804","-0.06459791680393533","0.031956813869710485","0.02226805481720013","0.9896903846152917","0.15497025229558498","0.09092682232727597"
"0.029144976718969096","0.0043292949615756394","0.0038221064095421563","-0.007252603388535753","0.0014879883913663707","-0.10296035256275984","0.9851485810809474","0.16751647636107606","0.10702675180487431"
"0.013005236237765297","0.06877010768318155","-0.005843273731138064","-0.03029129757785203","0.012950205977195609","-0.08714920588626564","0.9731392723490304","0.18577512421243214","0.10394601207639266"
"0.0036947732864295708","0.11103448031608618","-0.0500258329113975","-0.08369309235902699","0.10196553932451115","-0.004969830617790672","0.9641113929310696","0.18714716133421033","0.13704966364158952"
"0.018524116655247856","0.07791809189950515","-0.04838395743878195","-0.019650026255353885","0.08937919011191724","0.04018209613608607","0.9634147972969678","0.17820253471338704","0.16123796495805034"
"0.03071629787063196","-0.009980252639354386","-0.0030508462763915428","-0.03151687781792623","0.09822481602744244","-0.1139177320323487","0.9504302546773081","0.1827935820054911","0.19235588773274048"
"-0.08134239303465857","0.1791743423111842","0.007823945533173794","-0.14431454638632643","0.050167411161710286","0.024206892127998474","0.9363032952177217","0.1916062819799895","0.21989459565046784"
"0.002010802272790884","-0.007754281233020619","-0.009095219793000257","-0.21085017120292338","-0.019031422569655936","-0.09097882821251396","0.9296995686064353","0.18721312465737275","0.24723718220616983"
"0.03180428371706519","-0.06520989596467995","-0.10885454088303767","0.127970295324424","0.19238908865902768","-0.1867849122260154","0.9099998440740332","0.20722639690484904","0.27521716318845424"
"-0.010488518309860646","0.020200720380913424","-0.06903028335040164","0.058260485078506806","0.11709117671253043","-0.23911580336726548","0.869680888772215","0.2630841389587808","0.29126642798086266"
"-0.0046249485711187255","0.000439952658853304","0.006868353355589874","-0.06943284529227205","0.06437402248058409","-0.23100273148092318","0.831786086277071","0.3037703166853575","0.31932812619732437"
"-0.004778999664418989","-0.035772644608870835","-0.032875978918190545","-0.0004746536586297166","0.051675188306402074","-0.26210081797556584","0.7873432848213691","0.3426227140280191","0.3494981290555586"
"0.001957847209468916","0.03952294161312095","-0.04653762200165201","0.057377643695829636","-0.006063821136189968","-0.23625208071519133","0.7494763461515893","0.39593427180788165","0.33436409728593514"
"0.005381632758067648","0.0017512295152955558","-0.04103992073359843","0.04407533248050737","0.042992306590621386","-0.26756130608333434","0.6967858523881209","0.44749120519162416","0.33738763495049273"
"0.005322900778746916","0.016061431508192912","-0.031157689115402943","0.040924253041573475","0.018365279893988715","-0.26724581121488555","0.6426185758803563","0.5011457722519314","0.3303762962580862"
"0.006607301769138007","0.019559831739892456","-0.025224219640152035","0.014198324161400811","0.019293879151354453","-0.24666583825760682","0.5872252910565724","0.5451433088012612","0.3225150983302364"
"0.010494203416970722","0.016326304447350688","-0.03558352450888109","0.006573347333916393","0.002827756082792511","-0.254504672296759","0.5263985602867935","0.5863308077838721","0.3274344758277058"
"0.01336051657168908","0.01728400189795252","-0.040420345083554826","0.008363869038936031","0.011863170454784475","-0.22254261523928714","0.47348515592041235","0.6282439033212697","0.32797380957327554"
"0.013471240794998639","0.02737929639079334","-0.026029667985208723","0.014614231988354506","0.023472575809500292","-0.1673674165147905","0.4238039552962641","0.658204444701638","0.32635580833656636"
"0.012156992405280636","0.02918770339892544","-0.03677930551346525","0.0021544229474933204","0.03703539022056126","-0.11930055986480673","0.38014134095075647","0.6827559935826885","0.32844776953150345"
"0.00614226003123779","0.024869755131949486","-0.03269217147534427","-0.00018178523048315582","0.03755473568151065","-0.08590421459769441","0.348292988559617","0.6948008963921449","0.33902197963403735"
"0.004756763010868387","0.020748124455172826","-0.001602071881372915","0.0186712588003519","0.0021645734688336264","-0.036041464081155675","0.32834248959893847","0.7053682207627637","0.33637434124669496"
"-0.022302311527325935","0.05166658683544856","-0.018483236567677627","0.08642283636102881","-0.07395136741108535","0.014559301739193037","0.3283703534243024","0.7152363339078608","0.3138367280606143"
"-0.026336524533127043","0.08913208504125941","0.009769185896572361","0.045811170008279396","-0.1528487981284024","0.19621615053647262","0.370166091470417","0.7083761482989699","0.2649534785757939"
"-0.0285124962259935","0.007141861249990072","-0.043751596828622605","0.06781288660404979","-0.16419541946647195","0.41584911664894014","0.47331797296822803","0.6631648866034515","0.21510596572768204"
"-0.045082616949104974","-0.02568358242048079","-0.023324187646684987","0.20554865804648145","-0.056571244197193546","0.4177906235317022","0.5880054781667664","0.6041409050377238","0.1410047777757676"
"-0.02857989357931239","0.012539867878284667","-0.018049533612647103","0.10035863681277589","0.004476259094322208","0.44237495443467784","0.68488799895766","0.5415680966858583","0.08436656276752777"
"-0.01610175502198965","-0.011077138222690108","-0.021488178470389106","-0.06794347166195405","0.004621292895859229","0.41436871765083394","0.7685909303513453","0.46600051367099743","0.08640785927727504"
