"AccX","AccY","AccZ","GyroX","GyroY","GyroZ","MagX","MagY","MagZ"
"-0.006059549377477565","0.010906796368700932","0.03658671246036469","-0.014821837014213187","-0.020485589860314245","0.16873897437818142","0.7411729261930943","-0.4591614790111177","0.48026204718596593"
"-0.000721678994622858","0.04561294177893284","-0.08257627231252163","-0.003900501833240898","0.048695533472844485","0.23136713264888126","0.7085443866917611","-0.4901642408974521","0.4906074490328036"
"-0.0012069399385187406","-0.000472145097517056","-0.036103968054917716","-0.11357395167653128","0.13855665799942044","0.22963919152322296","0.6543492463586326","-0.546351799567196","0.4977658787467291"
"0.009363853519879914","-0.014612932281094284","-0.0547697171385647","-0.0929393395119513","0.07833173090573099","0.21450514537209203","0.6018816631980763","-0.6039245880233506","0.4863908397492584"
"0.009593004521164078","-0.007173638201690439","-0.05055660271826819","-0.10975183576679477","0.13012507247442173","0.21714559473264852","0.5515874584159188","-0.6609037065710434","0.46352635762646865"
"0.006855709157084712","-0.02060321557569383","0.00649805364208048","-0.05125324460623817","0.047695135303826755","0.19827900159940742","0.4948567099746591","-0.7104685475952808","0.4541942494834289"
"0.013760086594936676","-0.025403128720196084","-0.019344446721238234","-0.005354446278299859","-0.01090402510035614","0.15493486044174257","0.4559866735917725","-0.7410755295426407","0.4485230734315288"
"0.008748611966011914","0.000709915313312541","-0.03095529440305537","-0.0022390848495048047","0.04244663486206625","0.13818693669431562","0.4112095062317016","-0.7635954080702887","0.45824742429861953"
"0.004576715795573675","0.005525513090682571","-0.022134602398601263","-0.03173445922739738","0.02451844662256428","0.15497369057939783","0.3746800311793976","-0.7863527545613214","0.4589338490657082"
"0.00512841127345532","-0.011940312389121917","-0.017888443943635767","-0.0315804192914886","0.052165814202690675","0.16482926489301913","0.3236892307631378","-0.8181602689902373","0.45076212564798496"
"0.0040336856916901856","-0.020937682581218548","-0.01627961250568921","-0.023501987402672724","0.008070033952209827","0.1223563749489938","0.2784105145465137","-0.8426326618834926","0.44965077126317476"
"0.006862448892416601","-0.014225490687738008","-0.0027222646566517497","-0.03529278174689011","0.0266149748428024","0.0702754528188993","0.249292817041054","-0.8602844471617546","0.4419856946973502"
"-0.004259077224530556","-0.014397917777542676","-0.04924723284450937","-0.08707041795382692","0.018080477544435817","0.058806000908981935","0.22753116943171006","-0.8803109120738634","0.41737246376316783"
"-0.01692015145514738","-0.05759609736065452","0.022714207130671724","-0.06843928770566043","-0.053806986098591914","0.0035211070456092172","0.22034230248777828","-0.8981869726508773","0.38084486008594504"
"-0.008996148343514181","-0.013618879721196282","0.006578185426152786","-0.04237476780029609","-0.17424966039480566","-0.15080636280482942","0.2607727130910532","-0.8915774476700036","0.343581801301127"
"-0.012433413362776691","0.012001604517219731","-0.038450094516416164","-0.0031527342193637324","-0.17395528485703246","-0.3275295999246501","0.3472620270211462","-0.8591630706679936","0.3080511478808663"
"-0.032325260785175475","0.015772668068640514","-0.0079917555602726","0.04074999536407667","-0.1557016082180415","-0.32041883096653373","0.45941392411155374","-0.8012868509252918","0.28621630290870975"
"-0.03808292039727346","0.022623009377446483","-0.005078717378984256","0.043154943863452436","-0.12497167403098963","-0.30964346776720386","0.5471571101830307","-0.7472760819199076","0.2778321146821257"
"-0.016737215781853297","0.029226135943038526","-0.02678968078259554","0.04378554485107899","-0.06678104943410657","-0.3744655288154249","0.6270426975018376","-0.6880014397261628","0.2765082954884545"
"-0.005347063070963784","0.02343217023863827","-0.029185373296097477","0.024404432664956663","-0.02119544176684692","-0.37723217612336096","0.7077363357562025","-0.6178560418752522","0.27850219600237897"
"0.0075614557282666205","0.02554284401263277","-0.031174211132737446","0.06306171733086346","-0.004361708270626785","-0.3533759103014211","0.7721853638233118","-0.5480272679755213","0.290874185256812"
"0.02357121559949831","0.027017822732648616","-0.03367110100241317","0.06319361402598536","0.005658069180113965","-0.3082601441132358","0.8222566580025567","-0.4792934852402863","0.30865585541377777"
"0.03050736607534345","0.034267031526303934","-0.028753735593233763","0.05729677272947752","0.03989298690431047","-0.22159370375033716","0.8514858108094727","-0.42373917447290166","0.3288563557023896"
"0.030001885925451905","0.023652378329232185","0.008499427559373","0.03815345969441436","0.01285926068910309","-0.08422481114410516","0.8580895374207591","-0.39483404626313195","0.342339699341633"
"0.021889170224525866","0.0002621242385246333","0.009622614950293712","0.04888041573126177","0.05286465694277004","0.03089683946927613","0.8573372141359288","-0.3845701531790604","0.35923882336948465"
"0.012032788711307266","-0.03415224545167034","0.01972413504356129","0.016247055308987537","-0.05141129574647051","0.029879975239429455","0.8562783887720941","-0.38992637501984845","0.3580947820910034"
"0.004871338511510477","-0.08057252643583088","-0.033074243126204494","-0.01788338074040011","0.0921266951311334","-0.009647891451806055","0.8491173856535262","-0.3903485402880879","0.3669529302758155"
"0.00633097262053064","-0.07776591199816692","-0.00045978090790918904","0.032719700955232286","0.08583711047041905","-0.02406722038172015","0.8406467827428472","-0.3880134386481385","0.3891309876315163"
"0.020709716541445593","-0.009618778981209658","-0.015151984822609852","0.06877371070428077","0.0658171806047891","0.056563560459391655","0.8264919594578964","-0.3812324090270423","0.41861456572266176"
"-0.053680593593926886","-0.0152932921836368","0.07189426350418286","0.10720378646472212","0.04061576261494051","0.21330869175558984","0.7996590956322905","-0.39863353367728704","0.450288165689757"
"-0.04051885331008415","-0.08052059056540778","0.06801158943057628","0.2620524320370194","-0.14931629167512447","0.10802320038700228","0.7871203742184563","-0.3755067925765448","0.4907381966074872"
"0.04493039968558225","0.11416101971555637","-0.1508927487384962","-0.023901528486436112","-0.04149347275027558","-0.028294851618934715","0.8019717931375091","-0.3534090793171363","0.47338145606824306"
"-0.0017268623784071908","0.006947932709830242","-0.107192012888754","-0.08884861646397384","0.08219690564966314","0.20713955363561315","0.7806281029086266","-0.39652270733608985","0.47393713326064824"
"-0.01656390830189049","-0.020539853813777657","0.037732927412945365","-0.04882807836527437","0.0588837990362619","0.15997792456971724","0.7349871569622696","-0.44224848295227487","0.5008874770922995"
"-0.0010047478785621144","0.04287176653800198","-0.06686796433174946","0.06682895651343247","0.05766800413228819","0.197633450560889","0.7089344802468579","-0.4623672965168111","0.5148774675834418"
"-0.0032673733114099834","0.019727065242654815","-0.04640544586297604","-0.10966518830284609","0.11107682121314871","0.22547951302690503","0.660367832637273","-0.5093463752730819","0.5261217590062287"
"0.0012212904196269377","-0.01553739077462534","-0.035017645415174596","-0.09520276382021085","0.028283102890183643","0.2309594162035012","0.6136959251524449","-0.5682516228571173","0.5178029445669866"
"0.0028282358866154925","-0.005554173890157553","-0.02534193901366032","-0.10660364457665916","-0.062181132494269056","0.2606741790441758","0.568472936586549","-0.6269062098131354","0.4979946870024254"
"0.00686437453108285","-0.016576108183087197","0.010530458497780936","-0.07978144073654352","0.10417933910044751","0.21551715583473177","0.501376845109853","-0.6833180437816314","0.4783825507998896"
"0.009359039423214274","-0.029820793858384376","-0.009193938846573874","0.00969939528326512","0.0018488975872703757","0.1837395419311224","0.46030556652320415","-0.7186611923320526","0.4803110775264724"
"0.009830820896446378","0.0003897826080245956","-0.0284501435247124","0.0035167136306865597","0.07505291394029011","0.1576772389136441","0.41276988045209023","-0.7432259338777354","0.49336949154799403"
"0.004210844448985523","0.0003984039625148296","-0.017239954763256796","-0.02467461641477828","0.04635967554709972","0.17133088606666888","0.36339518190694664","-0.7720782914289751","0.49604981682900723"
"0.008157440895472079","-0.010474682125782231","-0.022091232103098213","-0.035096380828606416","0.0372101009055811","0.17020238519106337","0.315748040534376","-0.8022103374495656","0.4891528822644488"
"0.009007610366623005","-0.020563744314172277","-0.02211394987693314","-0.009151241873571362","0.0452228594459432","0.13036266395678417","0.26996777546119866","-0.8283581987511465","0.4895287815416642"
"0.0023766736193790534","-0.018825970089815586","-0.020802514751007514","-0.028760525714758563","0.030075682384428332","0.08787278582753467","0.23137637733195274","-0.8442817449625531","0.4927484405682472"
"-0.007340099090536175","-0.0001296799679471807","-0.0367875665221325","-0.06649742176361043","0.024331769452269107","0.09298622958000949","0.20504506236290065","-0.8640839345759095","0.4805725726758394"
"-0.012664490002727121","-0.054666914268792076","0.021187572728964283","-0.06949253576743669","-0.026633730665074174","0.04492908046443952","0.17542581600088739","-0.8911420897371317","0.4517917627986181"
"-0.0159091911553643","-0.020427672333663778","0.0599694974930103","-0.06291791875293024","-0.18057275121429092","-0.15765260145016943","0.2191998856478514","-0.8952713937670987","0.3956029925783531"
"-0.00816812371702517","0.027373064086342568","-0.05641365786334705","-0.04073231698366876","-0.22191935113761704","-0.3268015348436143","0.3161102702641089","-0.8597303552471902","0.3493183511403687"
"-0.031044711072116864","0.005239242572910483","-0.02188470688641701","-0.014156577041007156","-0.11825129590036335","-0.30995896263565265","0.42285658523388575","-0.8177908743805277","0.3028539317871943"
"-0.03434718138474165","0.00567124514308977","0.006688469891860548","0.0508424994148998","-0.1527004137109883","-0.32524832933740455","0.509401626814707","-0.7651389498322891","0.29615311858466115"
"-0.016506139141902864","0.03728346688047718","-0.02103175774152365","0.05605578849581245","-0.0729222496774068","-0.3972054281797765","0.5958352130940722","-0.7002970031636366","0.29397944015554683"
"-0.006146203117458993","0.021947843061946273","-0.02135600233171314","0.00971008180381879","-0.01886867836991142","-0.4254058156518966","0.6882037941759854","-0.6244391815268611","0.2989968783340288"
"0.006062346026588268","0.030014522456061083","-0.01115159137549498","0.024477601634513336","-0.0076039077911251585","-0.35796272031194665","0.7562193918896957","-0.5552040775355919","0.3024453456163081"
"0.02349611569151442","0.02585965282221364","-0.03645712617544257","0.02182907748648181","0.021682389612310664","-0.3030666132018471","0.8080461070668776","-0.491443929366803","0.312839777803652"
"0.031004180851236855","0.029297807444222394","-0.02829938011653512","-0.0019792387326186874","0.031746203728864636","-0.23664766274255414","0.8399780509341093","-0.44182631768403546","0.3242311602479583"
"0.034241179449209","0.01971148448152789","-0.012345307127912325","0.0010713296481347381","0.05225436619372813","-0.15511650808456137","0.8586468139280405","-0.4076573162859052","0.3323865402188461"
"0.020432424573505085","-0.008102251564855343","0.005514580560244601","0.020892322126236564","0.03316782217957404","0.012741565920206983","0.8599842775455161","-0.3901902283124981","0.3502172407163182"
"0.01771631123475451","-0.03133835999214715","-0.012570419614094835","0.020853812142259374","-0.03497891816638501","0.05579909212430407","0.8532133679820457","-0.40350162692667313","0.3462784700289756"
"0.007816602851545215","-0.09259048685173459","-0.005390157405739509","-0.017205605022401496","0.08278565672520946","0.017491462508884566","0.8449935394996431","-0.4096098306515127","0.35400892038214177"
"0.006228913771219201","-0.09148321409431424","-0.012845098152280831","0.1151079606760412","0.09651600193012506","-0.022730978269659103","0.8374145790006142","-0.39681294595800437","0.388934866269491"
"0.019691053686997483","-0.008662120248016283","-0.030577353256528772","0.107973986144266","0.08874257309526959","0.11048891412811021","0.8177427182935767","-0.3899527603491134","0.4289926544631704"
"-0.07679788578230028","-0.04313818975227388","0.08636342018486783","0.15177909291832423","0.07950444646271351","0.16661787810876375","0.7833308939689424","-0.4014567639086383","0.47650305441381324"
"-0.030678839725528696","-0.043304384537627784","0.0047392848968233715","0.3250836483116917","-0.157561200029828","0.16032739580861444","0.7766435758815639","-0.36070462285889926","0.5129162539631882"
"0.07249591719300123","0.1456237700178661","-0.21540090016886942","-0.026035944348372086","0.07088379047036454","0.021742149140331932","0.7999934615366597","-0.34793412349465597","0.49570660444546294"
"-0.009333135110108531","-0.004287458010538314","-0.14143182856233036","-0.06329531659590674","0.20457815056048062","0.2720077254722998","0.7557178430331425","-0.3954541015008587","0.5128835670695171"
"-0.01566848632208261","-0.001648180947377574","0.05270600562233245","-0.04997663863739418","0.04861655467002728","0.20489468630241944","0.696535077959844","-0.45315881660333807","0.5436255905669921"
"-0.0007534520326160354","0.023464370478300592","-0.06508152120745707","0.013833442063216898","0.0922678996573823","0.2355340917960095","0.6573864033233168","-0.4885679284769217","0.5556216805442097"
"0.0035493875671274446","0.01151901640924835","-0.07856348735240588","-0.07819482939668311","0.14289331226320068","0.2366261894175632","0.6011293399132467","-0.5420641835616391","0.5580895410163623"
"0.002375710800045929","-0.01525382092211525","-0.02707675083378241","-0.12100637858412973","0.0177334494714512","0.24091934651207098","0.5426431704740501","-0.603581578742906","0.5554745895226908"
"0.011033382243521697","-0.011097912570859347","-0.032446406467493645","-0.1270717010605378","0.03816502643055257","0.19599287724495498","0.49669572244868815","-0.6640039827596768","0.5233597164910385"
"0.009010498824622397","-0.020130599154843686","-0.008197867726520439","-0.06253281891315829","0.0646995108800731","0.18483406643627956","0.44564919438170014","-0.7143471909972308","0.5047281870986294"
"0.009605521172494729","-0.009745502505042004","-0.003493223290522674","0.006955655199849987","0.04783873312713073","0.16802789748236976","0.39839214656422667","-0.7417087774449999","0.5105464541720484"
"0.003840159005731714","-0.0044218680431932795","-0.014317622947217794","-0.023543385635448204","0.04925317168667493","0.18606692330683353","0.3465375675616804","-0.7711152269108039","0.5165281557138217"
"0.0062780175572086545","-0.012029642086249636","-0.018588564428185038","-0.02866521350441501","0.04930821751894146","0.17049118433987426","0.290169048850154","-0.8001654744315307","0.5176231666517966"
"0.012182025707941925","-0.01623644759052017","-0.025337808509326695","-0.02478436986911328","0.061521212390945","0.14853516837943787","0.24118444386010754","-0.8288331346779158","0.5148611241366062"
"0.007292829134324267","-0.010652302802629209","-0.010368654279056547","-0.044819189033248476","0.044758559817260346","0.13367293319189363","0.19991811849591043","-0.8571314003145912","0.5138968607733149"
"0.0021041957481041837","-0.00821858791460307","-0.011932256694549922","-0.09345826154604399","0.006122129479091332","0.12059931122009405","0.1564505509279511","-0.8854824366097966","0.49157171239609493"
"-0.019173148694663987","-0.05942008512991355","0.003527601450554763","-0.07651868234407574","-0.05110974031753216","-0.009990082039892883","0.14391182951411685","-0.910007600161582","0.4448457978935534"
"-0.030524788632228433","-0.0384234514352655","0.00785595694175938","-0.08356215841350453","-0.27388022350016245","-0.20977963436872954","0.20691193866229365","-0.9011949001870835","0.3932985665745552"
"-0.030332224765603086","0.003996500291078544","-0.027078816085949222","-0.00402508163140712","-0.17717905599020684","-0.36594716736730604","0.30220622140743497","-0.8693214224350053","0.34454606466441823"
"-0.03304737528502053","0.019502702282427058","-0.013365541698317461","0.0399124032125727","-0.12353569579794982","-0.44926208147383645","0.4337234771258756","-0.800033547785206","0.334102602136568"
"-0.03842953535719909","0.030062303456850327","-0.0031691852255498693","0.0024566300467543504","-0.11644914321789838","-0.40106417310926623","0.5499156288940741","-0.7352311791104509","0.3086231685201069"
"-0.015360384135482047","0.03254379934566571","-0.024532360164270014","0.0452306319998232","-0.05605189873624416","-0.4815396333997571","0.6491387110155502","-0.6577506597238799","0.30515835779099215"
"-0.005270037524313652","0.03289280839490889","-0.031258886471576736","0.020381102088939316","-0.06999046078495054","-0.49872196931220214","0.7472751039478274","-0.5668927783999715","0.3017752642960548"
"0.015441169150575989","0.04288734729912891","-0.038784665367439713","0.06010415056141497","0.013030860087951344","-0.413028709274288","0.820807739083625","-0.47823807206968766","0.3105516952466896"
"0.03635938198208787","0.04916016172883009","-0.04817330171776712","0.05104563958037949","0.02456391926661054","-0.22305468767961567","0.8541050103936964","-0.4139238319863344","0.32771231442390836"
"0.04473783581895689","0.050466868228675105","-0.021023496732856403","0.03188788530132489","0.005351966486770982","-0.04579510928343199","0.8650276299364138","-0.38748573206283915","0.3379923424834042"
"0.03890026220220937","-0.007000172394477308","0.02781558650791408","0.012175587252998697","0.08693802711574956","-0.022382720472563643","0.8576158523895695","-0.3836070886608892","0.3544992237872052"
"-0.004875281597731662","-0.07519612512963228","0.1102377352332147","0.13664466921528698","-0.12095811486964335","0.0960829330580151","0.8540492827429679","-0.3760081138325792","0.36827674946948663"
"0.009496722587851404","-0.07301170241963699","-0.02620108391505412","0.18245229515615927","-0.15843236015787215","0.13135768623419977","0.8606530093542543","-0.3754144439241175","0.3577188828137882"
"0.02916712156363101","-0.036566224708935696","-0.028225031038529892","-0.03498085087667483","0.13018969149490853","0.043526341741643874","0.8442412162148127","-0.3813247576794697","0.3807631428517677"
"-0.07444860660947099","-0.004596268696074025","0.04469902297160228","0.02863282890565257","0.09004213339617062","0.18143157562423892","0.8228975259859309","-0.39500555090335426","0.4114234491150654"
"-0.036956421777515146","-0.10363724649072649","0.049537908798442824","0.19218569360639506","-0.04628246015746334","-0.02629752641329316","0.8218108367967313","-0.38268360213661545","0.41990569802266214"
"0.035203998782335766","0.16803929169247306","-0.14907326157953482","0.08320243895093594","0.1155283537355721","0.09070738587636741","0.8319811330546193","-0.35627188754238504","0.4328987382568421"
"-0.010864017849780095","0.030434164289079673","-0.11692967685527264","-0.10744123672816312","0.05623920579041358","0.2646785369898727","0.7887086122642089","-0.41110060175498325","0.444829454446718"
"-0.01433979564236767","-0.026003507382287044","0.04614469948837069","-0.042828222861627546","0.07018734102734024","0.2078554842986317","0.7405599220350846","-0.4625388011570333","0.4706030701062171"
"0.0019395536421394992","0.03521953538986346","-0.05134759429815718","-0.0040716787120195245","0.04096279068792513","0.22164746381705325","0.706426735964091","-0.4957447380369923","0.4828606552328021"
"-0.0003432909967040358","0.005439922776225315","-0.051589228801674186","-0.14295706945113032","0.12624314465110412","0.24861256753501593","0.6516185914729529","-0.558898023632687","0.47761440879862366"
"0.0032451366578593807","-0.01808536457758228","-0.007161730714430853","-0.12785152823607598","0.05789536735251949","0.22652307297638968","0.5972005405369115","-0.6231463003928779","0.4604864765150756"
"0.016640842039651917","-0.018553826128798582","-0.04431541067016228","-0.1263785213489483","0.019693559759550533","0.19580600720748914","0.5536772453182243","-0.6792283177455618","0.42874750276063855"
"0.007916736062190403","-0.026167624732824017","-0.013206517281472934","-0.04362152853155775","0.06125316312077758","0.17483287910645107","0.49973287941337224","-0.7215767712158312","0.4174214941036742"
"0.005560717154029234","-0.014383375733824212","-0.0016592793663936065","0.010031736444988304","0.041386404266671874","0.14299216622915192","0.4572962733838843","-0.746603256023651","0.42534806581886575"
"0.0051544073954497335","0.007840918065884904","-0.020835558785676507","-0.00960277143570396","0.06520449655869211","0.18386573987850197","0.41109805093024554","-0.7728302733130266","0.43722975166823536"
"-0.0030651812514533743","0.009272270654745347","-0.017116039633248075","-0.04490005999960059","0.04450487032942332","0.2132310314802794","0.35052209458874317","-0.8082393851866103","0.4348272649834248"
"0.002598122065998204","-0.01481236602351896","-0.013954138565858884","-0.036930418815520276","0.03775098604002609","0.21704609250490695","0.28846935550294533","-0.8474743698036139","0.4280937648872208"
"0.005838009121969727","-0.021991980750807338","0.0009321990525221068","-0.04845741976949387","0.0071703935892103885","0.18571259830072942","0.2251906081011278","-0.8808386186591626","0.41577080597329413"
"0.008644627478034227","-0.03182136358708192","0.023347206919799607","-0.06857792364797834","-0.015926837629823873","0.10400428113968463","0.1894691839843817","-0.9091632696251031","0.3954559015568341"
"0.0033548980618358314","-0.03730994637339439","-0.01636222259236169","-0.09711093352628083","-0.040019201764354716","-0.017750042361932825","0.18038557691569299","-0.9263401189765955","0.3519659895277109"
"-0.02132986400086792","-0.05325737474550933","-0.009474606616043628","-0.04303328852630611","-0.13869244604768496","-0.14774606258087558","0.21861474531520567","-0.9242029073061333","0.3074464403479547"
"-0.007734855017118131","-0.013590834351167813","-0.061523091724039976","0.06950154940144974","0.023510868562381354","-0.2467629136017449","0.29281611225974125","-0.8909178144383795","0.28588943397200084"
"-0.04573733409563116","0.0182541639574559","-0.01738039191060001","0.052996170268824375","-0.19955877675213224","-0.3794649090385374","0.40176366943328","-0.8355350083112171","0.2872622835061783"
"-0.039681200490263864","0.01721129167936019","-0.015005351918766197","0.06899899411054736","-0.14412762365974063","-0.3691506537238635","0.509095124735702","-0.7693869878439488","0.2802019144732654"
"-0.0226392982939203","0.03473029949047792","-0.011519206261187518","0.09885674743766532","-0.017133059345577312","-0.36473372556557965","0.5921014604952856","-0.7016822329500473","0.30069659680491534"
"-0.005838100930858414","0.041150611792180686","-0.048819725645979285","0.06351517239219492","-0.07144558539443087","-0.42106169400171634","0.6813771569617865","-0.6188718770519535","0.31993283373023584"
"0.007332304726982457","0.025648793188295882","-0.051048132733969444","0.06830485164935844","-0.02181195508823201","-0.4250660519474132","0.7643556288960062","-0.5380140355194669","0.3250810194834015"
"0.01802922751802071","0.036663352587625445","-0.03594907414240682","0.09768219292636089","0.023994314567504754","-0.3214623909160184","0.8157922505180912","-0.45859419443192095","0.35038067518467264"
"0.03028014071272554","0.031323306390723026","-0.034916448059000814","0.06906734933210688","0.06529544184678464","-0.2232415577170815","0.8421514293125073","-0.39836968038463744","0.374405542032779"
"0.026984410135432655","0.03593625040170215","-0.0013846008282076092","0.022315266034193884","0.06605411701324065","-0.0999825663813234","0.8465260498946675","-0.36369935773047285","0.40048968318215167"
"0.02206825462048744","0.02211403784730017","0.020266470262566127","0.011059760467259497","0.014046096698710486","0.005609683074740592","0.8425693866929683","-0.3530924553659567","0.41439795643911653"
"0.022702752561017975","-0.01173049147261262","-0.05948468783539652","-0.1329733561050428","-0.002708897324397968","0.04635123425606279","0.8402845530131143","-0.3694513595102353","0.4067819102137985"
"0.009457246995193213","-0.09931929822375052","-0.021872315373416138","-0.15372060997275608","0.20262282686649138","0.034937600669024835","0.8174919438652996","-0.4033697002803483","0.40627526336189973"
"-0.0043361027711806875","-0.11347390034886029","-0.007947352638686142","0.13264925837765307","0.07758980881866043","0.005709427990842497","0.79787581080899","-0.4003353874148773","0.44308070563532526"
"0.02226081848711279","-0.028869328712233317","-0.017944205752139692","0.1235416471670467","0.02014828620001314","0.10640689590710277","0.7813525623680927","-0.39022980630639553","0.47434571943153436"
"-0.07001000948375663","-0.04189796116657043","0.11160493216764425","0.21274039755422242","0.08220887213493847","0.13764816853434914","0.7534887370040163","-0.3874329614043092","0.5139295476669858"
