"AccX","AccY","AccZ","GyroX","GyroY","GyroZ","MagX","MagY","MagZ"
"-0.026846818779684232","0.03602869625105525","-0.014992960405765325","0.11542566804385306","-0.1582169634229162","-0.4190473806108506","0.5265657432389779","-0.6586081829249913","0.4925686626530572"
"-0.005067845464357026","0.048578479980091446","-0.06735329859095028","-0.028392755367776367","-0.1301747018287039","-0.5097885585439463","0.6419219802462541","-0.5712991283872207","0.4753426696884966"
"6.494440054171466e-05","0.012878697496924925","-0.07507114593832678","-0.015328243303513286","-0.08122459716143196","-0.5332565229893337","0.7455475467752545","-0.48025654975845755","0.4450419192555788"
"0.018309407943960593","0.046997552084412496","-0.029493095868952466","0.04510258630309903","-0.054285645509605185","-0.3971568905077074","0.8033928482310774","-0.39483404626313195","0.44711753700368045"
"0.046577783564562124","0.053723247304203046","-0.05280566232792646","-0.014326983720106242","0.03059502784537773","-0.2885295804171655","0.8400059147594735","-0.3322876232405315","0.4434566049125404"
"0.04577864351806691","0.03766986975642499","-0.009421529635356555","-0.01762728934695177","0.004887906187793618","-0.09242282395656831","0.8500368918905412","-0.3027492471284027","0.4469704459821614"
"0.026607947776180092","-0.016799432425906497","0.049440841946602664","0.0001362109622085239","-0.03465342976689598","0.00801108440035702","0.8551638357575311","-0.29735344729371727","0.44610424329988285"
"0.01641554231570027","-0.05350978307576556","-0.04598826492528001","0.08574698614222905","-0.028407403112583843","0.09063215248466037","0.8553588825350797","-0.3031846050612746","0.44058015826950186"
"0.0013531966682653036","-0.1148657816761992","0.03396384220851344","0.005850611209624404","0.031033001206454868","0.03030953363724058","0.8478913773375069","-0.30980732270678096","0.448343295516339"
"0.007893628398195346","-0.06973662643075675","-0.01476371741524919","0.0764410485141401","0.12318451101472933","-0.02626112315924137","0.8301421205805906","-0.29464895104405825","0.4770097012657122"
"0.021199791582007108","0.04524108094670349","-0.009346147931267918","0.043795172347073294","0.10081915003513435","0.20445299348659104","0.8099687110169989","-0.3026832838052403","0.5128508801758463"
"-0.08754294953999486","-0.20742588994423558","0.07266460256240374","0.10689570659290458","0.1537493077049816","-0.15101264791112287","0.79063121621433","-0.302920751768625","0.5365815649809146"
"0.01566550605519451","0.11314307665526376","-0.04651077372348345","0.17627144272781964","-0.17360347018993771","0.10298741690983797","0.8032813929296206","-0.27185202655912816","0.53842837447332"
"0.031212149827192236","0.11498160646824124","-0.12167562633460664","-0.253990980753375","0.2186507372442707","0.14280286930808264","0.800912967773674","-0.3064959638840278","0.5259583245378743"
"-0.03202678679190616","-0.049728851708964385","-0.02782643737033517","-0.04922954494823663","0.3754930664509884","0.278050665644897","0.738470135132779","-0.38806620930666835","0.5490516149163603"
"0.0045613106862436486","0.004782134202968672","0.016365208919458234","0.031037777405028333","0.014119331588595517","0.22393116128790225","0.6839684927206456","-0.4363909398554525","0.5679936697986429"
"0.008165143450137092","0.028979959917233067","-0.07792945493719461","0.0006732326887704947","0.10384427751273823","0.23957727987936167","0.6470210602878804","-0.4648870954616152","0.5941268412885217"
"-0.004374615544505754","0.008253808235748493","0.008964501694817396","-0.13842251883781573","0.12926587883165291","0.22256725270276181","0.5823491216178589","-0.5231063244847615","0.6068256994796637"
"0.008250834370785378","-0.013100559734373813","-0.06072177388331691","-0.18914016773578027","0.050863860604734586","0.16711781613107501","0.5380456392889774","-0.5946897227806126","0.5747271698948467"
"0.01156293287674141","-0.019027481267057188","-0.05230380605139115","-0.10761453165606051","0.1099041056561662","0.20869033225821942","0.49243255716798434","-0.6620514683940693","0.5356009581707878"
"0.00471825023754332","-0.02628084493034636","-0.01125278873166877","-0.028964628629837695","0.04426554062391668","0.18172765542386013","0.4373179105978412","-0.7030542700718255","0.5363527567252183"
"0.011585077721403325","-0.011703484819992612","-0.026504675983575483","0.001316734521029407","0.008865565893313882","0.16913212952194073","0.39385034302988214","-0.7310754897512189","0.5353394630214207"
"0.004699956670213903","0.012613720686026305","-0.025852056298862884","-0.0161995316909973","0.04715903676349189","0.20204309806836251","0.3385406496821904","-0.7605610952048177","0.5458809862302836"
"0.0033905223771615238","0.0016603417420551429","-0.013927290287690325","-0.029088823328164145","0.039356888363975606","0.23590055122013084","0.27707305092903795","-0.7975797121635644","0.5483161598087651"
"0.003781427026410982","-0.02338905566518854","-0.020370877048143807","-0.01199520419028714","0.03954356553427078","0.22637503307657908","0.20805435550222084","-0.8332526773297975","0.545129187675853"
"0.002346826220052125","-0.02075902318696311","-0.011926060938049486","0.034959056523506116","0.06694203022067027","0.15933480041480227","0.14641957379688375","-0.8534506468821286","0.5675033663935795"
"0.004836677015517909","-0.0034391375030475135","0.014171704593087194","-0.04818592438245466","0.03697795109123967","0.0959494544598252","0.10565479728924021","-0.8734639191296047","0.5730764817644666"
"-0.0021890156583080165","-0.01227166324242125","-0.01667201041738349","-0.09434495392711886","0.004807730736448895","0.04956685503063758","0.07876620581290636","-0.9026592859612891","0.531139197184711"
"-0.02469010347348028","-0.06940319814264048","0.02154073084948914","-0.06489829467895744","-0.09376547372997959","-0.09452693204076178","0.08798913200841543","-0.9127912523990359","0.4954941396366022"
"-0.02374654052701607","-0.023004730224057652","0.01642468818186242","0.0302916464654702","-0.20851688762924553","-0.3409259974157089","0.18765803533571662","-0.8854164732866342","0.4539654412277326"
"-0.04258891487630667","0.028552008344946783","-0.04197961046949789","0.010381984749260885","-0.2806532541660002","-0.4930187928440882","0.3435282744223603","-0.8176457550695705","0.42953198820874006"
"-0.04516927068908637","0.026651155487461574","-0.012159434432899244","-0.1198703340568025","-0.15000316792992852","-0.4526597185186702","0.49106722972514466","-0.7548750567482178","0.3648282821872074"
"-0.021378004967524265","0.020305630839168073","-0.0016132242430736995","0.014440937060457133","-0.032054309165093935","-0.45297521338711905","0.6016587525951639","-0.6910885232501639","0.3268787986353006"
"-0.005250781137651111","0.02232489748121793","-0.049298864148679664","0.12725786062084593","-0.016328432875664007","-0.5081868153656675","0.6970087629910334","-0.59472930077451","0.3507729179087234"
"-0.004220564451205473","0.030549461921418938","-0.052456634711735235","0.10687645160091598","0.006723565029029504","-0.4613964994910999","0.7761420270250103","-0.4916418193362902","0.38447310528341405"
"0.019241417058427294","0.04810897971146668","-0.046112180055288735","0.12510130151812307","-0.0023836482546144527","-0.35956446349022547","0.8273557380441829","-0.3993591302320736","0.41016500370873593"
"0.04196876741688434","0.05138197826553","-0.03138899735808589","0.05235594178520353","0.04976294395940407","-0.1987688634598647","0.8506220322231866","-0.33466230287437837","0.4298915440391199"
"0.04269665883272817","0.043696508160320696","0.013636597756666202","0.03501874699867077","0.026114775758293535","-0.042526097069581235","0.8481421517657837","-0.3088178728593447","0.45063137807330145"
"0.03168489411975747","0.005698978897895702","0.034936575979081896","-0.015446661504243156","0.021043379298607952","0.01323300984990615","0.8482257432418762","-0.3091740748044217","0.4541942494834289"
"0.005341194346076333","-0.04866416636529098","0.009937090897734176","-0.02331232573158504","-0.027578604342414364","0.06290743419881696","0.8442412162148127","-0.3229076386868363","0.4479347093454529"
"0.0008708241823687947","-0.13277326979808166","-0.018132143699319585","-0.04686406918243748","0.052900556398596046","0.00928592635725071","0.8271885550919983","-0.3322876232405315","0.46208813430494955"
"0.006558197983148537","-0.08948679923525055","-0.029879298024146312","0.07379252436610859","0.1383771607202905","-0.05991471808831968","0.8136467359650572","-0.3179208114557578","0.48665233489862564"
"0.026664754116834576","0.03934220478404859","-0.023369623194354847","0.1125663017335464","0.06708084144986412","0.16027643125294191","0.7956467047798638","-0.30802631298139577","0.5265303451771151"
"-0.0755462206492355","-0.1488837768033251","0.10056202883170041","0.14656099008941442","0.12436440646287705","-0.025207855675342904","0.7768664864844764","-0.3118126077309183","0.5541344268821841"
"0.009696989009141763","0.07654283005070164","-0.040752850682411565","0.255332439832999","-0.21090539809020178","0.16139765147773708","0.7735785550915155","-0.26637707073664785","0.5786169102416829"
"0.04667213985920854","0.13267096393434671","-0.12148355788309313","-0.1910271569506628","0.25135274820469716","0.05990780606494945","0.7779531756736751","-0.2828810941918837","0.5667025374986424"
"-0.02784815088613605","-0.03600323987354937","-0.080199167068521","-0.10091379444402876","0.3169051545429643","0.28821930794336365","0.7238137629912751","-0.3662059640106445","0.5807742452239618"
"-0.0006523560026377223","-0.002908768394286888","-0.0070022932471529645","-0.012542045962763298","-0.0009412081195259674","0.21757758001406313","0.6714576351321753","-0.43110068133782703","0.5990625622328265"
"0.001115380292983002","0.03534625891369581","-0.060411986058295106","0.02770473829180219","0.12017374331945585","0.26945949768867444","0.6265132848199201","-0.45677360671263834","0.6218616705682745"
"-0.0024200922982584466","0.014364167262766231","0.013695663968637025","-0.15696507612283467","0.1173424729033124","0.257689112211929","0.5547917983327875","-0.532248841075072","0.6289383830480229"
"0.009830820896446378","-0.024950247930106716","-0.032345209111319856","-0.13387834072850685","0.031987926731426336","0.20703519764066466","0.50538923596228","-0.6010353944688368","0.5996182394252317"
"0.006963544922394914","-0.015401318794116834","-0.02808046338685305","-0.10887573363131361","0.012900186068744721","0.20545772329842044","0.4571290904316997","-0.6624604409976763","0.5755933725771255"
"0.006319418788533111","-0.018153919926540765","-0.004980411375844004","-0.04675720397690077","0.045373637160412386","0.160528827147701","0.4179804157951723","-0.7059698489556041","0.559511420891046"
"0.006695881147785667","-0.006194127685510905","-0.012768683822108785","0.0019334719144241696","0.044555129567579704","0.17205652426410123","0.37050045737478626","-0.7305477831659195","0.5677975484366174"
"0.0036726284417676557","-0.0004244679684686562","-0.02040598633497961","-0.02660589211123456","0.03921329054067162","0.1954929392226437","0.316834729723575","-0.7606402511926127","0.5679119525644656"
"0.007038644830378797","-0.019555149710555813","-0.004036384610394235","-0.0337639353829955","0.05232137851126999","0.169707300935959","0.2591566112199367","-0.7962604457003161","0.5666044768176298"
"0.007599968501591687","-0.024334288506888832","-0.023169293734174083","-0.038526657651374974","0.027727857973408248","0.10019892764947083","0.2232122765002784","-0.8212077745203407","0.5602141891049703"
"0.009147219169926385","-0.0042541151817266885","-0.020073480736122876","-0.001154932525586849","0.05115344954839761","0.05421433713124947","0.19417817047091082","-0.8334241819700198","0.5635319088125659"
"-0.003999116004586322","-0.008093941825587647","-0.04879907312431116","-0.09854543042943133","0.03522366434987604","0.06912510999086273","0.17197070165574185","-0.8525667383517522","0.5507676768340822"
"-0.025633666419944526","-0.02921210545702573","0.022184676475101126","0.0039775818639336295","0.01567832529026573","-0.016533688299882342","0.1599056652730966","-0.8685826332155863","0.5305998634391412"
"-0.017112715321772744","-0.02054816355304535","0.012204964954632117","-0.06943669629066976","-0.1836194183653904","-0.14265446078083185","0.1964072765000367","-0.8613794383262505","0.5049079650138194"
"-0.016650562041871885","-0.00021485479544105309","0.006931963122327685","-0.024396381780543052","-0.22203183609920518","-0.303018075529778","0.2875219854405667","-0.8406405695239878","0.44473139376570525"
"-0.027308972059585056","0.012127808682347847","-0.010664191864127348","0.037175306101393635","-0.22975739899295933","-0.442515345056238","0.42494637213619124","-0.7757590448614378","0.4122733083505085"
"-0.036369101984307844","0.026437179701318432","-0.004437250055972445","-0.013529827051778324","-0.1389987880707335","-0.36686938313661804","0.5372097245280552","-0.7120120893572812","0.3821033054922743"
"-0.007022368710604333","0.032237377710169456","-0.0338838219755948","0.027288830464848493","-0.09578302314740052","-0.4244593310465501","0.6329498284790219","-0.6454023256278761","0.36435432222897945"
"-0.0024971178449085954","0.025716309819845903","-0.044398020756834765","0.025580912675459942","-0.045885172846322334","-0.41560120589394783","0.7206651507251343","-0.5682120448632199","0.36255654307708035"
"0.008191139572131523","0.0365231257374831","-0.04379909762845928","0.06549362281902328","0.012185068908690897","-0.3580597956560848","0.7829408004138446","-0.4918660946350424","0.37246067185936094"
"0.026518405578199306","0.04528574579526735","-0.05018279207607521","0.05992989288391816","0.03258864429224799","-0.2518836380050301","0.8174919438652996","-0.4252827162349021","0.3940176782353148"
"0.034750510876433056","0.04340255113372599","-0.01750224178844192","0.012813890237420685","0.016770865395903518","-0.12753497593132165","0.8380275831586241","-0.3863907408983431","0.40923342723911554"
"0.03133153942449995","0.020196565511279577","-0.002634697964778922","-0.04276371863846575","0.03313192272374805","-0.06774869836026491","0.8362164345099591","-0.37418752611329653","0.4118647221796224"
"0.011727574982706095","-0.023019272267776118","0.0112314257357186","-0.04344630810446151","0.022601415681456145","0.020910698817789047","0.8350461538446676","-0.3778814722103917","0.41317219792645815"
"0.0101947666043683","-0.06128769903032797","-0.0612174344033518","-0.09012907343121554","0.08200304858820277","0.006717798128077085","0.825934682950615","-0.3947021196168072","0.41421817852392673"
"0.005199659904106688","-0.09483827132364606","0.017397008901997517","-0.03806550059324808","0.09639873037442682","-0.025673817327205823","0.8135910083143287","-0.4062193158409646","0.42515194445684035"
"0.012434284373221128","-0.026085566057555527","-0.011742253495203218","0.05574482037519661","0.06893325337048548","0.06033251069555367","0.7972628066509803","-0.4005992407075269","0.4515302676492511"
"-0.07524774665596622","-0.052213463750005164","0.09769752407633216","0.16964772548374227","0.00013769019289793964","0.14361102154803235","0.7705135343014671","-0.41311907944375303","0.4764703675201423"
"-0.023553976660390722","-0.028845438211838693","-0.015682754629480537","0.2449347441591566","-0.1611343925330421","0.1128891020119249","0.7798479157984326","-0.37984717924063166","0.4987301421100206"
"0.05330403942578563","0.1457691904550508","-0.1773197154650227","-0.06613157691582708","0.08585625684685957","0.028501505352668335","0.7932225519731894","-0.37443818674131374","0.4741332546226736"
"-0.017979252721586823","-0.0038317726834460964","-0.050207575102076955","-0.22524327771439967","0.10640031876754907","0.24900086891156836","0.7602317827421224","-0.4390954361051115","0.4688870081884952"
"-0.004422756511162082","-0.0234202171874424","0.020670433586394556","-0.10676731200856224","-0.03585247159148422","0.14555495531439794","0.732200774425862","-0.5044387040297984","0.4419856946973502"
"0.0045372402029154844","0.012929386906457866","-0.07259490859031917","-0.04017777321439717","-0.020839558494758555","0.14684848427503824","0.7131419178768336","-0.5332646762517732","0.4263613595226635"
"-0.0009180941385807202","0.016837353412313922","-0.02911721997459268","-0.17141594761027673","0.06351722213487034","0.17837127540028508","0.6766124428245295","-0.584096013080729","0.4037910594429118"
"0.0030727919972297","-0.009227182518219535","-0.04253309805020351","-0.17299485695334169","-0.033995273076752736","0.16211115525715214","0.6475783367951616","-0.6402439937565754","0.35297928323150873"
"0.010403698399656797","-0.032587937034526775","-0.014164794286873708","-0.09220379881798686","-0.012099716309067284","0.1507266442733556","0.6216092515558427","-0.684017255007153","0.30970183601124635"
"0.0030785689132284467","-0.010813304000940797","-0.022952442256658823","-0.019270702913178527","0.005756433689077193","0.14914188928030103","0.58413240644116","-0.7157588061129064","0.29234509547200216"
"0.0035166517098011254","-0.0059959404039763835","-0.02815481246485828","-0.022454515838493044","0.00228734960775853","0.12739458530976155","0.5514481392890984","-0.7406665569390337","0.28330716937200023"
"0.00849827893939896","-0.0015189645017649185","-0.029493095868952466","-0.08459615148329219","-0.0401699794788239","0.10482214091404819","0.5291849428232013","-0.765270876478614","0.25998507073781807"
"0.0017652833428435522","-0.021207749107418634","-0.019970218127782276","-0.04060908503494174","-0.03489754606651275","0.06736561937835954","0.5109341372097314","-0.7864451032137487","0.2289161783036343"
"0.0091510704472589","-0.0012255268338744437","-0.021754595999907853","-0.005241419475326794","-0.05087998380024579","0.08010433141288266","0.49332419957963475","-0.7971971248892221","0.22045027284287302"
"0.012160843682613134","-0.0063130608287797875","-0.04912951347100108","-0.01337963811426727","-0.003965138948602292","0.09185530182080054","0.47546348752126205","-0.8119861019422353","0.21165749844540277"
"-0.003373283438053936","-0.0007751389655653803","0.022834817857213544","-0.01793536921876932","-0.0312956339986379","0.13995370795762915","0.439714199579152","-0.8327513560737632","0.20812731392894634"
"-0.006714266524003789","-0.009099420276978727","0.0010742884015987732","-0.05370055408798885","-0.08128682288486369","0.1427324896835825","0.4112095062317016","-0.8585166301010019","0.1803271108618519"
"-0.008832469056882638","-0.063329817455364","-0.036622346348787534","-0.005254897969718813","-0.04469570420995436","0.1032373859209936","0.3829555873125284","-0.8812739765920345","0.15224906919855477"
"-0.010074505996616148","-0.045283141200747626","0.02821500627697552","0.05173111729517356","-0.058816156834845784","-0.02583641852863715","0.37111346153279595","-0.8817621051834365","0.16692548445678576"
"0.0013127582562739886","-0.0314297671240918","-0.029296896913105323","-0.05658110088948297","-0.13271877659823939","-0.15093741451941584","0.3984757380403188","-0.8645852558319439","0.14796708612766782"
"0.005366227648737621","-0.03291721045300918","0.011102140950076169","0.00456716971862447","-0.16789306341654944","-0.32544248002568077","0.4776925935503882","-0.8308779976959506","0.09881090108069537"
"-0.024805641793455496","0.013446252688908486","-0.06177711774055785","0.09486133660003145","-0.08451059401803805","-0.5422359923221085","0.6016866164205281","-0.7515373125961996","0.10390515345930404"
"-0.04921311188821874","0.037303202511237955","-0.05852434557782892","-0.017005353105720086","0.0339815431782966","-0.36597143620334055","0.6922161850284121","-0.6762863535325181","0.11895746799475028"
"-0.01964493016789609","0.022851527207308094","0.0013939894370212738","0.09515497522785756","0.036906152179587676","-0.4196541015117138","0.7656095010373897","-0.6074866074741209","0.13593830925677916"
"-0.0036621292379919565","0.011696740957836176","-0.009809590517500535","0.2339786537176449","0.10658699593784424","-0.39431743669166786","0.8296127078986727","-0.5150192210650495","0.1961965977390704"
"0.0021388572440967347","0.03270791669620269","-0.018896287001040027","0.20672321255778586","0.12160493495838555","-0.23037659551123238","0.8596499116411475","-0.43844899553811983","0.2775706195327586"
"0.02255929248038209","0.03684512813410627","-0.003171870053366724","0.15466734171661378","0.12735842107876505","-0.1472728202782023","0.873080275466632","-0.3819316202525639","0.3385480196758094"
"0.030691264567970663","0.02266040320415111","0.010003860500287209","0.0826584854272581","0.14862047211597443","-0.03481103409420516","0.858897588356317","-0.353976363896333","0.3875293298416425"
"0.027485076188658565","0.005950867869447703","-0.008094811643396519","0.056032682505426125","0.08013149029114089","0.025303843516759083","0.8460523648634778","-0.3435409661720392","0.42580568233025834"
"0.01403352728554467","-0.02271181191487141","0.006072198645283844","0.04867823831538149","0.11701698450382336","0.024244751512212337","0.8266870062354447","-0.34067815794679046","0.4618429826024179"
"0.0020358355754521726","-0.04932375191966427","0.0412810306355284","0.06843289734608261","-0.03791310035589634","0.07197184445771272","0.8127550935534065","-0.34247236033680806","0.47084822180874875"
"0.014454279334121056","-0.05375595910157103","-0.07706617953146717","-0.017091037820069346","0.021153470963141005","0.01962420781959878","0.8180492203725811","-0.3381451663373538","0.4800659258239407"
"0.020454569418167","-0.0710287908868833","0.022550639159060214","0.009111444102893308","0.1074150767188972","-0.0058922890754630345","0.7954795218276792","-0.34706340762891214","0.49596809959483"
"0.01462373553675138","-0.009885729355184357","-0.009571260417450426","0.13855091342215808","0.12074574131561674","0.10403097685932262","0.7748324272328991","-0.3345039908987885","0.5353231195745851"
"-0.08295992951431151","-0.10435396150256517","0.12397785789901501","0.19464070508494122","-0.008746228475508325","0.15758501733671287","0.7443215384592351","-0.3359156060144642","0.579205274327759"
"-0.007330470897204896","0.023382311803032102","-0.026539785270411287","0.23176432963895627","-0.09416515433817567","0.07389879003885416","0.7408106964633617","-0.29619249280605875","0.6033935756442199"
"0.040384929613890834","0.1228343100762129","-0.11713620207195385","-0.06688926085057836","0.1638753475449673","0.10933371753286672","0.7478602442804728","-0.30210280656141103","0.5892074637910524"
"-0.015832165608714133","-0.014865340611350515","-0.04648805594964852","-0.1134391667326111","0.21081747598303852","0.26086832973245194","0.6980397245295041","-0.3681452857116195","0.6044232127948531"
"-0.002246784818295624","-0.005448120842753596","-0.014323818703718235","-0.009363046785445929","0.016819209996415858","0.18125926688839378","0.6587517307661565","-0.4205201643025759","0.6120065721265002"
"-0.0006379137126408204","0.020066725835221844","-0.05778085479777661","0.05118138727389911","0.0841139365907713","0.19270444996227662","0.6297176247367888","-0.43974187667210324","0.6343153770568846"
"-0.0066661255573474435","0.03254691549789109","-0.03448687560830391","-0.09961408248479844","0.16389928051551797","0.2609654050765901","0.5621757120542675","-0.48727504734293836","0.6523585423632177"
"0.0035137632518017522","-0.0054387723860774406","-0.03617212137642252","-0.09640812631869705","0.08348449946528884","0.2313501444636571","0.5162282640289059","-0.5576447204926012","0.6394799062568858"
"0.00682297329975841","-0.02408291889404106","0.01259054753417592","-0.0673224981703218","0.06322284659709719","0.23716738446113314","0.4589681029057287","-0.6116950674918828","0.6344134377378974"
"0.007961988570847359","-0.02996309814334365","-4.817615106355483e-05","-0.010355641622458105","0.03139917565588001","0.20673669095744002","0.4091475831547601","-0.6543205669194344","0.6310957180303018"
"0.00870143381868871","-0.012319444243210496","-0.020595989534326314","0.011288894871923805","0.043822780668729404","0.19568223614371302","0.35765523388194703","-0.6846373102448797","0.6434023334973928"
"0.004822234725521007","-0.0005684342012814705","-0.0300837579886607","-0.030458816008152825","0.02985310575830716","0.2011475780186885","0.31123410082539543","-0.7160622373994535","0.647030578694862"
"0.008266239480115406","-0.013942959552636384","-0.022471238501791623","-0.02913022156093963","0.04685030144338832","0.1832274694907939","0.2560915904298883","-0.7511547253218576","0.6428303128581523"
"0.015179282291965506","-0.017607554569689828","-0.032113900868636906","-0.02246991983208392","0.06199747850490321","0.11428698696751365","0.20540729209263356","-0.7778962565319001","0.6448078699252412"
"0.013768751968934814","0.00881357304716859","-0.052692073458751806","-0.03799618262208913","0.08176850547680627","0.10089544324366177","0.16341650726897033","-0.7978699507854788","0.6459519112037225"
"-0.007715598630455589","0.00959822017752068","-0.040201428353872755","-0.07608640777393173","0.05206768902343295","0.1595653543571303","0.11777556132261334","-0.8285560887206337","0.6384829559999236"
"-0.016043985862002022","-0.06813284675209164","-0.019941304597446908","-0.06425036419854116","0.015026391172465662","0.11199843572945777","0.06731417358827078","-0.866498192203654","0.6101270757404237"
