"AccX","AccY","AccZ","GyroX","GyroY","GyroZ","MagX","MagY","MagZ"
"0.004184678507014754","0.036443061517485484","-0.04984640397954817","0.041326564945879544","-0.013856934258779423","-0.31642812664582104","-0.1616254598799185","0.48716301830973024","0.18180611159126053"
"0.015817205037778167","0.034921931229786235","-0.03397115561587539","0.013793541538671145","0.021181973304666712","-0.2543053891818595","-0.2521417294809506","0.5317442504590502","0.17512371590255885"
"0.009473738281954493","0.0319262754972449","-0.02828376860662187","0.06801143823583644","-0.005547696602357957","-0.26735350934473195","-0.36392932243822623","0.5807370978314921","0.154940500425488"
"0.004445726521657699","0.08311444573362228","-0.02434293873961143","0.12209494494963444","-0.02366921508987823","-0.2010313134566022","-0.44986949174276186","0.6223949704956108","0.1117174728410616"
"0.0050325170589203315","0.04472241185106147","-0.03337653335783535","0.07842317776204921","-0.02246226089186294","-0.1543654525315309","-0.5013631917824605","0.6553093406994456","0.07743831327764547"
"0.00531172493545148","0.04000496609074141","-0.020066322185707804","0.03308198833663448","-0.015610356229853557","-0.1732657746113948","-0.5665349058952038","0.6798788483727967","0.05395640883465062"
"0.003577458125127898","0.023841629840494427","-0.01277462100574235","0.033474207991795374","-0.015376155755685482","-0.17718655675380163","-0.6430714405245215","0.705617699840228","0.03719090718309886"
"0.0003393277521873049","0.02407335947581201","-0.027253090026019142","0.05093793746003808","-0.02409036506535591","-0.1690414836472676","-0.7104557745608455","0.7305725594457192","0.0011824864452783317"
"0.00732519962230623","0.008604435384136832","-0.026949949267018332","0.05357695854082879","-0.033970697569321535","-0.17823504177429045","-0.7731634346677836","0.7564974428803908","-0.029371195012808188"
"0.008711024082649881","-0.0015038961157893657","-0.021285880777687956","0.06363331122213688","-0.04168108050451499","-0.18640494742078345","-0.8590533171558739","0.7843623739734235","-0.06200951186894767"
"0.0012813705876379487","0.026930754174543742","-0.013572114387113692","0.09208217747895955","-0.05897005739417024","-0.1661333173009644","-0.9415739829421487","0.8057161862130531","-0.11461339874461253"
"0.0008080791871766165","0.05732384352805254","0.004044094674020629","0.1143003259143303","-0.07695752692608117","-0.13199409319962777","-1.0152441690341005","0.8240801989791812","-0.18473774495269008"
"0.012167072798248931","0.12580966010666164","-0.006049559859909165","0.10763060081387849","-0.08987964080781087","-0.09212682988109434","-1.087355463816256","0.834763749097826","-0.27980800137678336"
"-0.0003223722153641601","0.17194068706144894","-0.01483131446296318","0.0347086048760581","-0.049640558242277553","0.04685813709801591","-1.100932904256411","0.8332090533716052","-0.3334355020449669"
"-0.015987523076677123","0.18751965036542576","0.027886581739832196","0.013021048004648664","-0.06842281995351981","0.306427158946658","-1.0266089895506747","0.8109250812957752","-0.3626135961971604"
"-0.026088946251991242","-0.06153662986328271","-0.037354672856722795","-0.018569557418894295","-0.030995683870596605","0.5147997609132745","-0.8245565610745921","0.7539195713343498","-0.3776617391602672"
"-0.09505102177245026","-0.05959217225296418","-0.005394309450068969","0.10581882474181546","0.003206958512884257","0.5207871622144868","-0.5796597649873535","0.6734341695076937","-0.393696088102877"
"-0.04028768826583161","-0.06760043775058763","-0.013446194379528747","0.07299481791536805","-0.008922417579638381","0.4742675373580627","-0.3497987270171757","0.5839527932652134","-0.42158191235089404"
"-0.014739032571863028","-0.06600033814582486","0.026437568911808363","0.008432774876216955","0.016822814259707223","0.47854425257321437","-0.18063387649613535","0.5051549671413782","-0.424353491224325"
"0.017752365320240014","-0.09158898603234687","-0.0022812870403299606","0.01801139605368821","0.030379221092308794","0.37347501683581025","-0.058487199351185674","0.4438707219334308","-0.4304917732691628"
"0.03790186707657163","-0.0240818711537383","-0.035451881630994685","0.015224048250514316","0.07886411201917638","0.35093258889530105","0.0533506804225342","0.38141713293140284","-0.4051054710726449"
"0.03180469344760676","-0.017233548411671042","-0.01681805236041459","-0.11404318804710803","0.09155510701192443","0.37962796840341567","0.16825605599940074","0.3219267674075562","-0.35190135883359286"
"0.020908776314683672","-0.06668128668312681","-0.008824463730762663","-0.15604254655278893","0.0878199689672154","0.31249733538106683","0.26450502267516507","0.2639512336169502","-0.26838161485564466"
"0.013786705480403224","-0.06404034558788727","-0.005620499093323414","-0.13488856768941562","0.1038313719983332","0.1557295106202452","0.3193679394166797","0.22908352775709456","-0.1946185086542283"
"0.015699165935504827","-0.06306682220375974","0.03923523901602531","-0.05015518543564588","0.061166825092320215","0.055066671140000606","0.33953295281113227","0.2082612354238653","-0.14146540706928848"
"0.024543018675060736","-0.013178409251510073","0.015412805877347644","0.07339699238411172","0.010709719646142523","-0.026406685128413668","0.3433547508609541","0.20293274836220293","-0.13428140661514995"
"0.033834058013613694","0.16835988163525648","-0.09772865278972105","0.07508234232367364","0.11798355196697635","-0.1359838546196983","0.32419547379540176","0.21980850539041047","-0.1178202685331345"
"0.008707619108545851","0.2870753621821472","-0.04185747905388087","-0.035001968199962666","0.17991314226343771","-0.16105920163601994","0.2679245261934269","0.25763943472844736","-0.0244316633396076"
"0.004973497507783661","0.34587513892027477","-0.0025377907594844886","-0.15101536569349316","0.04370450903592872","0.1710649836304472","0.258068310170203","0.24433814907078147","0.04526759408420136"
"0.035233502370373496","0.0537197356804315","0.011065767393276136","0.06561929653189828","-0.09169906006162754","0.08077662751082863","0.29517998070662604","0.223223520789032","0.03145730966088464"
"-0.0652915481031541","0.1338722979209518","-0.1381676300404281","-0.2766152486672253","-0.053382116256124955","-0.1551959630346023","0.3005103832497983","0.22758198402151394","-0.0012218157185446003"
"0.021719160151444834","-0.07536791156011573","-0.059507266783704514","-0.2698758398716941","0.22344053302164887","-0.3053914422196231","0.2618901082200243","0.2237683286930922","0.10850380163199128"
"-0.10777427500787401","-0.009166509028888822","0.31674404773211445","-0.1897196809032792","0.017996384618202944","-0.19818936721685626","0.18248722505334028","0.22719663208937374","0.20550906220207504"
"0.021972263226511687","-0.29173089452452056","-0.12225507204487829","0.0742033322843156","-0.032598108167536055","-0.3500900141457246","0.12933406007095688","0.283551030165459","0.20280549753412705"
"0.024153716635832337","0.096725649005852","-0.03263733627627185","-0.023339904087754756","0.027396503430617804","-0.33370053777282077","0.058278788434145315","0.3415531399513849","0.20822963042139378"
"-0.011379458122545084","-0.0554495195545492","0.018519532286707403","0.0019073945727152192","-0.005580695243729226","-0.3885252676599588","-0.05109503733376872","0.39855864991281054","0.22965410514852883"
"0.00819346801883603","0.07114994690901252","-0.03292182221933414","0.0695056557546093","-0.011868156219092305","-0.26030382716749806","-0.13733692753697474","0.45540470390231597","0.20790656294534968"
"0.01784429962104906","0.0839740461685434","-0.016444956041644372","0.062182894883128184","0.03308844806870483","-0.22503058374136958","-0.20235778120038314","0.5078391426686993","0.14213682624331916"
"0.0024878664118355887","0.05509198938678146","-0.013900905518029947","0.09859561200616197","-0.0014729421902286628","-0.22218035998830393","-0.28558246241688784","0.5498292152743183","0.12176657170117013"
"0.004217593256687129","0.06511979807488222","-0.03780238843924706","0.05928305768646906","-0.022670267891946424","-0.22103806315019248","-0.3661922291782518","0.5842052652207538","0.12581341692740675"
"0.014113582994390922","0.03436811034716688","-0.04348744359650826","0.010271528493089276","0.006853115785335355","-0.21240737592890568","-0.44212532201022914","0.6209997307413101","0.113995948724741"
"0.00376246171811398","0.008393419012311318","-0.030244856132157827","0.009627850246827762","-0.006088129604426721","-0.22189340619322281","-0.5318872893645866","0.6512830774084637","0.11251663975548641"
"0.00039494232921994467","0.005385335321674743","-0.01603688194298945","0.03547711648464748","-0.013908807609417527","-0.22638257758357883","-0.6238115898260795","0.6872802630694198","0.061029886204879306"
"0.004004214879500713","0.015177271721759499","-0.02744197003739656","0.056438967445873414","-0.022670267891946424","-0.23721232417678553","-0.7201611301347339","0.7225731848543955","0.0344533354124094"
"0.007467073543307824","0.018144187801205573","-0.03255105775255624","0.04841837414224054","-0.032395237142763274","-0.23151463584176082","-0.821891359803006","0.7574143147189313","0.03644275092278623"
"0.007413728949011225","0.045864230501062093","-0.023659706105863463","0.06538336744998678","-0.039187564491168496","-0.18918343272507876","-0.9116533271573629","0.7831531661863629","-0.0016265002411682899"
"-0.005942849469763658","0.04599368839788757","0.006225309027631017","0.11345416675979537","-0.04074890098562232","-0.11734841296606313","-0.9716957859927148","0.8040286105102321","-0.05733183488685652"
"0.003965625172988266","0.08953296825822898","0.014113264762031126","0.16407439382814978","-0.07387465774583145","-0.0858497156136943","-1.0198202693305976","0.82147575143782","-0.1619631882467181"
"0.02204830764816855","0.15408067561540736","-0.0555197998768478","0.13271673104244353","-0.059890680968613816","0.014261565562351045","-1.0366663528396785","0.8215289034284602","-0.254000011106271"
"-0.02262722257955212","0.23253733940751406","0.0195224618286016","0.06450833933606183","-0.03468973411282","0.25395876118451316","-0.9866309704768853","0.8019423948776111","-0.3003567932083252"
"-0.04466875494636113","0.09981192526617116","0.04707935593296993","0.03435919091930309","-0.10533635850537268","0.4420680105446303","-0.8182707090189644","0.7515808837461885","-0.3424473842714602"
"-0.04873202404384702","-0.16600915260143545","-0.03364003263296681","0.05704422011170545","-0.03485023334127949","0.49945876956085944","-0.620442373124263","0.6822839759492576","-0.38228670513310903"
"-0.0743828289609368","-0.0591546045616941","-0.01731007313079282","0.17062466116560845","-0.016576433185796862","0.4927263920608787","-0.40058841162664394","0.5910485840156569","-0.43380746578645757"
"-0.005182405253195066","0.0033365346465148854","-0.0036710708277490262","0.06593585960383017","0.01770748600697588","0.533727674704204","-0.20723560239554947","0.49785985642603503","-0.4714873356240221"
"0.0018011966341878191","-0.07743147043551368","0.011738506693058688","-0.019577980034828277","0.034390417809968134","0.42371952268607627","-0.06668395043172429","0.4283503406665438","-0.46805261824713223"
"0.02600148258295721","-0.07166541571090733","-0.012457489134787668","-0.016206284674346146","0.06461948449494055","0.31851232839334476","0.041784712640180195","0.3704412468642379","-0.440370836615564"
"0.029761708985183682","-0.01779280652595706","-0.026173442553577824","-0.018177337763733398","0.09049196012260884","0.34431057823958233","0.13793310568305492","0.3158807284722535","-0.39607658529478085"
"0.023406892315679897","-0.04839924249343422","-0.01101174089955307","-0.13286774053211456","0.07194852126331429","0.31961599683596453","0.24358570703403726","0.2603103222581086","-0.3171631033831667"
"0.01974087019699848","-0.0640765937989984","0.013865155710048932","-0.15524616146616782","0.07785489287062317","0.2040343191826069","0.29985665463601324","0.2221737689738915","-0.25586700104677845"
"0.014555094636547907","-0.015630859648971745","0.022524464764986544","-0.11937896812746948","0.06480951558143658","0.12215591659575115","0.33143677536348437","0.1961027175649598","-0.21049472456909024"
"0.015557292014503232","0.027866216937004574","0.02199844559256038","0.0072687585239843725","0.04740241125963516","0.05603514019839947","0.34702568846143994","0.1822300480079136","-0.17574456663270457"
"0.02314016934419688","0.07519938992171317","0.0026743648137354625","0.03890854072662619","0.05055461610657935","-0.05411648871726876","0.34481306853785915","0.18504710351183484","-0.15898246569142702"
"0.02784584355597805","0.1201834199106268","-0.018165862811972005","-0.004107801534669868","0.06278208932753643","-0.1324990215121263","0.31675302496153834","0.2044210041001235","-0.1314622177978809"
"0.012545024923797188","0.09642012836934388","-0.03136880879245311","0.0038581398423936323","0.09403578308699416","-0.1554470476052983","0.28547462513273764","0.23093055943183544","-0.08806915469974702"
"0.013164730210732195","0.1883611266947913","0.028914228912844918","-0.028784191636168334","0.09365572091400212","-0.15644310837476266","0.2600797828280035","0.2542111313321658","-0.03596007116897075"
"0.017748960346135982","0.27845346625357104","-0.008066611833260658","-0.1550371103809298","0.06314160759928565","0.008559186636445238","0.23684727363040478","0.25747997875652734","0.019689151757194028"
"0.028859390847613485","0.046428666931221135","-0.019800491058584026","0.08572403804364824","-0.06765113966308663","0.0100207195715845","0.25439737256971606","0.2530152115427653","0.018247250600955098"
"-0.12681943016312913","0.42145265908698304","-0.1464107268332576","-0.23200772900286024","0.12286529649979992","0.20310171934859317","0.25022356680478014","0.24642436470340234","0.04232597969706299"
"0.02986499319967285","-0.11949234111410828","0.010489100395576918","-0.29550948484731115","0.026817422214335997","-0.22855404524443326","0.1797717369653094","0.27685387934481603","0.11442103750900955"
"-0.10165667153428488","-0.2728818247467324","0.09371872763123952","-0.00705532228839043","-0.003944630308504665","-0.4032040579468021","0.11590748008013674","0.30712393801430954","0.1680672420837009"
"0.019098465082703228","0.0037013469997690543","-0.11916536815506243","-0.03866733056113633","-0.053601679200657525","-0.2864635284286937","0.052395230910078736","0.35419002572605063","0.15230494996302296"
"-0.001552702858290054","-0.02229794133548335","0.005249195783648433","-0.035975548968356974","0.03851974195977366","-0.33618379176871527","-0.04219427082300027","0.40464455284109324","0.1711788919845467"
"-0.0037863658705392825","0.02009278806422252","-0.014124763309292078","0.0724532760564657","0.016898569895540096","-0.2660484214113341","-0.16876618781511094","0.4726791008603237","0.18864153924229884"
"0.01008549862931341","0.05451460716693987","-0.04174788201024212","0.08642485691987482","-0.007598619943304585","-0.2013596548182816","-0.2432409629701827","0.5191738046726845","0.1593444202305102"
"0.002708054737230067","0.022959503731525686","-0.03362604152101293","0.08136582065711422","-9.252042609436212e-05","-0.20666278168506969","-0.29156659357384457","0.5454574640441763","0.12600045599248494"
"0.001845461297540337","0.03378451414827767","-0.025275679536536973","0.11456910588106493","-0.017098119877981557","-0.22587213092886715","-0.36438190378623103","0.5874874006427752","0.0915852680181029"
"0.00611302884126854","0.08401547269552755","-0.048062537205428066","0.07442134270177812","-0.02450637906552288","-0.18889371975889105","-0.4439356474022494","0.6240161062101315","0.04846426174190092"
"0.008294482250589178","0.024964029805971233","-0.03637063131596635","0.0028798803116154245","0.011091065812962247","-0.17169856542287473","-0.5238916855498282","0.6544987728421852","0.0449955372622695"
"0.001586683265633412","0.0013384814669106123","-0.0201829147853235","-0.0023354465243945826","0.0009627941008724156","-0.18527920560931124","-0.605255754557868","0.6798124083844965","0.04968851744059432"
"0.0004176421565801885","-0.00047729499396340357","-0.007635219214682594","0.026962764427309507","-0.002809836563604753","-0.19993316335619551","-0.6667062442536795","0.7033055882473869","0.04050659970039358"
"0.008175308156947827","0.01283537836818678","-0.01659885827313709","0.0732924668414927","-0.029715542024403786","-0.19982279651193352","-0.7492771968563998","0.7332700229707004","0.008982015459037727"
"0.01353133242260033","0.031238854065101667","-0.039658542625128905","0.06773967182502699","-0.027363265332101636","-0.18953936579782363","-0.8348653584458208","0.7630218497314539","-0.03162926663484274"
"0.006437636372520195","0.027993862423274486","-0.023505803874370755","0.043682869320919755","-0.019476975242516594","-0.16945535931324998","-0.9267896589073137","0.7892789331076254","-0.05896927688385898"
"-0.006476295412729691","0.01496806776048954","-0.002687029286992575","0.0712805990164161","-0.039559922701194496","-0.15076473423748382","-1.0020690231255058","0.8096760095157345","-0.0963787902546287"
"-0.006249297139127111","0.03528001177240548","0.013394821163199224","0.13091490978396325","-0.08068367701399647","-0.1620276706944188","-1.0679950394849245","0.8276148063567426","-0.1579809565156903"
"0.010422591065613218","0.12603232768920145","0.025888417767618452","0.1530743248191957","-0.09671819193401242","-0.0926869416157239","-1.1433246905195615","0.8416735078810289","-0.26151218010186483"
"0.021669220531252264","0.18770606973685444","-0.022684991973076274","0.1024142784965102","-0.07857279116129737","0.07444708899240414","-1.153180906542785","0.8336874212873656","-0.3551490371454046"
"-0.0237849137749252","0.14920788037889673","0.027252551183122063","0.08962234304265859","-0.08769813529458961","0.3917683212722333","-1.0344034460996523","0.7948067401341881","-0.4251696616901206"
"-0.022706671975313033","-0.0857064192005976","-0.09421455183730407","-0.027603550745252534","-0.019494951156104057","0.4851938549399986","-0.8326527385222394","0.7310509273614794","-0.4520352728558931"
"-0.12328960700860929","-0.056894269683121425","-0.014085121825422741","0.06802836141892715","0.02183681015678139","0.49137439821866946","-0.6125473429423953","0.6634681712626893","-0.4557930577088271"
"-0.03353448962615534","-0.07204602192757421","-0.046747372681763044","0.008520476783881105","-0.0037688515534958418","0.4988793436284841","-0.432218819170561","0.5880720725398153","-0.4758572483263029"
"0.008260432509548792","-0.08436782454742227","0.013061366328298341","-0.050940620227325956","0.029673024487087078","0.4733018274707704","-0.25566180663210203","0.5176988369324239","-0.4576464448082381"
"0.015450602825910013","-0.12228863168553838","-0.0005981562722778154","-0.016956877618486542","0.07498516666576766","0.39841792363901757","-0.07478012787937165","0.4464220174841519","-0.4025209312642921"
"0.026397594570393677","-0.06270434009264844","-0.01839671615921108","-0.037982439386642176","0.08964452419634278","0.3690327513542656","0.04781913061358226","0.386346980063265","-0.35824368349487967"
"0.026272745519912266","-0.0400388515164455","-0.00792903256571414","-0.13278810202345245","0.09962886020035015","0.3351501301658381","0.14326350822622602","0.33553367701140224","-0.3010437366837032"
"0.02377349452754804","-0.04697002731248106","0.0164637715702835","-0.18424453343275904","0.07563615153639931","0.25442782027262656","0.21215644675590106","0.2928526285274632","-0.22596625596132847"
"0.023051640017491885","-0.021795644695800535","0.028653294674904996","-0.17463813832539188","0.08204970070564015","0.17570590943166342","0.2512795899501257","0.261200618101329","-0.15913209694348954"
"0.016334761101592","-0.04442488506089236","0.03959294511164626","-0.07006182615709884","0.03860191756474491","0.08154643624955593","0.28688265599319784","0.23187400726569585","-0.09817606563451614"
"0.022818966787049255","0.07397212905980773","0.015606116407510461","-0.0014077574466168149","0.00192784386175358","-0.002258971438113952","0.2912576090239152","0.225455904395913","-0.08688740787948045"
"0.023737174803771625","0.14185208268127364","-0.010309853449866598","0.06702989361657592","0.04328464305427872","-0.014153206244227437","0.2892964231825595","0.2243131365971524","-0.08691461356167364"
"0.020898561392371562","0.1874989371019337","-0.10527685768884106","0.06296434774937515","0.2005854428890188","-0.13372409348343428","0.2627952709160344","0.24267714936328066","-0.02963645041419175"
"0.015286029077548155","0.31899967953930763","-0.006285076911132865","-0.16819737393734363","0.10772700927150171","0.06579984674447807","0.23584153730150453","0.24621175674084225","0.0513718690262978"
"0.01699532607777547","0.09397078496140604","0.0031020264691258284","0.019363259738227546","-0.013976859282284345","0.12196001544718613","0.24313312568603246","0.22235980094113159","0.09076909755230726"
"0.025359077468661947","-0.024581578635484606","-0.035967220921296054","0.07863919721679519","-0.0769074511668018","-0.02436600217800967","0.25831974425242804","0.2170180258818092","0.05740812976291124"
"-0.1436740519781195","0.7475571011903371","-0.001719777080580785","-0.3396292186461208","0.037821249317518","0.4497385062208379","0.2818036875322507","0.18529957546737497","0.08801452223024707"
"0.033863567789182016","-0.15432946114984172","-0.047034190476817644","-0.19901747678958068","0.12243901054901152","-0.31339303842861654","0.2401662035157765","0.1995575969565614","0.13496132756486598"
"-0.10058977964835286","-0.17184511459032756","0.11955331585408482","0.07848788405033717","-0.0035870380274969425","-0.2692959658037428","0.18364382183157602","0.23081096745289537","0.18850551083133293"
"0.011087696007268734","-0.053427387206135386","-0.12328808247747332","0.008082166341832012","-0.05998056053655113","-0.32782350331587035","0.12782545557760594","0.2930120844993832","0.159888533874374"
"0.0012949904840541112","-0.025210744014056378","-0.031012035437629093","-0.0062192174955740896","0.04296878057267046","-0.33176911799823605","0.04802027787936197","0.34584516319556696","0.16281314471014163"
"-0.003661516820057881","0.004927054366912587","-0.00885710965865506","0.05920441465916522","-0.020854700619612778","-0.35453227962726924","-0.03052772940775557","0.4027443691757124","0.16101076826484295"
"0.008175308156947827","0.07603309877726919","-0.03922481815455852","0.05072689541208348","-0.010606889082166322","-0.3026322711130736","-0.11224380613090991","0.45637472773149645","0.14193278362687028"
"0.013181755081252388","0.04416574289471196","-0.022894858652384525","0.050033044905364844","0.01820824359976946","-0.22972393379361022","-0.19350730150605946","0.4995075681358757","0.13324396887642107"
"0.006369536890439424","0.05750249542567168","-0.02388822760111023","0.056728652521131843","0.004676617848042031","-0.2186927677096254","-0.28880081866936885","0.5421753286221549","0.1251842855266893"
"0.0033084651709088613","0.059439185562180676","-0.028913368644546605","0.09233502974396177","-0.02418538060860392","-0.2161929586870916","-0.37861307284017115","0.5822120655717528","0.09354067642573821"
"0.006199288185237514","0.046350992193125856","-0.047673117922711644","0.064505352891987","-0.02550917824493772","-0.18363473962980775","-0.4309616487594351","0.6162957795696682","0.05793523985540423"
"0.0012348359415494308","0.00036884181968785537","-0.02456213282688894","-0.0037276272039441145","-0.00312364465508873","-0.21160997547911292","-0.5108674000905686","0.6456489664006212","0.048022169406261604"
"0.0015968981879455238","-0.006648294019839814","-0.017718147229447742","0.020462271157764677","-0.019218892483153747","-0.23011573609074024","-0.5926337636301684","0.6783507286418959","0.04193489801553593"
"-0.0025038256246847994","0.013052401586424995","-0.003913583434949667","0.05658331224282349","-0.021400397996375015","-0.23714886324133488","-0.6957720241589006","0.712407866644491","0.01418170146821065"
"0.007330874579146301","0.03849289785581995","-0.028544936029761016","0.07165390452576977","-0.03107785947556786","-0.19635451843100082","-0.7908141072399844","0.7441263170589253","-0.025511388851649715"
"0.000730899774151723","0.003419646616276837","-0.01356511883113675","0.06730365099010192","-0.029447187314419535","-0.18081210758780764","-0.8723793235138038","0.7719248081636578","-0.05550395311450174"
"0.0019986851322220537","0.009793583841216853","-0.004074481222419321","0.09918493697026161","-0.05752941631951794","-0.16879039907657156","-0.9537433925218429","0.7960823879095488","-0.10854143055012051"
"0.0021825537338401456","0.04451269005820421","0.0032459017370515915","0.11128401739875284","-0.06703482262580222","-0.15059090645777123","-1.0287210358413654","0.8167186482755378","-0.1769824251724946"
"0.008924402459836299","0.10315711732014125","0.012562350001943173","0.1146586992033098","-0.07066724116429719","-0.08234832747948301","-1.0886629210438266","0.8245718548926014","-0.2608881497665586"
"0.01571959578012905","0.17573898175430816","-0.052821847121740664","0.07171363340726633","-0.04506312024661315","0.05107415054882351","-1.1086770739889442","0.8223261832880604","-0.32411755589380026"
"-0.043874260988752155","0.20010295793686125","0.06136428123788466","0.02986558806804346","-0.055865360318850046","0.31961599683596453","-1.0274638654302402","0.8002946831677705","-0.35727448106674736"
