"AccX","AccY","AccZ","GyroX","GyroY","GyroZ","MagX","MagY","MagZ"
"0.014062508382830342","-0.02146164332199083","0.008525214647650181","-0.05888157502229672","0.004617297333203406","-0.08422456383193666","0.3145404050379581","-0.32979636582509575","-0.1854944029886881"
"0.000995352762898719","-0.127441055979192","0.0457805143732511","-0.03472522438236182","-0.011406303639277304","-0.04224929378799946","0.32117826480870043","-0.32080039140927175","-0.19497558323301392"
"0.006360456959495322","-0.2148096013887639","0.02067621555735865","0.07593845629179134","-0.024862045355789092","-0.036234300775721595","0.31117118833614216","-0.31524600838738925","-0.19824876687188175"
"0.0073796792079708394","-0.2973752588261109","-0.03661314392316699","0.19539223735952502","0.023565065848833087","-0.06379014261683122","0.3173564667588792","-0.307977473667366","-0.17335896837538944"
"0.021993828062503933","-0.07162657834185969","-0.04287183467053741","0.08471362446499771","0.07214497231894869","-0.024412356252599705","0.3280172718452236","-0.3021307546969634","-0.13339552158873427"
"0.02071923275622553","0.01638692630969667","0.003971574077059667","-0.01543578210304022","0.01522295795042312","0.1890630567584694","0.3218319934224855","-0.32016256752159145","-0.10544848455578254"
"-0.03269459601382585","-0.07854998666408573","0.09732610266334907","0.07987160313834137","-0.004099351564739604","0.10267616858351183","0.2974428874466516","-0.354830953416547","-0.11881667664345999"
"-0.06533694775787459","-0.26120472245307513","0.012154042718089017","-0.013338302881151867","-0.03646934955797873","0.16765740731385861","0.2931182212323802","-0.34503769914112253","-0.06953868441591228"
"0.045053447686420424","0.11714633765110133","-0.11476049974158153","0.0713821381149603","0.16170610978699423","0.35645093110840004","0.23951247490199146","-0.4072653921829305","-0.04998289998442178"
"-0.06230652080528036","0.1103083715407801","0.0988464701623377","-0.019351010285141263","-0.044681774079793436","0.3046612894384664","0.20778149372518484","-0.43532964324086304","-0.01707422666148749"
"0.015877359580282847","0.1519109612646125","-0.02303710162391567","-0.026808161139989694","-0.00696471219058102","0.3400614547354961","0.12601513018558516","-0.5004408317748923","-0.03382272476166846"
"-0.0061698477433662175","-0.051594263387086774","0.054947024555036895","-0.057931885806501035","-0.09409114056258763","0.2512547735000947","0.06979446940005565","-0.5458592077767925","-0.06596623827291936"
"-0.003241570013893148","0.02862432238081452","0.005956213307717997","0.01381942405398633","-0.026581313091047047","0.3200298725019469","-0.02901912491440519","-0.6034361016375983","-0.08241207315870112"
"0.007035776823462969","0.018850510086285327","0.0047217308629870355","-0.01243341032647863","-0.02599709589945454","0.32560339813717687","-0.12149658035679411","-0.6529471809187806","-0.09158888983349064"
"0.0018295714183881543","-0.006606090745474711","0.0009961309348671748","-0.06964671043069759","-0.010849435516214291","0.3482561929219481","-0.2151306325774171","-0.7005315005392618","-0.11472902289393358"
"0.002904408243896291","-0.03710533557438039","-0.015934280455327635","-0.07711879350592017","-0.01468742146652016","0.3352604970101001","-0.33994251099395234","-0.7506804037081243","-0.14574180023903013"
"0.0014731841288321322","-0.01949906160611673","-0.014199382573046124","-0.06325671559192145","-0.04277247525803945","0.27836638879304987","-0.444187081484475","-0.7953546518410644","-0.1820987937799509"
"0.005384364383004292","-0.02051918983310142","-0.01162734982552393","-0.04630466354183279","-0.04675414011766226","0.2639331647346895","-0.5644731464209586","-0.841091939786805","-0.21512309125220624"
"0.006585185250361861","-0.012839488477620998","-0.0004214018912604211","-0.01937091991230679","-0.035517910131670924","0.27113184215167707","-0.6880278544263679","-0.8761058136209204","-0.24255662103376155"
"0.0032051809564196936","0.014652967239616352","0.0005731329834614413","-0.007358346813849764","-0.03540877065631848","0.27557134846211523","-0.7985079901560723","-0.9057380484027338","-0.2621549143436789"
"0.005551208114102191","-0.01660179387516276","-0.024499172823096466","-0.01167485353147202","-0.043519759665746796","0.22305880396226554","-0.9178386055801004","-0.939928066381929","-0.28174130516763674"
"0.003145026413915013","-0.057217914425185104","-0.016671145684898817","-0.03293236245610605","-0.06173192811750098","0.2055187532379305","-1.025301532323104","-0.9663446057300208","-0.30464168815375225"
"0.008390956516870265","-0.0810045083878966","-0.031175265077091056","-0.0415104253203737","-0.04879183832218382","0.09540575271775398","-1.1193378790752877","-0.9849212264587093","-0.33562896017179267"
"0.0011099868910680291","-0.1250072475188732","-0.08343440007683708","-0.0007445677657330837","-0.057896638554233236","-0.003989247639031129","-1.1446321477471322","-0.9885222738245708","-0.36144035115257916"
"-0.01585132411251558","-0.22368005647924497","-0.024699712094435458","0.018871491947239007","-0.04006710026312645","-0.23647286632023026","-1.0993740129466159","-0.9764169079563055","-0.36776567226249524"
"-0.033001043683189325","-0.03234905244501269","0.10300183041264102","-0.26556540559035735","0.011494239874852466","-0.4313200115225413","-0.9256330621290785","-0.9175643663201392","-0.44598200856790904"
"-0.061409877624550246","0.18438935842018594","0.09209109494060445","-0.2796912860642993","0.06671753040936289","-0.4586633971884465","-0.7054270929163436","-0.8236979508498571","-0.5318839500928981"
"-0.0597868399682919","0.08645445947171936","0.05916767666112499","-0.25986129740743363","0.11718233981850662","-0.4383283061331769","-0.4786838375657573","-0.7239981044068322","-0.5761271907595691"
"-0.02785953278609123","0.03437691348415101","0.08627312421978135","-0.148576436365716","0.11273715318709286","-0.490642190313355","-0.27914574991192526","-0.6257865137017284","-0.581075224208455"
"0.0015753333519532699","0.05025285320344546","0.10056970878465765","-0.05896419997503366","0.10931787762399207","-0.35238012616416065","-0.12391034754615461","-0.5461116797323327","-0.5769433612253646"
"0.021050650235685277","0.05191509259868447","0.11692298680675478","0.03414416694591539","0.05860012143079619","-0.32898235518062113","-0.014083940430235234","-0.49451438481852955","-0.5400286511994836"
"0.042883344190779916","0.1312210001939662","-0.047577511991026784","0.3141631182154811","0.15074080249864252","-0.31391728093886095","0.0861376847446864","-0.4631547103409155","-0.44907665491738397"
"0.018397040417271304","0.07662860510266632","0.03451487102798436","0.18037042366313433","0.08673114220134628","-0.400969129350497","0.1934497510383546","-0.4222276775480972","-0.3221961545889064"
"0.012014983954935205","0.07519680076377666","0.02209894841342911","0.202519883884784","0.13050505977447122","-0.38593164681980235","0.279037912627775","-0.3619134561693302","-0.23576370226115007"
"0.0073422244928264225","0.07561365519155466","0.027685109727696278","0.133791850909382","0.08828734272048941","-0.1689035250919401","0.3262572332696476","-0.32090669539055183","-0.17384016887918147"
"0.01731312366081905","0.00907643887596249","0.0034872484182560783","-0.03326286226705381","0.03392047606903877","0.02103781388292591","0.328570426826118","-0.3120037369583478","-0.14229177966590653"
"0.0022915129051693647","-0.09688640317044503","0.04206867237188589","-0.07016037881156821","0.0085102382193338","0.08627565552618173","0.3285201400096737","-0.32316565499275285","-0.13595115535975683"
"0.016501604832689896","-0.19042491194271874","0.03780651330033461","0.011820497486567338","-0.0018251416971601475","0.0028477024458878207","0.30674594848898007","-0.33269314931497707","-0.12792037804735532"
"0.02716711871790637","-0.1397266103879289","-0.14979191222211272","0.08495054902826751","0.05766152194276516","-0.07383076627356477","0.3179096217397746","-0.3233516869599929","-0.10954464008099432"
"0.026651832636828552","-0.2266808905276593","-0.01591795749138144","0.08377289458142653","0.04803028424136864","0.08033240096267416","0.31433925777217786","-0.32530502261601374","-0.09323823431645263"
"0.0169272265956947","-0.042669435979939004","-0.01615813824658977","0.07617737181777767","0.05518084586769542","0.034596380700510035","0.3089082815961166","-0.33148394152791655","-0.04969043890084501"
"0.022168616733177913","0.02139228643255657","0.005775727963512903","-0.026913682163966994","0.01604086201865263","0.18464286464577717","0.2934199421310506","-0.3542064175265267","-0.030207769740248688"
"-0.04948111834673547","0.025729384892003396","0.031861923016328876","-0.015064467556403126","-0.011190079078696692","0.19593891115599074","0.24861438867853908","-0.3905225151313231","-0.030714475571096814"
"-0.07485952533550216","-0.528587062556397","0.07561422876291468","0.14589690422602292","-0.07188831929441693","-0.10622895340666874","0.26480674357383543","-0.36926171887531345","-0.003865867956695024"
"0.030662892131385858","0.2026066736614658","-0.12097488530109797","0.07667909442234898","0.08705085666443757","0.41135843612873463","0.21446964031237198","-0.4181349742688153","0.009548233719683417"
"-0.06056998401222074","0.17618172776145127","0.0621454516553098","0.0670308890979342","-0.015430597093978937","0.2994464560470878","0.15301915061656038","-0.46346033428709565","0.0723202443150521"
"-0.005681801455120712","0.1814170051090732","0.0076358462977816725","-0.05192415580930302","-0.06557492164373478","0.33012843875191805","0.08653997927624583","-0.5201867962976611","0.040982699138774385"
"-0.004955406979592486","-0.001181028121106649","0.016970483008213303","-0.12401791125703746","-0.0840464568486795","0.3116971757601675","0.003114150793961406","-0.5766209223597064","0.009016022561779198"
"0.009779050959949957","-0.06861020934582629","0.010351987498428862","-0.0575496209649229","-0.054288615898464114","0.27809047168239487","-0.07307037612024099","-0.6279923213132893","-0.04884366204258205"
"0.006929087634869751","0.005415369553738252","-0.021264894109757133","-0.022646053581036114","-0.0043055609734643455","0.3359778814978029","-0.1627317698417083","-0.676055008849531","-0.07497471978913853"
"-0.0012553351198707023","-0.02698431720056529","-0.021278885221711015","-0.10016617791273515","-0.04253365240609175","0.369501810442379","-0.281760664367066","-0.7317582950402758","-0.10406099476392999"
"0.001023727547099054","-0.057233449372804154","-0.006991628064803966","-0.07218518789430238","-0.0420097829244","0.2662370726086583","-0.4045610701258007","-0.7816015742629581","-0.15613947190223892"
"0.004686344691676421","-0.032038353492631566","-0.03153437028390739","-0.04213160568793817","-0.0408721643930792","0.22581521589770845","-0.5050341293829469","-0.8160972161883335","-0.17530587500733943"
"0.006226527978069819","-0.03175354611961554","-0.009188232641563628","-0.027468165280526938","-0.0434927957953656","0.23464732260977336","-0.6025905532862819","-0.8488388424225881","-0.20469481319653007"
"0.006421746493368033","-0.0051092985423786515","0.0013333167329557603","0.00039028098270200084","-0.028142649585500872","0.2381597474284108","-0.6929559624379795","-0.8802250928955224","-0.23012702498174908"
"0.008982287019604959","0.009557271396351642","0.0021543618194494736","-0.002734335904655932","-0.03300641820473697","0.21312026963647435","-0.7992622924027475","-0.9117707993403764","-0.23942456687127087"
"0.009654201909468535","0.013125364057075829","-0.022195303054690366","-0.009784733076512637","-0.02724128591847243","0.19302522646747447","-0.8920917555602511","-0.9366857949528876","-0.25068771929925043"
"0.007778061178143339","-0.004123347200155886","-0.007325082899704848","-0.03229624986816743","-0.04011332404092278","0.1937729618373494","-0.9960346051521033","-0.9609762546753786","-0.25947515464765"
"-0.0011770207154778187","-0.03627162671882437","-0.020602648143939997","-0.058695420008299026","-0.0395329588308133","0.11920084434063664","-1.0739791706418818","-0.9791808114695868","-0.29029579186225707"
"9.045264095577483e-06","-0.13048331655459053","-0.06485187155008788","-0.07034454286284934","-0.065791916600612","-0.036554364624081334","-1.0989214315986104","-0.9805760512238875","-0.3481095668779174"
"-0.004830557929111084","-0.25506841814354797","-0.040243837475199676","0.025851807231473057","-0.06440006729141139","-0.18207304878350075","-1.0602508697523918","-0.9668894136340811","-0.3667114520775092"
"-0.03513482745505341","-0.14498260099904292","0.08088421426554401","-0.18170605596915426","0.010350201374393285","-0.3779300506108088","-0.9189449155418908","-0.9234775252788416","-0.41251901947028846"
"-0.06959316538792266","0.1543136998296932","0.09103942969207089","-0.22501944986776","0.044485177283155625","-0.4797158727314191","-0.7061311083465741","-0.832733789258661","-0.4851751944774695"
"-0.07827584935322074","0.17553184911938743","0.02446925264509623","-0.2405091398025406","0.11706292839253278","-0.4081153825164602","-0.5032740908073708","-0.7505740997268442","-0.5339413798087579"
"-0.026349994266634168","0.02826986665930639","0.056740218737126265","-0.19102376148262126","0.10289662449178516","-0.5374377322804341","-0.30796009573492067","-0.656269180333782","-0.5599398098546225"
"-0.00031329228442005853","0.044737946798680525","0.07718822885772654","-0.08960909810821403","0.10413824652314771","-0.42409098322338157","-0.12722927743152576","-0.5596654373455388","-0.5537335136043017"
"0.020632973412256554","0.05957900009075219","0.13194244548924838","0.038070345422957466","0.0911044251784102","-0.34951058821334924","0.007187382926007758","-0.5011849596438525","-0.5028078772489291"
"0.045423454872392605","0.09929927199474231","-0.0060798739358092465","0.1990954280123132","0.07963194032812652","-0.32713371053923296","0.09805566024215505","-0.45059755255220996","-0.4460670263247627"
"0.0374115508055901","0.08010843336933492","-0.021731264508219907","0.31193323997294203","0.12034738460372758","-0.3771298909899095","0.198176711784186","-0.419583366013756","-0.32510376187330325"
"0.023001700397299315","0.1137674865439566","0.014772012949859793","0.20838326908503194","0.08763764184368543","-0.39222255694273517","0.2691816966045522","-0.36656425535033227","-0.2607929298788825"
"0.013834375117859753","0.12270008142491391","0.030846634658875417","0.14464259771459467","0.0971751479956616","-0.1819102576882143","0.32218400113760126","-0.3227935910582726","-0.17973019907400653"
"0.011391873693896166","0.050286512256620085","0.010383700685524331","-0.03098520091931743","0.031828850123754825","0.027535661838849923","0.32711210914921235","-0.31523272038972927","-0.14833314146793122"
"0.0026603850997735184","-0.06216579524185449","0.05944283519621803","-0.10147025849207723","0.011627775232930753","0.09126699605792975","0.3192673657837895","-0.31952474363391115","-0.1374491682355192"
"0.0034117493853980294","-0.17809275269112465","0.030625575090004065","-0.03658777000369696","-0.026381010053929614","0.07758702571165745","0.3086065606974462","-0.33379605312075755","-0.1485371840843801"
"0.019265308813801108","-0.2213135661252754","-0.1874979589378279","0.06481594307576924","0.06383881624771363","0.04880335272813329","0.29191133763769966","-0.3501668662378849","-0.15181376843352212"
"0.02643050932006605","-0.25470593603243663","-0.07482520252121429","0.03930175586314536","0.11116939672350064","0.011676774069735493","0.29155932992258504","-0.35889708070050885","-0.10010086764968414"
"0.016280281515927388","0.008367009601358924","-0.014628443339631874","-0.019771103418333897","0.03609042563781095","0.13204754501273103","0.28547462513273764","-0.36822525505783305","-0.06343270911867879"
"0.006729329154099496","0.16840389732017713","0.033671673347563665","0.08713065320289279","0.02589936662754777","0.26398558898571395","0.24308283886958712","-0.4000765854488672","-0.05119185248688154"
"-0.10877306741172527","-0.6681167837548864","0.13787467695769487","0.35149366915084573","-0.015333527160606644","-0.214181522950417","0.22613618172761665","-0.39892052965244673","0.02816032105009775"
"0.06076740317655793","0.19257368665749203","-0.0645347396791332","0.09462762331207228","0.06709630858852726","0.432852379048755","0.20788206735807443","-0.4193707580511959","0.03191640554789469"
"-0.0601046375513355","0.21167908307099464","-0.07112222155741987","0.21418692540378326","0.0838434400829033","0.2653982845922673","0.13315585812077818","-0.4568030474594326","0.11654648143035232"
"-0.016282620832360435","0.21764191379877568","0.016447681791536536","-0.1468144343615668","-0.015502115550180483","0.35206384904898635","0.0735156938169868","-0.508785694305376","0.10950701116286507"
"-0.017020365221568783","0.010099389285097973","0.029154176482854018","-0.16353852118061013","-0.12300668156184767","0.2838571392950833","0.009400002849588534","-0.560250109242579","0.06915758376009404"
"0.008965262149084765","-0.03277885266247324","0.043884485518300695","-0.0838223649725534","-0.054319431750328336","0.2762970104631377","-0.05959350931297662","-0.6110899882897618","-0.01865215622869238"
"0.001237105924285451","0.019012332457317167","-0.025574156591553158","0.013054894370830062","-0.01985318543402562","0.3016262012212619","-0.14050499697301042","-0.665278442747266","-0.03194893340061269"
"0.00623447291764591","-0.01475313510849507","-0.009458727472672037","-0.09464424281837601","-0.020519578230589385","0.31230419340360843","-0.24213465300839232","-0.7152678899442084","-0.054036546631206696"
"0.005698756991943857","-0.04526636139025789","-0.018608914690511638","-0.0663914863891338","-0.015471941695230099","0.271518126106594","-0.34577578170157414","-0.7608058579250488","-0.0875505463829394"
"-0.0019124951219501266","0.008380732138422423","-0.018044606508371683","-0.05954655656962534","-0.03974096583089678","0.2544636894970117","-0.45057350717299227","-0.794331476021244","-0.10222291086075276"
"0.003272145447132435","0.0011272061792914484","-0.006910013245072984","-0.0805462358224658","-0.051828483724637185","0.2788354478811632","-0.5506442718985785","-0.8337303890831615","-0.1480117743470242"
"0.008098128743922954","-0.02444694242278612","-0.008024638497399008","-0.06622424552094336","-0.04610957521616898","0.2937625635675959","-0.6711817709172865","-0.8764778775554007","-0.2028499278728046"
"0.008255892544076751","-0.041465477539462156","-0.008409394076130795","-0.030939408776836718","-0.035896688310835305","0.24874392779313462","-0.7858859992283728","-0.9119568313076165","-0.23453604585218252"
"0.006220853021229748","-0.0247446955854847","-0.02585397883063082","0.01159651418095515","-0.022143830422599327","0.23219441949605088","-0.8983776076158788","-0.9430108818390506","-0.2423882858751912"
"0.003002017501545388","-0.01741996778309971","-0.010622321616836652","-0.015742390361389347","-0.03844156407728883","0.22569105319791374","-1.0210774397417228","-0.9685637013392419","-0.24830212104193533"
"-0.001259875085342743","-0.019214254233100702","-0.03480829048111606","-0.06707637756362796","-0.048047121902131826","0.15856593851777806","-1.120947057201528","-0.9901832735320716","-0.27993212730178985"
"0.0003688375277556501","-0.09801786518869961","-0.0645510626430794","-0.07297858653684866","-0.08465635391682552","0.013344693003644654","-1.1693229746216358","-0.9995645998800359","-0.33717628334653016"
"-0.0073615886797796844","-0.23346707347925036","-0.022130011198905574","-0.04117594358399283","-0.041823603819387004","-0.1949914879043654","-1.1333679008634474","-0.9855989143393695","-0.3749411709409484"
"-0.019653545195358522","-0.14875500411253706","0.10878948705756403","-0.2725735943526231","-0.010529335854974701","-0.4411702523729229","-0.9827588856106186","-0.928792724342844","-0.4564051855581739"
"-0.05736930835442458","0.14012770349555842","0.07091321514640993","-0.189391172055048","0.03775191365082349","-0.5256008882333368","-0.7374597949918207","-0.821731327196176","-0.564530768724723"
"-0.07817370013009962","0.09707777448521727","0.0087824179224024","-0.1492633185029267","0.10958623233397632","-0.4547177825060808","-0.5205224688480123","-0.7380435179334588","-0.5794088761741223"
"-0.03126450689012968","0.04693873104471349","0.04372685232362028","-0.1311754222230447","0.10677171786371087","-0.5736656489094288","-0.30202625139440875","-0.6426489827322759","-0.5810412171057135"
"-0.0016582570555152424","0.08023789126616038","0.05197624511682904","-0.06243345250862687","0.10632745599933503","-0.4267397874856691","-0.12546923885595032","-0.5547223022160166","-0.562745395830795"
"0.009241065051511864","0.07450808475266517","0.10319537412800309","0.034345254180287214","0.10021050940428732","-0.38717327381774963","0.017697327563016722","-0.4918700732841884","-0.506174580420336"
"0.043229516558023824","0.10696835780268302","0.017199237688659295","0.1575938101857705","0.11640552355276274","-0.37144599851041754","0.11651092187747701","-0.43730955489220397","-0.4350997356906339"
"0.0357646783306035","0.12793276961459932","0.01716519264957151","0.2526324154604174","0.11650567507132147","-0.3508073986334275","0.21502279529326743","-0.3993058815845869","-0.3293036390618766"
"0.03522896240490144","0.09079129901537254","0.022106993302802594","0.23540063314865314","0.08979603546800853","-0.3680246263382962","0.29130789584036","-0.350459202186405","-0.2685397478833926"
"0.01567306113404053","0.07799568049314327","0.03428495042154221","0.14340820083033193","0.070884090380171","-0.16231462448949993","0.32520121012430203","-0.312415664885808","-0.19689188347249653"
"0.015956808976043742","0.024768807297558426","-0.004496546433028131","-0.03233606912249849","0.029307086246199463","-0.04266041028287533","0.3276652641301078","-0.29874231529366185","-0.17261591318048802"
"0.0022960528706414255","-0.0775220909632915","0.030831011250526917","-0.13035912750925807","-0.0019419851354786496","0.04485497887466099","0.33535914704619524","-0.29645677969614087","-0.15715458391907222"
"0.010381731376364752","-0.1750427246419166","0.02303758879589521","-0.0462877403587421","-0.033653551093885604","0.0941917174308722","0.3210776911758103","-0.3105021932227671","-0.17915377868253837"
"0.0001180044354248165","-0.4410994158817456","-0.059992291998105796","0.1465141026681543","0.019031283643309676","0.012240196809692898","0.3229885902007218","-0.32080039140927175","-0.1754197988015234"
"0.01824608656532559","-0.0655420571910627","-0.06054260906829187","0.033639457897269257","0.1227125012343065","-0.0075736868235495546","0.31574728863263807","-0.3256505105551739","-0.12799859438366074"
"-0.008042583500587362","0.16531244274398496","0.07355520345370153","-0.05587621680166028","-0.03611239927388485","0.2729722092797456","0.2976943215288767","-0.3519341699266657","-0.10628335892808598"
"-0.08758277857092588","-0.5928240709611942","0.06320877616380492","0.3791381864701811","0.007757817836315755","-0.17887792864211646","0.2810493852855755","-0.3563192091544677","-0.057231513933769136"
"0.043947966093975936","0.16540565242969932","0.00587133389519777","0.055234435002358986","0.011826794276220508","0.3970935215078738","0.25882261241687815","-0.37700862151109693","-0.04481722107799033"
"-0.039731542495505354","0.17441333289081537","-0.09210189393226771","0.17875774386272655","0.10040824445374939","0.2888788307090033","0.204361990206923","-0.42863249242022006","0.0007914047637512495"
"-0.020799886477051503","0.16234526774874522","0.07536938430372173","-0.05179175678865226","-0.01636650019497186","0.38318729913086447","0.1476384612569428","-0.4759776280828213","0.008891896636772775"
"0.0040916092148376975","0.0796605090463188","-0.01452817370396238","-0.03426431651347986","-0.042425796924566966","0.33699877480722623","0.0632571832622029","-0.5375807852346088","-0.007315888529818579"
"0.0018114115564999511","-0.03530587080850638","0.016809585220743647","-0.10834903467776708","-0.07684838745072872","0.287692387133187","-0.023185854206783957","-0.6059475331953394","-0.04708209412057316"
"0.008984557002340979","0.017662604425014834","0.0020354373678414667","-0.0214026973645489","-0.03162355685233009","0.3190917543257201","-0.11405413152293069","-0.6554719004741816","-0.08232705540184741"
"0.005131261307937438","0.0015942902710377371","-0.032795902211749196","-0.08991670184792144","-0.02204753088552364","0.3416893656883603","-0.20175433940304285","-0.6964122212646601","-0.1188234780640083"
"0.005012087214296108","-0.059416109513281544","-0.00786840441391398","-0.10543227429801727","-0.041990523016984874","0.35852030943831215","-0.32545990785778717","-0.7500160038251241","-0.1634458979262468"
"0.00018496892613757818","-0.029736592087074742","-0.018587928022580816","-0.06334531343280804","-0.048834210118497125","0.293045179079893","-0.44931633676186694","-0.7958861717474645","-0.20737967395797027"
"0.004009889836340783","-0.03270117792437796","-0.012541435806510962","-0.04255568074656391","-0.0591742124127707","0.2615078533320325","-0.5818220980944896","-0.8406800118593447","-0.2366461865772916"
"0.007249155200649367","-0.02404821210056368","-0.008402398520153854","-0.00807648706571035","-0.04233720135045734","0.2734550642233917","-0.6954200164437854","-0.877182141431381","-0.2630799075382473"
"0.0026978398149179552","0.02528456755851109","-0.0012991109811673598","-0.008595730142187317","-0.03199077908704538","0.2716422888063887","-0.8075093302997304","-0.9101895276188356","-0.284795142993822"
