"AccX","AccY","AccZ","GyroX","GyroY","GyroZ","MagX","MagY","MagZ"
"-0.026111646079351486","-0.04144217511803357","0.042785017303924706","0.014715357276435082","0.007290572482424515","-0.3374254187666625","0.2562579847781822","0.21029429906584615","-0.04043200517947593"
"-0.0011202711470771687","-0.03679722577993577","-0.03140378657233782","-0.0036311650603271317","-0.010474380919150175","-0.3708389808669767","0.180827760110655","0.276907031335456","-0.021503651793565826"
"0.001960095425709627","-0.007115637027379754","-0.020810182971255926","0.09338028517015197","-0.006224232950160361","-0.32153259319293753","0.08995948279450713","0.34794466682584785","-0.0058484820465235544"
"0.007862050539376293","0.0768409160534601","-0.028694174557269105","0.06818266102945998","-0.011183659109558312","-0.3238502969224391","0.008444553337133072","0.4067839204643542","-0.031006936654673578"
"0.012201122539289318","0.059695512197895116","-0.049139852825877066","0.014417708350310442","0.0016469060122581048","-0.32106353410482413","-0.0638176018943579","0.4478969852244126","-0.06589652371229932"
"0.0027443744610064734","0.05504020622805128","-0.026084832177869895","0.03459810644528942","-0.011880867757986297","-0.2820488546582145","-0.149908631648229","0.4948567689548736","-0.06714288402777471"
"0.0010509673399313588","0.05424792389947941","-0.02597989883821577","0.0480619918159776","0.0007775137915387911","-0.23583825696572389","-0.23348532057984892","0.5351725538553318","-0.08451201175298778"
"0.0030031524929133983","0.015248214649219854","-0.027085196682572543","0.02926133088356969","-0.013780151427884408","-0.216913102345901","-0.3314943258311892","0.5757939627019699","-0.0757806881241117"
"0.009079896277254055","0.02464012614811391","-0.031042349513529164","0.030098530705880137","-0.019235584402913536","-0.20115547615639695","-0.40239873701866474","0.6074725491234241","-0.09206498927187143"
"-0.0005039708342462117","-0.0036528972030921347","-0.018816449517827575","0.024486006807917852","-0.01510574665557695","-0.2052804369606884","-0.46988364468787897","0.6329589286353154","-0.1225217504871447"
"-0.002708124070927115","0.003648269262070612","-0.006669832489864652","0.037014139701826224","-0.02313507365756508","-0.20488587549245182","-0.5539632017839495","0.6620330675154085","-0.1381395124211713"
"0.00910486608735034","0.018575282597634385","-0.0208894659389946","0.04755529180461491","-0.023209545299570276","-0.17175926718721882","-0.6258733493003253","0.6868018951536596","-0.16650313646270623"
"0.00404507456874918","0.0043890273477059415","-0.02773111968444348","0.034170049461230576","-0.022037258934902233","-0.18833084885315496","-0.7115620845226365","0.714480794279452","-0.1791197715797969"
"0.006240147874485982","0.013097038669250416","-0.017328727946731327","0.02983373266457862","-0.029041445264873966","-0.16991062254583067","-0.7932278744293454","0.7380669901259627","-0.1994322140472854"
"-0.004558160000787997","-0.0012278918797574679","-0.005343008706238064","0.04562505345091699","-0.04709183049434099","-0.17847233048945368","-0.8631265492879208","0.7587829784779117","-0.2355205514765485"
"-0.004433310950306615","0.02141766018033436","0.009684378273029402","0.09930041280782168","-0.08243761258260165","-0.1738203680038113","-0.9554028574645288","0.7786352469819608","-0.2907208806465257"
"0.011442948305456746","0.11655600964157718","-0.003922910842918921","0.12103973470986147","-0.0911225468330011","-0.09171019504400539","-1.0300284930689354","0.7881361653088651","-0.37237363468396634"
"0.010378326402260721","0.19859865717574932","-0.03150871991199194","0.08699924966360031","-0.023870802120823337","0.10373844945953338","-1.0519535450389634","0.7801633667128615","-0.43720817606060597"
"-0.03246759774022329","0.18941750313288713","0.06538672592462608","0.05601091046181456","-0.04416689255489543","0.38106273737882135","-0.9302091624255744","0.7372962862616823","-0.46800160759302"
"-0.02314931860883801","0.004265006682547144","-0.012061074296094309","0.0346030838520808","-0.033905213884110066","0.475453980933879","-0.7666261485299314","0.6796263764172563","-0.5104084647116508"
"-0.0866634355628355","-0.12390944455379324","-0.0009136558468378796","0.061805607448341425","0.037151004539471205","0.5106334125423848","-0.5603496274724663","0.6072599411608641","-0.5109185712527731"
"-0.0403557877479124","-0.06350697905296634","6.385650834009398e-05","0.11229940838419475","0.0004299366623869397","0.5226082151448096","-0.3875641261673844","0.5196920365814248","-0.5459798941792432"
"0.001989605201277952","-0.041820192176763936","0.011060637318893046","0.003178325622826686","0.04445821341277444","0.5162069381776148","-0.15991570812078784","0.4173877425970389","-0.5331252093429623"
"0.00784389067748809","-0.08368169769424728","0.007320113538022375","-0.04625986688071035","0.06954745280556045","0.3533330677579991","-0.022682986042333833","0.35464181764649083","-0.49889706043365833"
"0.016590134159394893","-0.07062975253630359","-0.02714116113038807","-0.04119286676708352","0.07490684304227942","0.3441726196842549","0.051087773682508074","0.31024661746441096","-0.46439685470242265"
"0.01653338459099424","-0.03770084189977754","-0.011431474258169566","-0.11260969489119002","0.08983327128901111","0.3291351371535602","0.14944878664896413","0.2601242902908685","-0.4057856131274746"
"0.017944178861434176","-0.05406949837438972","0.004734322863745533","-0.15314569580020462","0.06129265648743244","0.30140546753273795","0.23086314247344808","0.21432056235682798","-0.34635820108673093"
"0.01807583786012368","-0.03314133477358455","0.013465243093367102","-0.12752200563817037","0.06981837550320005","0.21271467148381157","0.28346315247493714","0.17853598465843193","-0.27618114386940407"
"0.013794650419979316","-0.00877088569619019","0.02445945886672851","-0.08423648521759636","0.06137354809857601","0.08045656366246888","0.3127803664623821","0.15932154004206334","-0.22993148414098555"
"0.016738818028604566","0.041698275381218536","0.03152823499622876","-0.03194285398597932","0.040453436664253474","-0.02077218181172898","0.32052453619491483","0.15076406954901952","-0.208427092722408"
"0.020394625224973872","0.10315193900426824","0.015526367069373328","-0.029981755710174827","0.03771339383599322","-0.039680505487801894","0.31358495552550264","0.15621214858962196","-0.1848159612889955"
"0.014466565309842892","0.1293930546907906","-0.003286315249017234","-0.04488311616221412","0.04500005880805363","-0.045609964195776724","0.3123780719308227","0.16382617124880536","-0.15680771147110908"
"0.021455842154065857","0.15018140376302427","-0.07683292708659653","-0.0368217081228919","0.12222073159830664","-0.11311032614640312","0.2879889659549888","0.1857513673878152","-0.10805342862578023"
"0.01054744011609462","0.15386577550667707","0.028713922826705155","-0.07361768556886211","0.043712212998894766","-0.08037552013830014","0.27320464192015376","0.2007668047436219","-0.06085667108601135"
"0.007985764598489684","0.1761920843931973","-0.018641560618404034","-0.04626384880614347","0.05680638205353304","0.005061937258893776","0.2637004336120445","0.19594326159303974","-0.017834285407759668"
"0.013226019744604887","0.08178620771219298","0.003706908875932044","0.05215939308664321","-0.010874730194619504","-0.046283201945774795","0.26480674357383543","0.20412866815160344","-0.016115226364177643"
"0.02635332990704118","0.022749781938668428","-0.05026846919015698","0.07753222194639184","-0.010916203195253436","-0.12825541635025323","0.2542967989368265","0.2213233371236511","-0.028626439462769694"
"-0.0687532717755932","0.2434817100051391","0.01555831344166803","-0.3581451719100616","0.07801282411142729","-0.2968380117893197","0.19360061148768953","0.2625559938626496","-0.010908738934456394"
"-0.025362551776463016","0.1032788077431572","0.02448277738665165","-0.12813920408030172","0.0446623684313749","-0.11697592486667895","0.17162527270121725","0.25122133185866447","0.0884736181172571"
"-0.0488455231806483","-0.0749458788164647","0.10625010023793423","0.04270331566437579","-0.057460080652823445","-0.22299707463584262","0.12249505303443428","0.28911870118500155","0.11154743732735414"
"0.023041425095179764","-0.11080571623711935","-0.1010002411349374","0.02161902049608185","0.005521999384183806","-0.2598071763683192","0.06189943921818745","0.3333943093881413","0.10316468650157824"
"-0.00010104889860165154","-0.044683800854543286","-0.044996151835535333","0.08289587550478501","-0.0013277224883185247","-0.2611646885527415","0.008947421501583756","0.37725798966382096","0.07373153907882367"
"-0.0010941663456128744","0.025910625947559055","-0.031814192522985056","0.005973438180595134","-0.010008419559086611","-0.28306974796763784","-0.06306329964768272","0.4238457094598019","0.06645401909214606"
"0.008931212408044379","0.010130226156121799","-0.04222824352065878","0.018717192336706167","0.023820580620540575","-0.27286081487340474","-0.14563425225040239","0.47221402094222353","0.0674062179689076"
"0.0005356812588535291","0.02123020514573108","-0.024044461684595255","0.060516459089373496","0.01726450813642771","-0.21447675425881782","-0.22956294889713805","0.5129550217678017","0.06449861068451072"
"0.009931139803263662","0.024823956361606076","-0.027159815946326587","0.08882595795603748","0.009706920466727689","-0.2145871211030798","-0.30509374719755483","0.5504803271596586","0.0399114754024176"
"-0.0008172284518177461","0.018897373844936147","-0.026021872174077424","0.10720254382981964","-0.011619318215288726","-0.19153148733675238","-0.37680274744815034","0.586929304741055","0.0072068446959322454"
"0.004780548975221488","0.04889613444471456","-0.037191443217260825","0.07626796062138083","-0.026966511239349802","-0.17881170853555928","-0.4544455920392589","0.6170000434456484","-0.032911334408196685"
"0.007263910088433539","0.04054610009947187","-0.03148306954007649","0.033532941391933684","-0.011202020221294077","-0.18809631930909823","-0.5207236161137926","0.6449447025246409","-0.05752907608275712"
"0.0037965114591543662","0.008207517472469948","-0.014276333688792478","0.02497976556162294","-0.018404840396407267","-0.20335729469942343","-0.5873033610869961","0.6754140811590346","-0.0778449192605198"
"0.0028737634769599356","0.002007002046117328","-0.01868120210227337","0.04077805471746925","-0.01977871379202042","-0.18537301742693393","-0.669824026873271","0.701325676596046","-0.09860795583933299"
"0.0026774099702937316","0.013459417214044265","-0.018702188770204194","0.06065483099817393","-0.03292295860593805","-0.1962551882711651","-0.7518418244950957","0.7264798561664374","-0.12712801255347875"
"0.010229642533051045","0.040957776211376855","-0.03100970358563677","0.06309176936323453","-0.04234618930725107","-0.18295874270870313","-0.8501022638286612","0.7541321792969098","-0.1608681595384423"
"-0.005466153095198254","0.02420074604628827","-0.006452970254579466","0.05147549739350733","-0.040308491102729514","-0.15883530972414103","-0.9307623174064699","0.7748880316418391","-0.19690548631359314"
"-0.0038658152663001966","0.07806040944155601","0.020671878312652946","0.09907443853949292","-0.07540646238224874","-0.10760577978883692","-0.9989009536894697","0.7915777567028064","-0.2543162771617668"
"0.012700518741214945","0.1581327077860445","-0.007933696269698767","0.14661365080398192","-0.08277401896545274","0.018552904384367446","-1.0259049741204442","0.7905412928853259","-0.34190327062759646"
"-0.007724785917543788","0.24480735886863186","0.01615107021811421","0.12180625535573429","-0.05043920240309193","0.27318742462605644","-0.9635493217286215","0.7583311865574718","-0.4271420736491267"
"-0.023387666796120733","0.12144175066777035","0.005305393416663198","0.049878745294832","-0.07302080185042702","0.4768335664871537","-0.7982062692574019","0.694030565880703","-0.48612739335423105"
"-0.057221759476582916","-0.10093584618314566","-0.08333179858917528","-0.027960928552873753","0.028857688406512916","0.4671212841920996","-0.6070157931334434","0.6295970652273339","-0.4911944516627123"
"-0.10010173336010732","-0.11093517413394482","-0.019672239199006764","0.10894463620680334","-0.019480827223999627","0.5054461708620718","-0.41703220060416485","0.5555430542681208","-0.5053244028517989"
"-0.0026627244162066074","-0.02654674950929521","-0.025879629202546276","0.020346795320204617","0.008638637602101384","0.5814061514253789","-0.23428990964296945","0.46163677480485876","-0.5277010764556956"
"0.002129209139543526","-0.10277932663394033","0.011825717957571223","-0.03147298678487286","0.04923210246407324","0.4294585985876992","-0.07654016645494709","0.3813506929431028","-0.5043211933209251"
"0.025586075742264517","-0.06770918238392103","-0.011380173514338662","-0.040536844551979395","0.07915686261188648","0.348642476876865","0.03952180590015407","0.3177942001352943","-0.46179531134269913"
"0.028770861520908488","0.007587931978263257","-0.04140743161936429","-0.14464428500052426","0.10506657406055735","0.3077515610778017","0.14612985676359241","0.2715121042854936","-0.40003841276416374"
"0.022527274005469965","-0.06905295535296939","-0.02095009409079476","-0.20612521368767409","0.07333138261572116","0.3163601749302361","0.21567652390705194","0.23252511915103613","-0.33564596372316335"
"0.014409815741442263","-0.09955582500298617","0.010405386909052851","-0.17644991439745492","0.08528022917607259","0.2015924527533106","0.27219890559125354","0.19917224502442119","-0.26476325912395077"
"0.010327251790700142","-0.059374682986297396","0.003725563691870553","-0.09440333632967314","0.08558838769471477","0.08240453846369283","0.29668858519997643","0.17741979285499146","-0.19829977752599398"
"0.013905879574044575","-0.016762321667226337","0.03181855056927183","-0.0038873024138116473","0.026301256695610314","0.01785097125486126","0.30503619672984994","0.16985892218644807","-0.15370116263567452"
"0.02606958206503797","0.10456820839553885","0.0143597415176187","0.028778522424805646","0.06086251855516104","-0.0578275738555778","0.29789546879465695","0.17355298553592968","-0.13828744331809678"
"0.024883516085464585","0.14390269576698905","-0.055869577675694886","0.007229536558468283","0.11061727937760003","-0.07018866041291946","0.2950794070737365","0.18369172775051426","-0.10599599890992042"
"-0.0035139679422162154","0.20093666679241726","-0.018441021347065042","0.063712949730799","0.25039156346456487","-0.060363252102496774","0.26033121691022854","0.205391027929304","-0.0019478673620753068"
"0.007891560314944618","0.2565491901107018","-0.01522539744966422","-0.06163308549657265","0.06206690476552097","0.10440616886731835","0.24856410186209482","0.19577051762345968","0.05356532715312356"
"0.028187475957749897","0.06597163103599381","0.010811828711313155","0.04617157271661073","-0.04607362338899405","0.03470674754477201","0.25444765938616143","0.18637590327783543","0.0705178678697534"
"0.017686535820895282","-0.08717447175059842","-0.14200119471579212","0.14744985514493408","-0.049436403223677094","-0.10670353083699526","0.26314727863115017","0.19495994976619935","0.028332056918942253"
"-0.0879913754634105","0.5717273857219864","0.15297808231191176","-0.31527974462268027","-0.0015942796069440307","0.024892100001664873","0.23438321962459951","0.21111815492076655","0.04295511109778046"
"0.0015832782915293612","-0.09762949149822321","-0.011291563138630735","-0.12605864804150405","0.0966384385756931","-0.3411502997605043","0.20400998249180835","0.21434713835214797","0.10632734705653633"
"-0.031809302746775854","-0.1484313593704734","0.03600795585866293","-0.06446124803543588","0.04588986653063301","-0.2621000475578618","0.1479401821556132","0.2520053237206048","0.1446363482948183"
"0.02221515137926643","-0.12090084303156935","-0.1024250027022412","0.0809238269340395","-0.04374574257941775","-0.2917335452422032","0.07919810407527311","0.31534920856585325","0.13303992625997213"
"-0.011742655360309166","0.021469184423270896","-0.015806028595750376","0.10033372245771256","-0.016426591106107093","-0.2673038442648141","0.01513269992432019","0.3679431033041568","0.10491605229276474"
"0.003201775982315643","0.0010909579681803155","-0.029862432405418353","0.009671651426591923","-0.004625660634703934","-0.322001652281051","-0.03912677501985417","0.40936179201039535","0.08605911382261171"
"0.006904117824773467","0.00892963362096241","-0.038462302553071884","0.06399367547383293","-0.0035930727984870192","-0.2742348820844664","-0.13250939315825322","0.46086607094057835","0.0706708998320901"
"0.007376274233866809","0.02600668370700355","-0.03601152610915002","0.09090651399483514","-0.008499213214036424","-0.2791241332852721","-0.2120128499578262","0.5071747427856991","0.045148569224606215"
"0.009649661943996494","0.07336108778679151","-0.028267445642675672","0.13565340104935888","-0.008012194355198975","-0.2712218672361144","-0.3172128699608038","0.5594630135778225","0.01532434012032453"
"-0.0043538615545457016","0.039497491135185574","-0.037557543980054106","0.10832743776467198","-0.02301437823776355","-0.17948770545666387","-0.3958111640643672","0.5990479586069803","-0.03433113094765366"
"0.005916675334602315","0.029145002041846547","-0.04587059633265304","0.04107968556902699","-0.019804393668573936","-0.20042705498426788","-0.45519989428593405","0.6270989216672528","-0.07481148569597941"
"0.0034934687638949434","0.024365675406843916","-0.02462509283068141","0.00439838757553023","-0.02594830413400286","-0.22146021632949456","-0.5422966603687054","0.6575417243063266","-0.09198847329070309"
"-0.0038998650073405823","0.004993595725880877","-0.006021577636001402","0.022300925226501175","-0.016328108779524356","-0.22352959465940667","-0.6276836746923461","0.6893664787020408","-0.10008216374317633"
"-0.00319617035917262","0.025450273666447695","-0.020355471832754726","0.05072888637480004","-0.03038707079627825","-0.1952149807639959","-0.7287098889303872","0.7172314097950732","-0.11746829501976014"
"0.008040244184154314","0.031071335546609513","-0.03843898403314874","0.0537282717072868","-0.03790999063263103","-0.17050108516263224","-0.8027320827374536","0.7399273097983633","-0.15340870155209774"
"-0.0018046709419888979","0.012996708799210678","-0.011363850550392463","0.049176930937247156","-0.0432642448940393","-0.1574502058286532","-0.8755473929498401","0.7642709215114944","-0.18955315070088424"
"-0.0034799182011758293","0.04478196248360119","-0.0032443419131555893","0.08932071219110085","-0.06365021489604869","-0.117257360319547","-0.9453957809919705","0.7791136148977209","-0.23943306864695624"
"0.0006593953179669206","0.08984625636854662","-0.0006678786468479985","0.1229311492905866","-0.07975534947658681","-0.05579958309226394","-0.9893464585649162","0.7850001978611034","-0.3134903362870864"
"0.008748478797794298","0.18235428028208958","-0.006021577636001402","0.10421609975499047","-0.04761955195751577","0.10239473313064379","-0.9890950244826912","0.7704498404233973","-0.38701369241417527"
"-0.012060452943352762","0.20778498953448457","0.0795037578860942","0.07674081426656211","-0.08330174042862751","0.37758618178456904","-0.8839452912961578","0.7313432633099997","-0.4377182826017283"
"-0.005920149642403394","0.01661062955541108","-0.04529696074254383","0.06054731901148007","-0.04693389925353687","0.47501251355683105","-0.7306207879552981","0.670152034085672","-0.5003423623001715"
"-0.09003435992583358","-0.11345701396410494","-0.04286950281854509","0.030631113232558002","0.06592659021151456","0.5358798281673125","-0.5234391042018235","0.59805135878248","-0.49284379614567414"
"-0.0711708033894605","-0.08621389415615344","-0.019553314747398753","0.1008414179504335","-0.025943168158692152","0.5413981703804115","-0.3338075193876601","0.5125430938403416","-0.5095242800403721"
"0.0030031524929133983","-0.00990519578817494","-0.0032723241370633525","-0.025897295697166797","0.015569636283895598","0.5265262381161099","-0.11852965818653759","0.4077273682982146","-0.5115306991021198"
"0.008109478657603097","-0.11984446659347353","0.01908600909120021","-0.04990034220792712","0.03136019237665314","0.38434615099561525","0.012216064570509572","0.34056982812454456","-0.48299873990201453"
"0.027608630360063356","-0.06245578093074353","-0.010251557150058746","-0.025725077422184984","0.07595843398714594","0.3541884108010295","0.08231588669486456","0.2952710441015842","-0.45718734892122803"
"0.022032417769016367","0.005815135539135297","-0.007049924364611811","-0.10449652182123746","0.08200732890932685","0.36975013584196853","0.1740893267070225","0.2387970540465589","-0.40619369836037245"
"0.018000928429834827","-0.07276062951805079","0.016649386988871685","-0.1307374104254031","0.06216962427173503","0.33277724301420547","0.25495052755061154","0.18273499191899384","-0.35084713864860684"
"0.023746254734715727","-0.0626370219862992","0.021774354616099018","-0.11247032750103135","0.05371195692883426","0.21143717526147915","0.3106180333552467","0.1416352151565954","-0.2972315404663828"
"0.025182018815251946","-0.030332098412471902","0.00710884774751874","-0.01260662408281872","0.023321107021574677","0.0630351572957155","0.3254023573900823","0.12760308962762915","-0.2693457162183658"
"0.02629885032137656","0.030123444826053433","-0.007597909582805571","0.056091544451834945","0.023526546034002813","0.009125920381730502","0.3324425116923846","0.11808888330306484","-0.2655403214215937"
"0.014439325517010587","0.1627750679662058","0.040935159118422125","-0.042327715515518616","0.06693324137241242","-0.05175739742116896","0.33631459655865126","0.12265995449810693","-0.24176085482961085"
"0.02349315165964887","0.20973203630273957","-0.10409460872873792","-0.09414252021380472","0.12545896403170512","-0.15288929598952694","0.3251509233078572","0.13923008758013436","-0.18588378431507807"
"-0.011107060194221996","0.30066844134882137","0.06126167975022285","-0.2460041969002263","0.0454969644193642","-0.06055087573774214","0.3005103832497983","0.16983234619112808","-0.12334812308376276"
"0.008176443148315837","0.10194280224791837","0.0010299427887557272","0.03734065758734088","0.0017411511592095126","0.015545407878228515","0.3033264449707193","0.16850354642512747","-0.08856395804463561"
"0.002869223511487895","-0.14037648902999278","-0.0851856209230648","0.20311717269974983","-0.07067109314578021","-0.057173650303325586","0.30966258384279177","0.16531442698672602","-0.11650589401217613"
"-0.06573419473667907","0.4848352453727322","0.09713255894798702","-0.2852659816706471","0.030177634061363694","-0.05107036381563814","0.2982977633262175","0.18565835140419518","-0.11199315147838117"
"-0.013286243620806614","-0.16286591486651308","0.04483145061237936","-0.04919056399947605","0.07874726858085787","-0.3295617811129965","0.2646055963080552","0.2116496748271668","-0.05433070806992053"
"0.016716118201244322","-0.06929633619900126","-0.06387016186132376","-0.06958399510512618","0.00334717063886646","-0.25389979102919674","0.219045740608869","0.2532145315076654","-0.06766829376513063"
"-0.011492957259346364","-0.06304869809820418","-0.042650308731267586","-0.07312193585244046","0.04235888350452443","-0.37547438832597985","0.14879505803517798","0.3086387697475502","-0.03870274400507146"
"-0.002344926833163012","-0.018779275699767128","-0.025872633646569332","0.002567498261388293","0.013489566283060726","-0.35875381142029","0.06521836910355862","0.368474623210557","0.005147714624935369"
"0.005008682240192057","0.024422895797240773","-0.034008465247752404","0.03410832961701744","-0.0065033732082970894","-0.3940436098730578","-0.042797712620341086","0.42991832439042454","-0.004460992254671003"
"0.00209175442439911","0.049157639396302","-0.014912929282694167","-0.0009674560418511674","0.011205341263625402","-0.40441809323368383","-0.16348607208838406","0.4962520087091743","0.0008254118664927205"
"0.015817205037778167","0.1338489954995232","0.0016637401602666326","0.10918355173278967","-0.005061062941668812","-0.30414981522167583","-0.29880789514192774","0.555915118202601","-0.029908507236123635"
"-0.0002883224743237742","0.041473018640742224","-0.03721709358917628","0.08754775989201061","0.004113714953988938","-0.21122369152419598","-0.38183142909265216","0.5941446874704381","-0.06646614268321917"
"-0.0038431154389399324","-0.022341957020404007","-0.014038484785576465","0.04088656218552138","-0.024154564756739702","-0.1976568471932922","-0.45640677788061407","0.6264079457889326","-0.07935823533251583"
"0.009849420424766749","0.02058291566160374","-0.03380559412442109","0.006477948132969608","-0.015581979966261919","-0.1891861918961853","-0.536865684192643","0.6554023566830655","-0.09276213487807185"
"0.002910083200736362","-0.02006867635214879","-0.030902438393990338","-0.022584333736822976","-0.015044114951848507","-0.17977190008063848","-0.6061609172538781","0.6819783520030774","-0.0921789130660554"
"-0.0006605996430319789","-0.03905756065850845","-0.0037456900915030667","-0.010643534844297677","-0.009165349211834652","-0.1911452033818354","-0.6842060563765461","0.7037308041725072","-0.09430605734253523"
"-0.001442608695592825","0.004440810506436128","-0.007667865142574989","0.06052740938431454","-0.03322726514309722","-0.15804342761656137","-0.7637597999925649","0.7279415359090382","-0.11329052244796879"
"-0.00019638817351472812","0.013403258378401377","-0.012173003191725372","0.086148113102274","-0.028979813561145526","-0.15211672807969306","-0.8293338086368688","0.752630635561329","-0.14500894717495114"
