"AccX","AccY","AccZ","GyroX","GyroY","GyroZ","MagX","MagY","MagZ"
"0.023737174803771625","0.07484208612647487","0.007659864373302504","0.008855257164669455","0.062012977024758595","-0.04126702887406784","0.3461205257654298","0.10033611842929692","-0.24206861910942126"
"0.019732925257422387","0.1333182181225388","0.033325393326705054","-0.050038714116727535","0.056482815608958736","-0.07116264781353145","0.34516507625297377","0.10837535701360052","-0.21188561507121692"
"0.029008074716823172","0.17579594322891137","-0.1506990026471228","-0.036930215590944025","0.14471887144684278","-0.17820193172101184","0.3215805593402604","0.13888459964097416","-0.15750995814272073"
"-0.004331161727185437","0.24795059660355429","0.050061794631139356","-0.14713298839621522","0.0773477153086912","-0.10540672041691698","0.3009126777813577","0.16087623576828403","-0.08256000405562658"
"0.007535173025388597","0.17849384579875413","-0.02039744516861637","-0.09221925022961475","0.05549799234313135","-0.004642343439951391","0.2967388720164218","0.15606598061536187","-0.034473960779167895"
"0.02325820844647022","-0.01063689182103249","-0.06434352781576347","0.07947938348318045","-0.028107981752153628","-0.10369879350196287","0.2917604771883653","0.16492907505458584","-0.03263417652085358"
"-0.08039828321140473","0.30708955303136454","0.12697793259761217","-0.3570202779752093","0.01211697688127525","-0.15342457518419755","0.27164575061035806","0.19457459783405914","-0.029576937984394185"
"-0.0019000102169019744","-0.0030765506464251495","-0.11121841656525676","-0.05793387676921759","0.06623218074250142","-0.27418797617565505","0.24026677714866665","0.20358386024754316","0.022367211098085902"
"-0.03655356666506944","-0.18489964890620775","0.139413699272622","0.01323209005260326","-0.022502064700520887","-0.33317629526257636","0.1820849305217803","0.2498925320926639","0.04162883409086257"
"0.042175109577139915","-0.11431661439902606","-0.10894019716876613","0.14048148563699936","-0.13079282013287397","-0.33240372735274243","0.11771780547215753","0.3108711533544312","0.0206005421106658"
"0.008092453787082904","0.06048002705265744","-0.06573797530716716","0.019798285091794328","0.04751026674115992","-0.3429437609797615","0.04037668177971995","0.3693516310561174","0.0024033414336975855"
"0.0018307064097561644","0.01141530291474949","-0.0050771775791142865","0.005278791288789869","0.013004216616199259","-0.3070193531724873","-0.04767553381550686","0.4216930538388809","0.027446171892526575"
"0.006841693299532766","0.02022794210850831","-0.05385485755433571","0.014025488695149543","0.008668169460137928","-0.2652206700793693","-0.15000920528111913","0.4804525794914272","0.014043972702107643"
"0.0005901608445181385","0.03297307205097564","-0.009346798577040969","0.07148765913893759","0.01766254622300722","-0.26477368436010823","-0.2424866607235075","0.5232930839472864","0.01400656488909202"
"0.0038975256909075137","0.06545897776456495","-0.016939308664014913","0.12470310610831857","0.0010689803904212073","-0.21844444231003599","-0.3082115298171457","0.5546926224178804","-0.003932181807040913"
"0.001890860952260845","0.04455929490106138","-0.03554282385869492","0.10383781683884544","-0.004755472410681962","-0.17038519997615717","-0.3812279872953119","0.5856005049750544","-0.038602423051984074"
"0.0077122316787986075","0.015137916521124554","-0.042969772454214586","0.048357649779385684","-0.010353813898731414","-0.17883102273330512","-0.4416727406622238","0.6119638923325061","-0.07133936050607385"
"0.006058549255603929","0.011493961532860645","-0.013823954402283593","0.02103367745741533","-0.014590223133765097","-0.1866808645314384","-0.5179075543928715","0.6473896940940821","-0.10823196591517303"
"0.006994917134214502","0.007638161642231539","-0.017804425753163357","0.023606996768559794","-0.007819081683516528","-0.18513021036955757","-0.5983664607049005","0.6719990657604131","-0.11752780744955775"
"-0.0024243762289239057","-0.024299360420405085","-0.014663421119516578","0.03191229774065972","-0.014798743731379654","-0.21499547842684913","-0.6675611201332454","0.6946551017707233","-0.111965945796188"
"0.0031779411635873885","0.009540001712915126","-0.016738769392675924","0.055630636582952975","-0.029557610783599655","-0.21076290994940222","-0.7652181176694706","0.7262406722085573","-0.13860030866331843"
"0.009351159214209112","0.03923080786772511","-0.04432457846174894","0.05472375306556319","-0.026993475109730995","-0.20678418521375788","-0.8597070457696594","0.7539594353273298","-0.17423805198125683"
"-0.008292281601550206","0.025301914916685705","-0.005158792398845268","0.04470821511994444","-0.03319259730974998","-0.17668162844130308","-0.9628955931148364","0.7813725744999219","-0.2043989514026792"
"-0.008133382810028398","0.07860154345028647","0.014037246387081693","0.1023346399878481","-0.060496726055276825","-0.10391400884827373","-1.022636331051518","0.7948598921248279","-0.25413944022751106"
"0.013761735670306939","0.1555047124804875","-0.03236217774117881","0.15601099482611105","-0.05287237070653766","0.036083573926940206","-1.0507466614442835","0.7932919084009475","-0.3283854472878565"
"-0.011788055015029674","0.23866587624323168","0.02859779659748793","0.08975573754466762","-0.01421003256139028","0.3134630452683592","-0.9581183455525597","0.761121666066073","-0.3907714772671093"
"-0.03558882400225855","0.12966491627412408","0.04311497436083712","0.03967506137249901","-0.0730593216652573","0.5054185791510063","-0.7675815980423862","0.6978043572161446","-0.424353491224325"
"-0.045656197436532285","-0.14916409106650555","-0.04990936398334065","0.027812905507277542","-0.011201635023145775","0.5239602089870188","-0.5634674100920583","0.6168538754713884","-0.4766564152407277"
"-0.10583343976857205","-0.12201935926014142","0.007752905267795829","0.1943270723061693","-0.01836632058157699","0.5138064593149168","-0.37076832947474825","0.5260038354699276","-0.5165977574106009"
"-0.018915800806150195","-0.03129785432278989","-0.0029178826342316482","0.13011852469734214","-0.008751774799940262","0.6362860647346479","-0.20366523842795378","0.42387228545512184","-0.5560459965907226"
"0.004121118990406043","-0.08366098443075522","0.03044462337540051","0.05180002431630544","0.01382212068442877","0.5064670641714951","-0.05074302961865352","0.32326885517121684","-0.5728285017936451"
"0.024591823303885284","-0.0811961060751983","-0.0005482546396422954","-0.004242788806852146","0.04765792603134264","0.3511257308727595","0.048070564695807325","0.2543307233111059","-0.5542606236967947"
"0.031095323842598745","-0.0007310324717413217","-0.00805495257329909","-0.06278585290945671","0.07417753454815955","0.3755443951657224","0.13722909025282395","0.18399735169669443","-0.5267828846816754"
"0.023680425235370985","-0.049018051240259965","0.008128566623757591","-0.12669575611080094","0.04086174670145439","0.35253290813709975","0.20929009821853523","0.13301130467525155","-0.4870965957823634"
"0.02997735734510612","-0.05540809302756506","0.016790697219605907","-0.11613369889948845","0.02700488531317667","0.2887684638647413","0.26053236417600883","0.09850237475221611","-0.44499580258840593"
"0.02605936714272586","-0.049787031147403245","0.011026125909406801","-0.08544002217975252","0.03550877643387379","0.08854369417576542","0.2896987177141195","0.0755672907910458","-0.4192184187103608"
"0.02668588237786894","-0.02918769060453476","0.007883255794166174","0.0012076707259827447","0.04619160508013683","0.007932027043926542","0.3057402121600798","0.07409232305078517","-0.3924208217500713"
"0.030902375310036572","0.04702417325661829","-0.00793602812169108","0.06119438189435973","0.044239934462069544","-0.0771445307725307","0.3023207086418191","0.07802557035814693","-0.3853473443798426"
"0.007595327567893277","0.18701994288367946","-0.10051754777252844","-0.04947825811201792","0.12656319872350635","-0.17109982529275347","0.31232778511437737","0.09751906292537564","-0.3477014816450195"
"-0.009801820121007249","0.3989787681980818","0.08589536419702651","-0.26696903430552704","0.06561457971138933","-0.11012214383801006","0.3165518776957586","0.12967601726259004","-0.273475878846319"
"0.006456931225776429","0.23293348057179997","-0.040087603391714646","-0.12015544358692506","0.04086046270762672","0.007900848410422533","0.3186639239864498","0.13307774466355157","-0.2194896032442128"
"0.029357652058171122","-0.04496084075374979","-0.060908709831085144","0.15627977479284566","-0.003502294434870336","-0.04788076201646694","0.314037536873508","0.14071834331805502","-0.20943710367383006"
"-0.1093859627504522","0.2355485300876744","0.1338965374588074","-0.44814664151183004","-0.03883831817004066","0.03483918775788639","0.29191133763769966","0.15817877224330282","-0.19493477470972412"
"3.855503966392271e-05","-0.17529905127763104","-0.018086579844233338","-0.00877133305378727","0.15247419416600488","-0.3360182415023223","0.2994543601044527","0.16285614741962492","-0.15144649172391408"
"-0.00992666917148865","-0.0179973500029413","0.03504839876382577","-0.008325456953415277","-0.05626339840542956","-0.1902567502855265","0.2676228052947565","0.1970063014058402","-0.15441021072783442"
"-0.007134590406177125","-0.09482802261092008","-0.053444451603688464","-0.007044471541585218","0.014831339832981986","-0.41777248138938333","0.20577002106738435","0.2596459223751083","-0.14712588932060852"
"0.011553042468153996","0.039642483979630105","-0.04493552368373517","-0.03593572971402592","0.010518404565818823","-0.33041712415602686","0.13018893595052164","0.32143511149413595","-0.14307394302896068"
"-1.2519571896656188e-05","-0.002153515842059563","-0.013185026956389592","0.017950671690833347","0.02179187037281274","-0.36096114830552956","0.037309185976573296","0.3899214514338067","-0.12268498458030382"
"0.010648454347847768","0.06660079641456558","-0.04080115010136269","0.009059231294980288","0.016001058209994683","-0.2932510893508054","-0.04626750295504662","0.44179779429846994","-0.12282781441181805"
"0.00353205847040737","0.03732984811073994","-0.022174316386759537","0.0652141356190798","0.02013937031659393","-0.2640066347924875","-0.12310575848303407","0.48098409939782744","-0.12325970461663491"
"0.0022960528706414255","0.06579297913837465","-0.008609933347469791","0.12749045391149247","-0.014072131624297895","-0.2274310626040676","-0.20969965640135585","0.5178051409137039","-0.15578239732345334"
"0.0033901845494057757","0.056989842154242826","-0.03374263412062862","0.09437974845386146","-0.005881149799405375","-0.18547234758676973","-0.2799503389750458","0.549178103388978","-0.19537686704536342"
"0.0021314791222795666","0.013689230872488837","-0.03445384897828435","0.0016169131123701687","-0.009343182356967756","-0.18928828122712765","-0.35105589742830157","0.5791425381122914","-0.20864643853509057"
"0.007250290192017377","0.0062886925257228605","-0.019366766588013642","-0.006475952137873572","-0.015909526791702027","-0.18696505915541295","-0.4176356424015057","0.6084691489479246","-0.21191452110854722"
"0.004763524104701294","-0.021081037105323948","-0.02521505138473682","-0.008210080663991043","-0.01748550081579136","-0.20993515861743736","-0.4851205500707199","0.6333044165744757","-0.21367268832028197"
"0.002731889555958341","-0.011876321725239516","-0.004316993829619963","0.013860238789675664","-0.022032122959591532","-0.23114766608458978","-0.5789557495571231","0.6654215069187102","-0.21887747539486607"
"0.001494748964824366","0.004476799801753609","-0.01662917234903717","0.05093096909053015","-0.038352968503179194","-0.1992185380395992","-0.66700796515235","0.6925423101427821","-0.24599813983119978"
"0.001988470209909942","0.01127266620402719","-0.015915625639389128","0.042967118224319034","-0.03337620842710762","-0.22201480972191098","-0.7681347530232817","0.7191315934604541","-0.27590738669233517"
"0.00640358663147981","0.00993422690032804","-0.011708964645254918","0.036695585667177774","-0.04558698972830491","-0.1925027155662578","-0.8706695717546732","0.7467041886049666","-0.3058421388805266"
"-0.00641954584432904","0.02298565422668443","-0.00437995383341244","0.06438489964763557","-0.04645496955581378","-0.1603280212927843","-0.9493181526746814","0.7653339613242948","-0.34271944109339214"
"-0.005057556202713664","0.062162979711388525","0.0068339223976249365","0.11593291534190357","-0.08620099849151956","-0.12333029592506241","-1.028117594044025","0.7750341996160992","-0.40786004639470513"
"0.0015719283778492393","0.14859683910588053","-0.031984417718423974","0.10016449062680557","-0.058946945505272075","-0.020020583602304902","-1.0838856734815498","0.7721108401308979","-0.4833898215835416"
"-0.019392497180715576","0.19197818033209488","0.033752355426497724","0.029594817138592282","-0.04528910316028412","0.2315763651681838","-1.0475785920082474","0.7506772999053081","-0.5224809861848777"
"-0.011856154497110446","0.08722085022092614","0.03241643742010111","0.02853064756659482","-0.06812364939167134","0.388512499366505","-0.9061720641648563","0.7062422357302482","-0.5473741853916442"
"-0.03092400947972584","-0.07558540082678251","-0.06336648183098395","-0.006950099908820617","0.02855081388169839","0.4881737597350721","-0.7522944058431011","0.6501270216120432","-0.563408534334254"
"-0.07859364693626435","-0.09730066844028654","0.005354129123302556","0.07107453437525289","0.025985394214002058","0.4828209677883661","-0.5223830810564779","0.5757009467183499","-0.5529683537926183"
"-0.020255090620405328","-0.04157163301485903","-0.008735853355054736","0.031846595971013476","0.012176040597348338","0.512371690339511","-0.3527153623709869","0.4929432972918328","-0.567166319187188"
"-0.011345408381504678","-0.06514591602677677","0.02663950729434274","-0.04443415406963146","0.05156640324278792","0.4262303683930363","-0.15901054542477716","0.40966741595657546","-0.5376141469048382"
"0.013408753354854948","-0.08054881659107095","0.005461627500148225","-0.017268463283627054","0.0561066054174497","0.35369176000185054","-0.045513200708371435","0.3546949696371308","-0.5018216712694261"
"0.020569413895647842","-0.024951828220405443","0.0034287189332489975","-0.03902172192468273","0.06967970416981105","0.39248570575993624","0.05380326177053898","0.30303123473502774","-0.47079019001782174"
"0.015272409181132013","-0.04517833002041657","0.0007811341811758363","-0.08819551457946156","0.05712866450427968","0.3893126589874043","0.15362259241390008","0.2439129331456612","-0.427193084303239"
"0.018345965805710726","-0.04985434925375248","0.010358050313608879","-0.10756260440472873","0.05983532349302036","0.30852412898763565","0.22729277850585128","0.19154493436757775","-0.3801442576603955"
"0.020568278904279834","-0.023025494715642483","0.006750208911100869","-0.09616732929653889","0.04959804070496086","0.18132910014681125","0.2823065556967014","0.15043186960751936","-0.3321262285894198"
"0.026484988905730672","-0.013483670972224533","0.011882848331382914","0.013261954493351552","0.05545690454064573","0.06118651265432735","0.30488533628051506","0.13823348775563393","-0.30023096692818174"
"0.02785265350418612","0.04006451672328113","-0.02047206443237042","0.039810446837224595","0.0635216697722777","-0.0067616627668920445","0.3092100024947859","0.1306726170870905","-0.27834059489348834"
"0.024956155533017395","0.12541610810031223","-0.011056046087407035","0.015437081261185462","0.09284937279022168","-0.04314050605541494","0.3174570403917693","0.1358017841838528","-0.2398054464219755"
"0.017708100656887514","0.2050404821217846","-0.1151592464322672","-0.06062167643656384","0.1489175312633428","-0.13373788933896702","0.3141381105063981","0.14834565397489846","-0.18226032751797294"
"0.005851980826625594","0.3598307001980603","0.05736981877505101","-0.23520322416292747","0.0609703740366858","-0.020703478451175896","0.28803925277143416","0.1684238184391674","-0.11990660428632456"
"0.01387750478984424","0.11752694386776819","-0.005732427988954478","-0.049433461450895486","0.022397915459475743","0.023225836570419642","0.294526252092841","0.16375973126050533","-0.07273705242874887"
"0.022131162018033484","-0.05050940621168935","-0.09233741098349142","0.1140813200155095","-0.04375986651152217","-0.08503851930836877","0.2987503446742223","0.16450385912946566","-0.07073233372213837"
"-0.13182474209606565","0.5056002920235373","0.1697907351764947","-0.47179927858447707","-0.011462670968312272","0.23867847159644215","0.29985665463601324","0.16749365860296697","-0.048274043071662186"
"0.017551471848101748","-0.1951708384403404","-0.010871829780014238","-0.02685096683839558","0.06300935623503505","-0.3481310026600745","0.28165282708291633","0.17764568881521156","-0.015125619674400454"
"0.019477552199619514","-0.11993767627918789","-0.029407721266917153","0.013996619735759526","-0.031965099210491864","-0.20964820482235624","0.24232853662291193","0.21429398636150798","-0.02943750886315408"
"-0.0267585911591188","-0.10133716566330463","-0.027836053024097605","-0.009250458231525698","0.019700244427528792","-0.39845828364353697","0.1787157138199638","0.27330598396959443","-0.02173830080248207"
"0.004655699924740066","0.021673727900255135","-0.03488057789287779","0.009853824515156501","-0.011895120089473498","-0.3273544442277569","0.09981569881773049","0.33347403737410136","-0.006506519484571272"
"0.00646033619988046","0.013509180829583975","-0.02902762939216999","0.004170820537028247","0.017819193469983674","-0.36441011218871644","0.017244746215011385","0.388526211679506","-0.00793821850998775"
"0.006157293504621037","0.03601843961589795","-0.027311386325826987","0.03570010430890138","-0.005604962727072301","-0.29606544387948586","-0.07648987963850286","0.44240904219083016","-0.013423564182189165"
"0.004584195468555263","0.02046381439652431","-0.025261688424583092","0.05413044617603047","0.007712878052347102","-0.2834560319225547","-0.17092852092224636","0.4954813048448939","-0.03661640825188141"
"0.00979721082183816","0.04722353841772951","-0.008281142216553536","0.08990605522976737","-0.003215450213767552","-0.27211859784574294","-0.26717748759801124","0.5395708810807937","-0.056789421598129844"
"-0.0013484044120477586","0.05268148334789125","-0.034985511232531914","0.10052286391578508","-0.008583058010983654","-0.201828713906395","-0.3368247283743609","0.5740532350085091","-0.07825130413828053"
"0.002760264340158656","0.03755277460907339","-0.02990207388928769","0.05119278068775684","-0.021862635774338317","-0.20913223982543147","-0.4150710147628097","0.6057451094276234","-0.10545018491091962"
"0.012753863335511545","0.04267438792328256","-0.026171110701585502","0.030872019721260892","-0.026405405936655458","-0.21553075762151971","-0.49547963425839336","0.6366795679801172","-0.1283624703829946"
"-0.0014096939459204492","-0.024654075057706868","-0.020217892565208208","-0.003849573670332972","-0.0038986633294738698","-0.22214724993502535","-0.5887616787639017","0.6685043223758314","-0.14629441565857923"
"-0.002810273294048273","0.0032026751811973513","-0.0014119726175953551","0.03477132020162951","-0.030173927820884062","-0.23853120796571614","-0.6966269000384654","0.7027474923456668","-0.15539301599706334"
"0.007694071816910404","0.02598208670660671","-0.037035209133775795","0.05279351471186527","-0.037831667009142804","-0.21037938516559185","-0.7807567439509807","0.7300543275369789","-0.17770337575061407"
"0.0014675091719920613","0.013816099611377796","-0.02118561114201846","0.033613575381954065","-0.02601250382538665","-0.2236096106214966","-0.8759496874814","0.7576136346838315","-0.2021289772946851"
"-0.008462530306752116","0.0645320592232946","-0.008528318527738804","0.06160252925125305","-0.05389314579953996","-0.15012460654076434","-0.9724500882393899","0.781585182462482","-0.2395146856935358"
"-0.006521695067450178","0.10974911342649407","-0.0009698534798526443","0.12125874060868227","-0.07295531816521554","-0.04901478134125878","-1.0305816480498309","0.7888404291848453","-0.31360936114668164"
"0.012400881020059573","0.20643862740749966","-0.007980333309545045","0.1214976561346686","-0.0363807539838691","0.14211300120942355","-1.0111206500856087","0.7744628157167187","-0.38946220381156216"
"-0.028676726571060452","0.18867182564717241","0.059260950740817546","0.08442692583381413","-0.06291577042661811","0.36475603613911395","-0.9082338236391015","0.7344127907694611","-0.43697012634141563"
"-0.02074313690865085","0.01978830309088902","-0.012662692110111286","0.03461403414702184","-0.06786941861379153","0.4076059634238273","-0.7493777704892899","0.6778856487237956","-0.48509017672061583"
"-0.0813176262194951","-0.11421563723950219","-0.03672274096680574","0.06256416424334803","0.028033364369145025","0.4715911413847097","-0.573072192033056","0.6115519644050459","-0.4923336896045519"
"-0.06017273703341625","-0.07653303263154494","0.0004968814233127755","0.14437381774786004","-0.015373330969264593","0.49247806666128924","-0.35724117585103854","0.5132606457139819","-0.5334142697162648"
"0.01410790803755085","-0.022235801545007122","-0.008735853355054736","0.039557594572222396","0.017636866346453704","0.5433847735771271","-0.1895849298233486","0.4199257501501001","-0.5581884440634362"
"0.01272321856857521","-0.07129257696805","0.017318628510665766","-0.027604546226610807","0.05071254734738349","0.38114551251201784","-0.07940651499231346","0.35925275283451286","-0.5420690773639726"
"0.027811793814937653","-0.04312253861882814","0.0005969178737830406","-0.03800931738331564","0.0861289490961663","0.3595687944588009","0.03187820980051093","0.30220737888010735","-0.5030629305194901"
"0.021343478008632587","-0.0011828405316622044","-0.013355252151828506","-0.10103224669443563","0.0801763537110611","0.4023911300324488","0.13567019894302937","0.24653066868468243","-0.4473422926775683"
"0.02198815310566387","-0.0555867449251842","-0.002430525567838047","-0.10212727618853965","0.06920334245974331","0.3763169630755563","0.23694784726329549","0.1820174400453535","-0.3825587619550409"
"0.026516768664035028","-0.06723536648153981","0.006514225489478703","-0.11214181865280012","0.05751643064023778","0.23904544135361322","0.29382223666261115","0.13930981556609437","-0.3366661768054079"
"0.029849103320520667","-0.08077407333154726","0.0021170521875724505","-0.034997986274529554","0.06805031600249041","0.043679571983270916","0.3234411715487266","0.11855396322116508","-0.300535330497718"
"0.030455188711039513","-0.04143440764422404","0.01872100429884332","0.04560016641696009","0.0612361607590147","-0.019125232578229595","0.3287715740918988","0.11774339536390471","-0.27238935191372865"
"0.02142179241302547","0.07338956852409312","-0.018671874694304116","0.10227491110635152","0.10366188481307997","-0.11514107608082355","0.32882186090834303","0.12457342616114775","-0.2460746558123681"
"0.012119403160792384","0.24028151079561352","-0.19064129542346697","-0.03438974716462268","0.19862093233267478","-0.12126367676625684","0.3152947072846333","0.14773440608253816","-0.17835631212325057"
"-0.019074699597672003","0.45226363853144447","0.08913430661435046","-0.2252583653937463","0.08437758151521646","-0.06004042908303049","0.28547462513273764","0.16987221018410806","-0.07246329525167992"
"0.007066421590399305","0.1272078053923767","-0.013719021062629464","-0.0005786210233084095","0.013895308332606295","0.0888665171952317","0.3013652591293636","0.1510298295022196","-0.020357612431177795"
"0.013025126272466622","-0.11421563723950219","-0.1036702116661368","0.0671155050133877","-0.10441958691241213","0.011778863400677825","0.31901593170156445","0.14214015906767563","-0.06905918426725734"
"-0.12072452651690029","0.5376022841187931","0.1611209094690718","-0.34838945459895304","0.03231419979061629","0.10258787510810226","0.31021573882368614","0.15599954062706184","-0.045490561712271706"
"-0.00046651611910179526","-0.2053255158673301","-0.07545247070714672","-0.08041284132045674","0.06873211672498629","-0.2984383310311184","0.271494890161022","0.1780310407473517","0.0015531638651604793"
"0.001380114836655076","-0.06452969643788754","0.043956539744863195","-0.040852412142553","0.029262146462230805","-0.2650468422996566","0.2355398164028341","0.20848713138408537","0.007387082340462127"
"-0.0020611789911598026","-0.08471477171091452","-0.04747491050336498","0.016423603287237368","-0.009400063283533796","-0.3475239850166336","0.17484362895369826","0.2666221211466114","0.022040742911767656"
"0.003204045965051683","0.06436117479948497","-0.033059401486880656","0.06598065626495261","-0.026645512782430842","-0.24810001336322973","0.12460709932512493","0.3158541524769335","0.0012641034918578573"
"0.0062253929867018085","0.005350122773738216","-0.028328073794475835","0.041163306003122214","0.00908803544178793","-0.2520787380988741","0.059787392927496255","0.35727284118317204","-0.009783103833713273"
"0.002391392145554502","-0.018409026114846287","-0.019541655487437186","0.07289128785410731","-0.001110342333293005","-0.23571409426592918","-0.009759274215963818","0.40750147233799455","-0.028699554733663864"
"0.007027831883886879","0.02477502127660605","-0.029188527179639642","0.06943298561545513","-0.014017947084769972","-0.2526222948068643","-0.08227286352967986","0.4499964888546936","-0.05346692766028683"
"0.0066691746115948155","0.03292957419764228","-0.03008629019668048","0.08225777195412987","-0.017430674279349603","-0.2645833015537563","-0.1504617866291245","0.4888373060148909","-0.06606995993628088"
