"AccX","AccY","AccZ","GyroX","GyroY","GyroZ","MagX","MagY","MagZ"
"0.17961198106041348","-0.05619853968093105","0.004344224720831644","0.001424524315084645","-0.09679476493442479","0.03941002303721838","-0.3210856439325587","0.2634967624054828","0.8001812869161943"
"0.17294588893993768","-0.02923085050141341","0.12045465270910284","-0.0029092729481130924","0.04001728187848934","0.005618769041628636","-0.30064802158588383","0.264433507159929","0.7951073966294303"
"0.15359999457304924","-0.025804558805324687","0.044092387585785396","0.06358970612797098","0.018118420603425518","0.010760689052402192","-0.32176501088037046","0.27227258168397955","0.7967701241896198"
"0.16532430609162557","-0.04398519655002444","-0.08420857270768511","0.05152849719252277","0.06359993986497399","-0.007964107916991916","-0.3626968694860375","0.28224398308328275","0.8093520007790952"
"0.011229740399943273","-0.12304064399571514","-0.057019321785233334","0.0441576410488719","0.2257703136328608","-0.13972649878093987","-0.456109824810174","0.2900830576073333","0.8414580700598677"
"-0.3785779478151713","-0.13323827422773718","0.11738364169428188","-0.026870417035783325","0.37902274244750284","0.010167375411865121","-0.6312166556086911","0.32263493782434166","0.8886143949885416"
"-0.08744570593092636","0.4154152438558019","0.09547922172236398","-0.0848487117573564","-0.011768099821856353","0.12290209719527018","-0.7000874799431226","0.3018539949822833","0.9237545135286294"
"-0.27267882072381966","0.018232954825761743","-0.15319474401639682","0.14247127994327355","-0.17518872828807283","-0.1235036030293742","-0.6522770309908601","0.30507097367847386","0.909132795911705"
"-0.06329557921291723","-0.06285221325264874","0.06769312494524397","-0.011768558317046558","-0.0722046801290656","0.13665663456867866","-0.5478243627647803","0.31045725601653995","0.8689359286060924"
"0.03558686820410678","0.05366831910865485","-0.0305845406968725","-0.030189889862763507","-0.2617545705074029","0.007309328161057179","-0.4662154081588759","0.3007323663947226","0.8443892701917485"
"0.17687825243056537","-0.06505142746477438","-0.01777626407681185","-0.05373881942788509","-0.15159339826613064","0.022271605073450485","-0.35675240869268343","0.28114700567347073","0.8083577925472292"
"0.2006373770969496","-0.017446144025863756","0.06967883287478104","-0.05350224229990433","0.011573314289605351","0.04061164594073376","-0.2882495747883168","0.27933514410894955","0.7801771316302027"
"0.16491983254074302","-0.028582292424843878","0.052953688918862214","-0.04737235993025973","-0.042266996360623914","0.021060116628855336","-0.2825315696442331","0.25708745619085027","0.7876851179329141"
"0.17645110733215158","-0.03819860170270533","0.012027065425729762","-0.02962168229645255","0.020727275903246866","-0.011752278380800112","-0.32414279519771194","0.2371323278033696","0.8119575120074333"
"0.08483834091697728","-0.041438590538785965","-0.10458988456383257","-0.06629958631661412","0.17565241339828433","-0.030149934007989213","-0.37778447711869334","0.21611719877269964","0.8421608724306696"
"-0.32452766420819845","-0.4185211822887046","0.0626325096777991","0.3084871672079936","0.04118152513615096","-0.3919489220262138","-0.5130634206017383","0.29118003501714534","0.8623878674927689"
"-0.10349650443670526","0.26563054595606045","0.10075342633720642","-0.04011556775902815","0.4203018979504441","0.19035477466583994","-0.6397087424563399","0.2872728233439944","0.909149937432944"
"-0.1340373789732896","0.28102504544093987","-0.05214891792666491","-0.12965578610817866","-0.27353956348291647","-0.08149020978708665","-0.6164970384061","0.25178745297490424","0.9180292454347809"
"-0.2167063841739849","-0.224864262017132","0.07767160837067896","0.019652897640792276","-0.3463087270978483","0.05645175869840456","-0.5256600160924172","0.2727163028834541","0.8749011779972878"
"-0.05751269172670006","0.009060410555799273","0.03319968507969841","-0.012652554103296134","-0.04840501353537056","0.030598121744772208","-0.46630032902735247","0.2638172277162144","0.8594566673608884"
"0.1381427634674892","0.014543737965586402","-0.0313496368666549","-0.0504858839181495","-0.14007451803522547","-0.04458716682411742","-0.3884561995905721","0.24873070693407948","0.8336072533323752"
"0.17350429901282555","-0.035890127166665176","0.016171336345384348","0.06955799787002157","-0.04883427873649477","0.0143551002894038","-0.2690291515564717","0.2729504890720657","0.7757031945868063"
"0.15818855150678623","0.04485185143278304","0.0891976404839747","-0.04214548400893458","-0.03821352901864284","0.0585452265155307","-0.2685762402579305","0.28058002858525316","0.7750689583009608"
"0.17668439427051602","-0.056269979123490556","0.06483676591138973","0.059635488417435246","-0.03741835879368211","-0.011919203335869733","-0.30367686589487874","0.2662330431355759","0.7893135624506254"
"0.1677467116593606","-0.06967117808362172","-0.055719366718982706","-0.01396112134243977","0.006507826515896375","-0.01259637407558481","-0.3238880325922827","0.27373932676002044","0.7950902551081911"
"0.04741878743016814","-0.050948441039499935","-0.08193807898161795","-0.03265388289659894","0.297589074588477","-0.039074302468744694","-0.44238095107314174","0.23714465339224386","0.8608279890600136"
"-0.4794499056713456","-0.31245462168860716","0.1587980139956506","-0.12049898387785152","-0.11444057430905129","-0.1334895037103124","-0.49075753914858083","0.3673398486714031","0.8108090300844158"
"-0.1656296875982771","0.7230671020781924","0.004227335028226007","0.026804075022746728","0.21583860584301268","0.2744289157475979","-0.694879000009898","0.3288963369724826","0.908378568977186"
"-0.18343835247060494","0.06794219988671868","-0.036347556753520374","0.0713122595199147","-0.19899631490392886","-0.18384125227321738","-0.6548812709574724","0.3265298239086183","0.8992078551142852"
"-0.03939188235937755","-0.18460603497478126","0.11721716243511626","-0.0911729253392709","-0.16782310767837685","0.24057037876184414","-0.4993628538208647","0.3612510077675023","0.8189855357154509"
"-0.027333247658004246","0.015515314384395537","0.04572140484728039","-0.01974141875957707","-0.15724512608019414","0.057755983229149495","-0.4530526735450203","0.3470519293843165","0.8125231822083226"
"0.1452486507527548","-0.0648090936694255","-0.025809773859526885","-0.11998147141039359","-0.08381860062590235","0.00010965359186622366","-0.30531866935209057","0.2912786397281397","0.7788572344947945"
"0.2325549731430368","-0.04702067247211122","0.025125086798976532","-0.08992772697369356","0.014715979083075635","0.024047402467808197","-0.27704002014942036","0.2634597856388599","0.7848910499709462"
"0.16076233072593601","-0.009062795480176179","0.0243560943061073","-0.05302275115658616","-0.0031867558104524975","-0.0014234514919292686","-0.3178020370181343","0.26693560170141056","0.7971986622205964"
"0.16537967066784304","-0.04680215182428218","0.06131413562968334","0.07904854283446444","0.020538779375815934","-0.01789515618952663","-0.33823965936480904","0.27152072076264766","0.8035067420365732"
"0.06513709468552384","0.001348872924847653","-0.04071143861079769","-0.06247105020531817","0.16790663172486212","-0.029788855204469812","-0.39669352383279133","0.27551421155791866","0.8250193511916024"
"-0.13163879495911995","-0.14681316908742478","-0.23703653262171653","0.20194296778522522","0.2507817436171832","-0.1667738662052238","-0.5282642560590295","0.2908842208841623","0.8734612902132063"
"-0.17246400917289734","0.026989189246142218","0.1881727479586382","-0.061449755193008326","0.3210165001406068","0.19085397104447605","-0.6415486946066639","0.3165337713315665","0.8981279392762239"
"-0.12841877806338545","0.46493258296321655","-0.10837640218187593","-0.15856255393332905","-0.2043977700177059","0.07684185900206301","-0.6756019628657354","0.28817259133181783","0.9236688059224338"
"-0.20310345565526952","-0.1720130822569408","-0.043463659554875994","0.2490682867606805","-0.22540166878858087","-0.09290464081637485","-0.577716508468504","0.3145000491673081","0.8780380763840371"
"-0.034906858826033","-0.01120289705551729","0.01721271724314371","-0.008930583314380807","-0.11262530522975847","0.08115310045392035","-0.47187679939064175","0.31372353706822764","0.8382697471094013"
"0.11442963904247258","-0.03458460637322499","-0.0007918375300223291","-0.004978477899630616","-0.20449281028363744","0.007295121781902317","-0.3376735202416325","0.2843639843696612","0.798878531302025"
"0.19087546873243189","-0.09385973287023666","0.04075217606678174","-0.06545361185450432","0.002918155671661318","0.03390702422292541","-0.302289825043096","0.27076885984131577","0.7926390175710046"
"0.16208309622754666","0.023284143646733108","0.08707556124639773","-0.03514744807143197","-0.0022658156335756724","-0.0018754905842041046","-0.32247268478434127","0.27796700374390304","0.7954673685754508"
"0.15474786488174808","-0.013092540349885114","0.08020917733379053","0.0070952991957415655","0.014728651118533177","-0.01150544254298439","-0.33705076720613825","0.27606886305726186","0.8020497127312525"
"0.13924184066302306","-0.05706701917871316","-0.007716666288932341","-0.05514666456894923","0.05230757226787237","-0.0054505653606893726","-0.3599794016947899","0.2733325823271688","0.8107747470419375"
"-0.04234904073301132","-0.06325983830725292","-0.1517105991314949","0.04016857045787471","0.2989354783558408","-0.049618592774797604","-0.5000988346809944","0.2354437221275914","0.8870373750345475"
"-0.311302594815003","-0.13318364406577993","0.03489281456653164","0.02169020692594811","0.20105984449065495","0.005772868793294567","-0.6518524266484776","0.26375559977184293","0.9272685253826382"
"-0.2059620420831155","0.3599726333360996","0.04685523486555512","-0.0386675889980387","0.031493754028860524","0.12782302908585702","-0.6989835086529282","0.2645937398152949","0.9422502149455828"
"-0.15214175968298083","0.06284758709085822","0.0774863559184585","0.012879821204449953","-0.19137725358508204","-0.07230539104182537","-0.6071274359175276","0.26612211283570725","0.9151151868241394"
"-0.09403359764107715","-0.0343842957793817","0.0011421555658164765","-0.0017947200768715433","-0.13930469188117983","0.03429375343325221","-0.5350296185809896","0.28385863522581517","0.8778323781291685"
"0.06802525269710614","-0.019408627536174592","-0.09658471167629462","-0.05177227205154494","-0.19296125801727473","0.016050986801015417","-0.4292465234154449","0.26487722835940364","0.845812016454591"
"0.14177513966976932","-0.07576033998178106","-0.04188741976064839","0.027996465993685517","-0.13799947222905304","0.046830883037417656","-0.34441057580743384","0.26170955201871027","0.8122832009109756"
"0.18365178797194984","-0.08837150275360722","0.10377130567357028","0.015002678468920259","0.027060125623153207","0.03306450701471347","-0.3131596962080866","0.25703815383535317","0.8018782975188619"
"0.1748815133820573","0.02512756141944478","0.07855713634496414","0.010981078522825719","0.06531383266060647","0.01981982080430727","-0.33416345767793776","0.26193141261844755","0.8099862370649406"
"0.14558658824023066","0.025266237984413215","0.06267218133104707","-0.02529570052766132","0.06674418866287647","0.027650298070138402","-0.36309316687226106","0.2589609456997429","0.8249679266278852"
"0.029826980838573443","-0.09156666684141523","-0.16938573749822686","0.009993580243084556","0.14985056520229773","-0.06465959670500744","-0.424604182605397","0.25352536100617956","0.8470976305475211"
"-0.28739889796146334","-0.22574674924874932","-0.06912980236155729","0.0555091186003778","0.2561356785979945","-0.10733398119963924","-0.5686299755415198","0.28690305567776564","0.8871230826407428"
"-0.17629188640098994","0.2968958078762159","0.09778513656740255","0.03123039084135123","0.16324965869421562","0.14596773223976092","-0.6671947968865631","0.2789283996760979","0.9286227055605244"
"-0.1577932179081476","0.2013910785878556","0.01842057740006867","0.015868719740992722","-0.1921375757125345","-0.034544046004916576","-0.6078634167776571","0.2861388691675595","0.9045731512621131"
"-0.1680611289277093","-0.1303736926584398","0.011814538711901322","0.024555536159036637","-0.2580321600917501","0.04399158031466127","-0.5165168692531154","0.3101737674724312","0.8570568543874189"
"0.01393225458029192","-0.012417367579028707","-0.0024495458978841616","-0.07679980866654634","-0.18950812835509467","0.011493698754628738","-0.4157441053276834","0.28546096177947333","0.8318931012084685"
"0.15013305495311627","-0.08366210263821462","-0.027874825095559896","-0.09412063410799561","-0.17314536257054428","-0.002017751686574317","-0.3253883012687006","0.2616849008409617","0.8015183255728413"
"0.20582719004267686","-0.08074849400049403","0.12659313262684763","-0.024509926495439475","0.07276498950964086","-0.027531619405419563","-0.2708974106629544","0.24675861271419258","0.7879422407515002"
"0.14591516139285662","0.0650145835151629","0.07248135180779874","0.03790418937577305","0.018637974057184717","-0.0012602754424699545","-0.3043845397988494","0.2552879202152035","0.8025468168471854"
"0.17112050079052407","-0.006856577401132946","0.06391262891742573","0.03893498971911784","-0.007488753447844603","-0.015677777176438635","-0.31290493360265687","0.26890769592129754","0.7977129078577684"
"0.0792575259196251","-0.06170638062492978","-0.11260568378706189","-0.08286209757105359","0.1420192472895371","-0.06850518461789987","-0.386135029185548","0.27007862686435535","0.8208196784880311"
"-0.1428102821484031","-0.14436181566626566","-0.16386358505058454","0.2098323925442268","0.29731979383500423","-0.17153497633031844","-0.5582979365435473","0.29592538673374824","0.8782094915964279"
"-0.17422187553944635","0.07827150281679156","0.18713490917277598","-0.03627858246459003","0.4086753054181498","0.16110936468898437","-0.6446058458718174","0.32953726759394586","0.8918198594602472"
"-0.11281155331365166","0.38814218607867695","-0.0861036025726554","-0.025516435437250518","-0.2919615350293174","-0.07730327415283436","-0.6210544583476717","0.3013609714273116","0.898916449253221"
"-0.22289998810098446","-0.23416539728370156","0.0077871574848523825","-0.021966722369646193","-0.35538507249431234","0.06909346303801553","-0.5094401302134081","0.3277993595626705","0.8453663369023752"
"0.003342341871156743","0.047275189386271795","-0.00586768387862491","-0.03547485391819107","-0.13869801818365002","-0.022158845733379503","-0.439012423290241","0.2976632947650236","0.8354585376261944"
"0.15983927016826388","-0.08701975643851088","-0.04924438617100956","-0.05477384436280096","-0.21369587603467693","0.05826899136529729","-0.3249070830140007","0.2929179430484207","0.7884393448674333"
"0.1782106165644637","-0.04211656485640941","0.11659020862932237","0.008784607750229254","0.07081032804031508","-0.006871203276175543","-0.2622920959906702","0.2668000202237934","0.7800914240240074"
"0.1601015208300323","0.028388561856278208","0.03305552112548478","-0.046736558898811405","-0.014144423271031815","0.02092594527017053","-0.2698783602412365","0.25698885147985595","0.7865709190523749"
"0.17579971105707062","-0.0033037958685124065","0.054051601922499935","-0.03558574944693206","-0.0029431359287812636","0.010551736892332768","-0.27967256707219146","0.24425651817271105","0.7926218760497656"
"0.12901171555601335","-0.0706657271859206","0.018016776643794637","-0.003578131408605154","0.027557503014861706","0.050565976890216725","-0.33770182719779135","0.24452768112794554","0.8135516734826665"
"-0.061849857341362946","-0.1375820724900312","-0.22966893987566395","0.17086053530096598","0.2151416438928479","-0.1193048287458262","-0.43289812075993406","0.2541539660387685","0.8439778736820108"
"-0.3678828916971959","-0.13534223584978353","0.09473892033586157","-0.0032949781585531693","0.3508116235101511","0.014048873894287892","-0.5214139726685929","0.284943287046753","0.8694330327220255"
"-0.2052884671202323","0.5814208975366991","0.020340402048318915","0.057360545856405876","-0.0890664073097567","0.2053109349427638","-0.6099581315334105","0.25427722192751145","0.9135381668701452"
"-0.2783138502913552","-0.14636492160469855","0.08575293666400541","0.03177325085823567","-0.3273640340888238","-0.11805190502869602","-0.46412069340312245","0.27164397665139056","0.8545199092440371"
"-0.016671048855291404","0.0033866760199903344","0.007921757736943721","-0.05326883361560186","-0.08769941148477442","0.05236545158316587","-0.41200758711471797","0.2697335103758751","0.8307789023279291"
"0.12448562037859054","-0.03387301349439708","-0.09039310008009276","-0.1262655513723828","-0.2424930766119399","-0.0009134030181054144","-0.30011018941886614","0.23993023647783415","0.7966501335409464"
"0.23565013224077347","-0.1004013445712728","0.026990717135200525","-0.015380584110324391","0.020277418644504143","0.07855451693351023","-0.18337230221985457","0.20525835497444728","0.7641155262291969"
"0.1419706406955818","0.05999701325539601","0.08024211897443395","0.05113983476798293","0.03264849325992899","0.017023729151480253","-0.21091497056239542","0.210878823501125","0.7802628392363982"
"0.18961210496058503","-0.03717323558596905","-0.010773508856164734","0.09742446002079222","0.014293049899680188","-0.021385387312725917","-0.21470810268767854","0.24017674825532","0.76258993083892"
"0.16011714448343967","-0.03107987136765917","0.05673099704597303","-0.050220790797063916","0.00011019101471335079","-0.008707575092763013","-0.2782006053519324","0.25081373145383506","0.7815655948505672"
"0.06089685815088563","-0.07756313532637067","-0.09459404479010158","-0.12276970184730981","0.19469214667324036","-0.15254380975177068","-0.3357486472228321","0.2359490712714374","0.8122146348260193"
"-0.29293535558321104","-0.1872955198711387","0.06588912735603022","0.10475940713608888","0.22944520391554782","-0.24445908288372595","-0.46474344643861687","0.27896537644272074","0.8513658693360486"
"-0.2795295709560712","0.2312695748583268","0.10098366361052058","-0.014261067343986817","0.25857504542357124","0.13132529616917363","-0.6234039357088543","0.28233026220540286","0.9059616144824776"
"-0.12002373401379174","0.27654257061367743","-0.03393892066346472","-0.11313763306523557","-0.21900229088252243","-0.05655604126208841","-0.5731590885269325","0.255645362292558","0.9010248563656262"
"-0.1782468966591145","-0.18394767148452706","0.03701206011459091","0.05729084009548297","-0.3087995021435256","0.0349409329280848","-0.5125255884347204","0.2872728233439944","0.8656790395706698"
"-0.02636395685775766","0.022066871576454646","-0.00341654244580356","-0.05248517187916557","-0.11266807334942767","0.04255910374987939","-0.4251703217285735","0.2706209527748243","0.8373269634412528"
"0.11812444414375166","-0.023441454107327266","-0.049272723066186686","-0.06543988193189829","-0.18529467656546214","0.021622452470401947","-0.2907405869302936","0.2393016314452452","0.799358493896719"
"0.19969437214891306","-0.10039574147773872","-0.02512614626337874","0.09609265752800764","-0.02987057767428398","0.0746043542851723","-0.24341135623273114","0.24518093733828303","0.7721548996903195"
"0.16976004365207625","0.0538518204218959","0.05580898531914731","0.09029334944880045","0.05124312128943888","0.016492765730567294","-0.27687017841246725","0.27078118543019003","0.7819769913603049"
"0.15534751088529047","-0.03642522259916963","0.15310584017694553","0.041124384300832734","0.02113436504232038","-0.0033837345044785885","-0.3374470645923618","0.28146747098420233","0.7939417731851737"
"0.06209122156068104","-0.00874566038614736","0.07950996444529496","-0.07887830771952026","0.1291840593754798","-0.03821402728658918","-0.3838704726928416","0.2809867730181049","0.8142030512897509"
"-0.1522403316287686","-0.18250487489950198","-0.16869856779018155","0.05506764878119939","0.21240131622515454","-0.25248963332265467","-0.4570156474072565","0.302137483526392","0.8338472346297221"
"-0.17044328428424763","0.08637497684045195","0.06665989090484804","-0.14503329942692872","0.3296176442074131","0.1370039016146864","-0.5916718378548068","0.2934232921922667","0.891048491004489"
"-0.1687347038905925","0.3010140816237633","-0.10540457030017492","-0.055180461301517915","-0.2156125213976301","-0.02620963690073104","-0.6097882897964575","0.2710276972076759","0.9067329829382355"
"-0.1545567723547817","-0.16824500185527336","0.11393008259456973","0.05311060673589417","-0.3776244947222976","0.08600891977338074","-0.4855773661715149","0.2850172405799987","0.8546570414139496"
"-0.02797396530562492","0.00819375206341575","0.04511924582476648","0.02600773951159717","-0.04731680249045418","0.03705215871915452","-0.4130549444925946","0.2869523580332628","0.8264592389756842"
"0.1085186080267313","-0.035178534287837265","-0.008421546556463327","-0.09760064141467702","-0.13297501017013785","-0.015745257477424227","-0.29722287989066565","0.27196444196212227","0.7849596160559026"
"0.2397868682323345","-0.050320894563683195","-0.03073330939655241","-0.04480063981136162","-0.0638284646916307","-0.03735375210443367","-0.2500351839738975","0.2550414084377176","0.7726691453274914"
"0.13949319912478195","0.04784250260659719","0.09965182953719567","0.021699712256983052","0.0714138337289805","-0.015512825329584961","-0.2802103992392091","0.2574325726793305","0.7852167388744886"
"0.13942255589696737","0.011212698859577003","0.10389882170186734","0.04668605910416638","-0.0238703688851381","-0.01764832035171091","-0.3382679663209679","0.2681188582333427","0.8024611092409901"
"0.131296941832527","-0.11094216428225712","0.08080496055488959","0.012079261101729312","0.04415628545980882","0.019951821743954528","-0.34766587576569913","0.27848467847662334","0.7988271067383078"
"-0.03610615083311779","-0.07330058192032078","-0.1732501815780073","0.039887635118397546","0.25928784741805794","-0.1117241469801347","-0.41916924702290187","0.2731107217274315","0.8314645631774918"
"-0.44363543203511435","-0.14888631369503366","0.2691808470462453","-0.18496625125261146","0.24729693386635934","-0.012852286211193916","-0.5202533874660809","0.3244837761554856","0.8486575089802759"
"-0.1309980773114993","0.7141161601575027","-0.12317888780002681","-0.16191054275341404","-0.04020779059877342","0.24013629495433447","-0.628442573905126","0.26829141647758287","0.9166922067781337"
"-0.2764574119790184","-0.1573750003991619","-0.1264801360881619","0.18716745876535482","-0.35950348401801335","-0.1347582122931702","-0.5617796921510833","0.2734435126270374","0.8905513868885563"
"-0.036122579490749075","-0.07824391119076114","0.07254723508908555","0.060548000196789645","-0.08790058004766288","0.11160605265893919","-0.4069972558746052","0.268463974721823","0.8313617140500573"
"0.0818811825433435","-0.0003243508817664045","-0.01391536210892851","-0.002473189483187824","-0.1858490781167296","0.02080163945256549","-0.30800783018717937","0.2834518907929635","0.7826455106886284"
"0.1741642381898748","-0.07439178438608249","0.010110782889376658","-0.030006120129421304","-0.010899590191685106","0.006936410708242059","-0.2506579370093916","0.2753663044914272","0.76644677311771"
"0.1775255415412385","0.0023689161027265616","0.03298361625397283","-0.11203923925675342","0.0020825933336796783","-0.03796936186781101","-0.25699869518896923","0.25695187471323305","0.7747604109186577"
"0.1688664889635099","-0.02883723318064443","0.0747947050878213","-0.02594628762960844","0.01203109157050904","-0.015370366916393156","-0.2998271198572779","0.23047650981125123","0.8028210811870106"
"0.15655041719705415","-0.027701205966610104","0.04577453652573751","0.06570411420929911","0.03162522639673252","-0.014136582348957734","-0.32705841168207145","0.24071907416578892","0.8072607351879287"
"0.07306392199262547","-0.02867334269477265","-0.07053247867282501","-0.07644283067878965","0.19160333803046461","-0.02455814532397836","-0.3612815216780961","0.24013977148869708","0.825944993338512"
"-0.5482202665159621","-0.542531649931687","0.10973622210835517","0.12339724899982392","-0.23934090779187644","-0.4369357893499424","-0.4597614221546628","0.3178772605188645","0.8306589116792555"
"-0.0801513819426297","0.5273650526666812","-0.0702030622663909","0.10028450851441689","0.48450159758721345","0.3027430186465237","-0.6457098171620118","0.2763153748347477","0.919092019751603"
"-0.22138855159890508","0.18032344689972213","-0.0742764909481027","-0.00038708616538595973","-0.312379352160281","-0.29335270447504164","-0.6048345724686625","0.23951116645610818","0.9181149530409762"
"-0.015356756244787505","-0.25321591529956694","0.25231685230395856","-0.08554365707079992","-0.3021308434839944","0.24345111675713554","-0.39304192648830244","0.2663069966688216","0.8219167358473313"
"-0.0176239109979067","0.026553548723867643","-0.01947647778743937","-0.07055797462026799","-0.103159294742975","-0.010869312454161137","-0.33388038811634935","0.25071512674284074","0.8125574652508007"
"0.17656117933828128","-0.09041102880001163","-0.06612254936088487","-0.18293844729849054","-0.18743308254892227","-0.042740337533985394","-0.24485501099683177","0.2209488296114226","0.7823026802638472"
