"AccX","AccY","AccZ","GyroX","GyroY","GyroZ","MagX","MagY","MagZ"
"0.17893840609753023","-0.00865531050291035","-0.03361658848082493","-0.016206491762471544","0.04707877363720432","-0.011975831541667587","-0.34642036969471085","0.2554111761039464","0.7958101990002321"
"0.06730567749285526","-0.07420688229945792","-0.056654484259827845","0.02160888353820472","0.131610754165599","-0.013661655201377841","-0.42449095478076154","0.23519721035010555","0.8359899247846055"
"-0.36919718430769977","-0.26667734751518946","-0.05904895190229494","0.021938401680749363","0.26738211006656254","-0.08251819916759819","-0.5915869169863304","0.29056375557343067","0.8750040271247224"
"-0.15912393917628279","0.34501237360011117","0.04062855636157153","0.0030366284586107514","0.23125096896824746","0.1660006999563319","-0.7211195483691328","0.2663193222576959","0.9277313464560928"
"-0.16278752982806238","0.16819274939844317","0.04193559565161644","-0.02460920439735998","-0.22080805593522207","-0.14411666456143535","-0.6544000527027724","0.25518931550420915","0.9101955702285272"
"-0.14062527068344038","-0.1402155264510479","0.07557078180448483","0.03136240932794764","-0.12057859148379792","0.08387993600836742","-0.5378037002845548","0.2876549165990975","0.8583767515228271"
"-0.04149475053618376","0.04837899881248517","-0.0833336710690914","-0.07654422087649569","-0.12127080142066614","0.02339430364832775","-0.5261978482594349","0.26903095181004044","0.8593195351909759"
"0.15992954564194786","-0.03703455902100062","-0.038738482284090325","-0.04216132622732615","-0.220174454162345","0.02155339368284359","-0.40260967766998673","0.24510698380503732","0.8234251897163691"
"0.20442089694943769","-0.0949537368827654","0.09903195995519606","-0.0643869024828053","-0.05593695461044677","0.0997417529564137","-0.30628110586149093","0.2322390690202752","0.791953356721442"
"0.17848497514690637","-0.0008814384563921142","0.021460417830194797","-0.046931946258974094","-0.003044670612884814","-0.02759673197654601","-0.31967029612461717","0.2152420819626248","0.8014497594878852"
"0.17867554757542944","-0.03155893586482285","0.033695580745298104","0.051652066495977006","0.03865345406237145","-0.045889418246646406","-0.3378999758909032","0.22846743882474144","0.803489600515334"
"0.13197544539269965","-0.001771629941618765","0.04251756463631666","-0.08602209206622531","0.11815305250968995","-0.023299302282200344","-0.39938268466788013","0.22952743946793067","0.824350831863279"
"0.008376082569386678","-0.034948807452940066","-0.20301808996157752","0.041830947241096726","0.3002502020345607","-0.04954361466259139","-0.5246692726268581","0.20769882157155736","0.8845861374973608"
"-0.5420430912465939","-0.34048409709283256","0.16119602375001482","-0.01197556330402973","-0.0839152248962661","-0.1902992354640316","-0.6215922905146893","0.2918332912274829","0.8855460626867486"
"-0.06924275327544736","0.6795030498507355","0.04406617595774656","-0.04238522958059367","0.1407377877038932","0.3043412363014456","-0.7540688453380098","0.24203791217533827","0.9479754830394312"
"-0.33813059272691387","-0.03999159163361031","-0.09791654574961953","0.12731555768200545","-0.15130827746833594","-0.3527037996109083","-0.6773569941475828","0.23077232394423425","0.9319995852446207"
"-0.021238215676792436","-0.09077522987972671","0.1485294316058398","-0.007466445490631958","-0.12698430540758512","0.17792221979712","-0.5429838732616206","0.27869421348748635","0.8601080451679728"
"-0.01233388324062852","-0.01829921501642714","-0.07557998812625044","-0.14503329942692872","-0.22327910284944266","-0.04936011559850777","-0.4713389672236239","0.2625600176510365","0.8414237870173898"
"0.18030527041245425","-0.08381058461686769","0.05483288554365225","-0.04582827171102809","-0.09852132976551482","0.001981344045519253","-0.34794894532728754","0.2301560445005196","0.8109975868180456"
"0.19666821341322782","-0.020551658617126517","0.0431583326785094","-0.05408840438039239","-6.404947282784428e-05","-0.01316995663396235","-0.3283039177530601","0.21775650209298061","0.8085120662383807"
"0.15882373269678515","0.008056476271830837","0.04673799096175976","-0.07222880058663218","-0.013313137745017096","-0.016041815642281965","-0.33311610030006117","0.1955827677081271","0.8221738586659173"
"0.15398343944216372","-0.01622326886205122","0.06333207677748438","0.030446729104914923","0.02415030948121525","-0.009021891231564329","-0.3739064241249338","0.19211927723445074","0.8296647034473897"
"0.11513771418638155","-0.04391936020099903","-0.0009866536843650602","0.011746574515506354","0.06393574880459883","0.0094627784679483","-0.40631788892679327","0.1970864895507909","0.843017948492623"
"-0.15601892288396732","-0.3086865412869396","-0.33523450074614736","0.32504756616664754","0.2494036597611756","-0.308999452627549","-0.5071472667645428","0.24863210222308513","0.8654390582733228"
"-0.13045593160966648","0.1135737936282503","0.2465007045688536","-0.10438744777362538","0.6653315435663302","0.31393054223097727","-0.6734506341976644","0.23959744557822824","0.9259314867259907"
"-0.1079158133395246","0.32769881457981","-0.14444572763045938","-0.1490783458562428","-0.30476029084143424","-0.1243007387486192","-0.698530597354387","0.19616207038521888","0.9504610036190959"
"-0.07454920969035685","-0.1370777940719642","0.041481142695213295","-0.09987664012359918","-0.10681676097690791","0.251284356374469","-0.598097516902861","0.24298698251865888","0.902499027192186"
"-0.16221252681096693","-0.0007798823860869498","-0.1298770213975198","0.04748239461531594","-0.35334170677678384","0.12579467383985732","-0.5495227801343101","0.25811048006741666","0.8784837559362529"
"0.1338762410806409","-0.09793878496304548","0.039020437560269676","0.009759009796100051","-0.12271699746725803","0.03176422870040044","-0.3504682644254232","0.2361586062823004","0.8103290674897219"
"0.21891261584600633","-0.1037617999183361","0.06986373111581178","-0.020965494167299006","-0.010001142877745417","0.08343006733513013","-0.30676232411619103","0.2384018634574218","0.7926904421347217"
"0.14884126960356725","-0.045374763746475796","-0.029670675827410217","-0.05441369793136596","0.018213460869357077","-0.05040586295296286","-0.32527507344406514","0.22591604192776277","0.8044838087471999"
"0.16548004976597028","0.015365991941712358","0.038562442491969384","-0.011155992539239205","0.08654741207414937","-0.04890432760062261","-0.37184001632533925","0.2161911523059454","0.8215739054225499"
"0.15115853176246194","0.10207624569632215","0.10690607470253977","-0.023875181611883928","0.07325761488805277","0.009791300985904477","-0.4442492101796243","0.20626905326213935","0.8552398531360779"
"0.05210916918390393","-0.0388569651929595","-0.07496011854425086","0.06266135213022501","0.08863354591134714","0.08436532062949186","-0.455090774388456","0.2107185908457592","0.8631078113848096"
"-0.34189275532448127","-0.39746755833440633","-0.06476946261617712","0.11419820085378594","0.13811784437304653","-0.3239556129044729","-0.5699604024809849","0.2778067710885372","0.8793922565619235"
"-0.19520127133461485","0.20660195557454816","0.054247941184958445","-0.06239606370493141","0.4282852802886952","0.14769222882050387","-0.7619098721940056","0.2562862929140212","0.9488154175801455"
"-0.0874292772732951","0.338610839237427","-0.07006137779050528","-0.22587085913964375","-0.29931131559469143","-0.05583980297969746","-0.6854527836090081","0.18291206234535368","0.9494667953872299"
"-0.24806869159213416","-0.2693388169438765","0.07501041970235718","0.23716550000914796","-0.3893936476534892","-0.03678944315467111","-0.5650066851531897","0.2425679124969329","0.8867802522159616"
"-0.06194842928715071","0.011670751755987883","0.036603300401660877","0.05395763734589675","-0.04200563562931212","0.08498684971751706","-0.48345434445960284","0.2489279163560682","0.8593023936697367"
"0.12004659708661362","-0.03726148430913078","-0.062421042428372854","-0.07205559233221769","-0.25811136031335974","-0.020708611194654038","-0.3819739066302002","0.24701745008055276","0.8171685344641098"
"0.20773784292519692","-0.024263708083453225","0.04671177933372092","-0.03953996715746779","0.028016864300197585","-0.026446409886645404","-0.3231803586883119","0.2267418563823404","0.8033696098666607"
"0.165423206610566","-0.026785100173788344","0.10125286411470326","-0.10342529704331073","-0.007035569779794276","0.024475566950670005","-0.31548086661311053","0.21930952629114156","0.8028039396657715"
"0.14341603399398345","-0.06743554376352458","0.048837400683195045","0.03537154672890748","-0.0034192876610983835","0.002589850619319163","-0.3211422578448762","0.2178058044484778","0.8054608754578267"
"0.1643302080183557","-0.043695236459635904","-0.07778672383816909","0.05914754809097491","0.014988427845412777","-0.05032693862432473","-0.3375602924169972","0.21477370958540165","0.8120432196136286"
"0.058478559747558445","-0.049739573609522594","-0.09332596873092522","0.08305451179174597","0.24633069116272183","-0.052576281990511176","-0.4175557505218484","0.22333999385303546","0.8437207508634248"
"-0.4814377732447328","-0.27999870239246005","-0.010040291693456617","0.0625515127493768","0.29890379826719693","-0.21817728144723178","-0.6042967403016447","0.3051079504450967","0.8762039336114571"
"-0.09792718949969495","0.48223213424968264","0.06972629717420271","-0.037501601724419194","0.25700688103570046","0.3073403607896942","-0.747586552377638","0.2889244522531497","0.9291369511976963"
"-0.24575225086612104","0.07837936236732257","-0.1535489552061109","-0.0402940567529065","-0.24977949700002625","-0.3133402907026457","-0.673507248109982","0.25257629066285897","0.9255886563012093"
"-0.044484766225080144","-0.12827253258316051","0.09079761242791314","0.032109105888136945","-0.07621854736024186","0.20829032834885283","-0.5482489671071629","0.2574572238570791","0.8796665209017485"
"-0.02159964614468101","0.021040104686334847","-0.044689230271286656","-0.05530931134443601","-0.23349593143708547","0.05832226528712802","-0.4841903253197325","0.2560890834920325","0.8549998718387308"
"0.17678953767935635","-0.10536708621584946","-0.010008412686382355","-0.04693617085054518","-0.15036579483118132","0.04191389736326275","-0.34681666708093434","0.2316474407543091","0.8082378018985558"
"0.1741957812125269","-0.06908145248916002","0.09069949592836234","0.011335521755639767","0.05580663805858599","-0.007320480016948044","-0.2579045177860517","0.2463765194590895","0.7690865673885264"
"0.156153500828682","0.017739182208071115","0.08984017958211601","-0.09516622052183918","-0.007113344397414938","-0.010697257417730033","-0.27355826454188437","0.2269020890377062","0.784308238248818"
"0.17893840609753023","-0.022767682109854383","0.032441673133710304","-0.004014637332687531","0.02308585850278177","-0.023997782590647714","-0.3358618750474675","0.19591555860773302","0.8182484503021709"
"0.12997114916168118","-0.012287095654361391","0.010089530217993817","-0.014412096492653112","0.07900596697248002","0.005327735579775566","-0.38426677007906546","0.1968892801288022","0.8384411623217922"
"-0.05710197528591759","-0.13853459839082446","-0.3230850569389548","0.2321382360395566","0.295862509757387","-0.2049574564003466","-0.4912104504471221","0.221219992566657","0.8721585345990372"
"-0.29405250430213936","-0.14726141657015102","0.16413951873653873","0.021582479840885436","0.26917203507494025","0.025904097299019987","-0.611033795867446","0.2959746890892454","0.8804036063150285"
"-0.18205834522957584","0.525193853922226","-0.03307110324866526","-0.15997779210964258","0.15778484340315085","0.25503326198477977","-0.7340558273337177","0.27060862718595","0.9337480204110055"
"-0.2266950080138145","-0.008829286557143476","-0.10105485689048617","0.04219003752463897","-0.2493359757590123","-0.24094695025932955","-0.680300917588101","0.23904279407888504","0.9315024811286876"
"-0.0031124777121805188","-0.11690805812266673","0.07703402822919364","-0.032981288743358046","-0.12239544456752294","0.10446142780897333","-0.5218102700548164","0.25793792182317654","0.8710614772397369"
"0.026659535647259043","0.03142824009851555","-0.05371098927330395","-0.06935607831829425","-0.19715886976258534","-0.04187414302718202","-0.4573836378373213","0.2476337295242674","0.8502859534979873"
"0.18490693741498107","-0.11486432975611177","0.024092561180960027","-0.0018125689762593785","-0.07611558707214933","0.05513766862657986","-0.2710106384875897","0.2101516137575417","0.7916105262966607"
"0.18877752915291504","-0.034374490365697064","0.07347278892780841","0.03943032308082757","0.02835584124868682","0.01667192395657583","-0.26704766462535356","0.21312208067624638","0.7879765237939782"
"0.13520367661724983","0.0066502398721156","0.07233010362979084","-0.005533589232071209","0.02021089045835205","0.01993287990508138","-0.32465232040857095","0.221848597599246","0.8055123000215441"
"0.15898509497203978","-0.03505666700347106","0.04750840029938786","0.009035126030394604","0.003155439535603782","-0.0176822578130253","-0.33914548196189154","0.22516418100643085","0.8110661529030019"
"0.07964359937396062","-0.03928420107493295","-0.14805513965364572","-0.06765251176725415","0.21038963059626983","-0.09514017242504962","-0.40277951940693957","0.22034487575658218","0.8374812371324042"
"-0.2906353435148292","-0.24497936780447224","-0.006820511978955748","0.09515268590344118","0.21038963059626983","-0.21993334775942994","-0.5753953380634801","0.27059630159707565","0.8885801119460636"
"-0.13742168244533712","0.18172422028324164","0.01966385867596505","-0.03980400413066062","0.288275128527184","0.12845245060674604","-0.7187983779641087","0.2534390818840595","0.9403989306517636"
"-0.17911761551357333","0.21593110630878815","-0.07900166821888835","-0.04126782511004163","-0.1597240930165757","-0.05335565973581262","-0.7390661585738304","0.2385004681684161","0.9526722598589356"
"-0.16094752017335695","-0.1505672417552571","0.054118795785188696","0.09732095752730065","-0.18030506260405518","0.06856072381970821","-0.6297163869322733","0.28376003051482085","0.9003906200797808"
"-0.08054566972578088","0.020028746303433757","-0.05134131641411684","0.004585574958149135","-0.12872987829186147","0.05424187749653718","-0.5774051319507569","0.2896270108189844","0.8798550776353782"
"0.10092199673801876","-0.007723235893516468","-0.02877806362933077","-0.04287528220283955","-0.18103370464286384","-0.0848938214596056","-0.42378328087679074","0.25258861625173323","0.8337443855022877"
"0.21089707378769568","-0.03709339150310843","0.008633722228269004","-0.031026358993838377","-0.11908487530424024","0.01118372345390252","-0.34571269579074","0.24918675372242835","0.8062151023923458"
"0.13894612482565968","0.018367429070579613","0.13870361320317157","0.02208098164627349","-0.00038259276414179304","0.037638171859292566","-0.3700000641750154","0.26465536775966636","0.8085292077596199"
"0.15285659781523298","-0.03290227753961806","0.09598928583555223","0.1003806179726591","-0.009874422523170001","0.022159137905141162","-0.37147202589527456","0.28303282077123754","0.8009697968931911"
"0.1634450319451813","-0.1226204119806593","-0.05665802637172498","0.03814076650375382","0.007397561805459004","0.004723569844050752","-0.38950355696844874","0.2988712024747043","0.798844248259547"
"0.005098565371942572","-0.13748401835318483","-0.19907217730816282","0.11390247944380999","0.2474553343095786","-0.14375163954148404","-0.5059300676497134","0.27465142033671813","0.8572796941635269"
"-0.27051023791648826","-0.06047790236758317","0.14547613115050456","-0.10076169205774152","0.4799238247781767","0.14707859216534247","-0.669883957721652","0.29835352774198404","0.901727658736428"
"-0.09301502086793667","0.4736313856748728","0.07143430353100395","-0.06306566146894842","-0.08739686663822563","0.10647202508102943","-0.7365468394756948","0.27286420994994565","0.9354621725349123"
"-0.29178534954902013","0.01940540214776757","-0.20352461196286864","0.23601429880602726","-0.005300768125656852","-0.11848598883620569","-0.7388113959684011","0.2863607297672967","0.9295997722711513"
"-0.08756070653434547","-0.0621308149601362","0.05633700793965407","-0.029038688659642792","-0.15022165042785177","0.14068769465387068","-0.6079483376461337","0.3143644676896909","0.8731698843521422"
"0.03307821218380746","0.02154578387778539","0.03748599468642833","0.0054707325070807574","-0.2511100607230681","-0.013064789966052055","-0.5070057319837487","0.30298794915871824","0.8399153331483518"
"0.16831037890269043","-0.04553585268558054","0.031634780043541665","-0.053929982196476704","-0.15205592756033093","0.02731289656521044","-0.39219271780353754","0.2967512011883259","0.7979357476338764"
"0.18503179521297894","-0.049553270749514496","0.012898424952426366","-0.0731370877744155","-0.005806065539526317","0.038879256927127015","-0.3465335975193461","0.28660724154478256","0.790222063076296"
"0.15878479677819896","-0.01119449241521617","0.044488395695885724","-0.043620922615136073","-0.02699402562542207","0.005496633643061145","-0.34837354966966994","0.26900630063229186","0.8015526086153196"
"0.17034424671744522","-0.020796793959242426","0.06971850452802901","0.031820777513410385","0.011408577828657314","-0.004579635394167712","-0.3558748930517596","0.27158234870701914","0.7995299091091096"
"0.1161464337649433","-0.03947330548170809","0.03506814910544011","-0.07364615105873126","0.0647008229453479","-0.009239722378605542","-0.39986390292258006","0.25665606058025003","0.8209053860942264"
"-0.05215694933889666","-0.23270859296484128","-0.41245254010381405","0.3624563245286068","0.20649297969307584","-0.16880024834300755","-0.5019387868313182","0.2907732905842937","0.8505773593590517"
"-0.2162628104179398","-0.02585498664713139","0.22548889679501516","-0.10754004923354771","0.6687371530955445","0.19602351457027295","-0.639538900719387","0.32766377808505326","0.8799407852415735"
"-0.07449992371746297","0.6056822925392572","-0.13127969770878753","-0.10971571389265657","-0.2482271726564774","0.21722850856712","-0.7431706672168606","0.2739611873597577","0.9371249000951016"
"-0.35630068806713033","-0.24631010251881574","0.08022122051424081","0.21099415522627527","-0.4259366299041744","-0.15347314372148455","-0.6365666703227099","0.318407260840459","0.8834205140531043"
"-0.14085527189027855","0.07381144036366544","-0.027768561738645673","0.10564023447866012","0.03177887482665521","0.07754231241872633","-0.6348116390408626","0.3205395877157118","0.8797693700291829"
"0.01991885742113718","-0.024578882094745118","-0.015704128616984555","-0.13305658232290224","-0.3008636399382402","0.03472191791611401","-0.5096948928188375","0.30408492656853037","0.8459834316669816"
"0.17030646080489323","-0.005189516997406375","-0.09371205892771356","-0.05098332957564479","-0.167569666969226","-0.056394246388380254","-0.4052705315489166","0.2819974713057969","0.8137745132587744"
"0.22287849379820182","-0.09965753390462392","0.11713923597337918","0.02188453813821803","0.0309583605307794","0.10978881999204647","-0.33597510287210264","0.2774246778334341","0.7879250992302613"
"0.15548994734695384","-0.057208497290448634","0.03399913973488306","0.05778089271772885","0.029272979814926384","-0.0005256872536706471","-0.3600643225632665","0.2860279388676908","0.796341586158643"
"0.16297845806845243","-0.013770514667508556","0.07928893666291338","0.014349979071187598","0.060769323944645674","-0.02796570321292922","-0.3996940611856274","0.2976756203538979","0.801638316221515"
"0.11043747523806699","0.04288796714908868","0.12036609991167432","-0.12948680244533525","0.12690626100198674","-0.03078330174531013","-0.4797178262466374","0.27534165331367855","0.8407038431253488"
"-0.04583191615084665","-0.12638569083555976","-0.2114376899410809","0.15651804691713178","0.2701382777785778","-0.047120637773401086","-0.5622609104057832","0.28941747580812144","0.8712843170158445"
"-0.311795454543942","-0.10751447181278487","-0.07598378888252448","0.06027973863202574","0.31436368152539745","0.009026129619757899","-0.7434820437346078","0.34622611492973887","0.9027047254470548"
"-0.15498391745319548","0.4416657370629575","0.05572776469334587","-0.10852226677382502","-0.13370682021781088","0.1958794776705084","-0.8095787863654741","0.3077579520530697","0.9379134100720987"
"-0.1731375841357806","0.044239713464185","0.03595084339020757","0.1712829944580745","-0.07573225799955871","-0.021971400452863964","-0.7527950323108626","0.3022237626485121","0.9268742703941395"
"-0.1482317391667317","-0.042157187284531474","-0.06216955248367587","-0.022119863814098032","-0.18914380733569036","0.09031226879237425","-0.6888496183480675","0.3374749468289907","0.8855632042079876"
"-0.007914574337809156","-0.03366569903363619","-0.024187486610636463","-0.06742332767452278","-0.29242089631465323","0.02929192410581131","-0.5464656288691566","0.32175982101426687","0.8482289709492993"
"0.1547610078078531","-0.047125730475875184","0.008902922732451688","0.01795461182921603","-0.2299002413760081","0.03140512300509699","-0.41248880536941807","0.31319353674663303","0.8023582601135558"
"0.1884341702084209","-0.085448088702202","0.08078618736183475","-0.04302947979518415","0.015590349529645995","0.053918287749120886","-0.3476375688095403","0.2945818975464503","0.7861252395001592"
"0.18141256193680383","-0.015448641180964933","0.02861265017290124","-0.05168144333276662","0.02313179463131536","0.030100898474352045","-0.3366544698199147","0.27010327804210393","0.7899306572152319"
"0.1642592362173885","0.013442449931463363","0.07105317229087162","-0.04558007695622683","0.03315220666936627","0.013816836368091816","-0.35918680692234267","0.2575681541569477","0.8059751210949989"
"0.11662286483625098","-0.045325736678052606","0.02843023141019849","0.016723143386244702","0.04161079033727518","-0.002529575957792529","-0.39131520216261373","0.2509862896980751","0.8248479359792117"
"-0.1478210227259492","-0.2913729822666385","-0.24379842423335807","0.29373278114597856","0.2559139179774875","-0.27030680051271044","-0.5120443701800202","0.3029386468032211","0.8448349497439642"
"-0.16231109875675473","0.007484400422001469","0.17528654487684042","-0.06367611495097023","0.5545621136230958","0.11674599956149677","-0.6916237000516327","0.33466471256565183","0.8928654922558303"
"-0.10182078135831275","0.4730570685876298","-0.09719041281070569","-0.18230475856282777","-0.217354926273042","0.1116849769875773","-0.7561069461814457","0.28429003083641546","0.9384276557092709"
"-0.2630680560095099","-0.13044653287438282","0.021957021918173916","0.3089729952386684","-0.23769354318239608","-0.07583528164016533","-0.6791403323855891","0.29534608405665647","0.9084471350621423"
"-0.11115225889289043","0.016241615383750404","0.0512485162515787","0.03284524096939854","-0.018138015245476004","0.12016934231617526","-0.606900980268257","0.30443004305701055","0.8793579735194453"
"0.06873332784101513","0.014558446086113359","-0.006778006636190056","-0.11304257975488616","-0.2858789580096975","0.040893800415615036","-0.4932485512905578","0.2859663109233193","0.8465491018678709"
"0.16430145786750092","-0.07288034990526494","-0.008920984333960161","-0.03529214033274164","-0.15988724547309152","0.009350508610460573","-0.38672947526488355","0.2660111825358386","0.8136373810888621"
"0.17814983053122788","-0.06304131765942388","0.10094115826775488","-0.06438267789123422","0.01549847727257882","-0.015006131139728226","-0.3177171161496579","0.2640390883159517","0.7861252395001592"
"0.1626526777876238","0.01178603540545154","0.06278021574390986","-0.03244159717015191","-2.3815760250150043e-05","-0.005963178875193965","-0.32516184561943007","0.25615071143640405","0.797335794390509"
"0.17360467811095276","0.01153333588706462","0.06264809497014652","-0.05056509501010735","0.025406424995944046","-0.02268171941060705","-0.36405560338166115","0.23523418711672842","0.8191912339703197"
"0.09423389021631705","-0.029251862102166206","-0.028905579657627835","-0.09796184399400482","0.09518974025619266","-0.007517001595256964","-0.4068557210938111","0.2105460326015191","0.8449377988713985"
"-0.11709943295542061","-0.19703089488659933","-0.2245718408556785","0.26305168486097247","0.2069998611113775","-0.1547892069015252","-0.5408325445935497","0.2330895346526014","0.8881687154363258"
"-0.21396279834955795","-0.0711335854960161","0.04505513359942823","-0.07817913781450567","0.44678645205670575","0.09981278485218802","-0.6945110095798334","0.2867797997890227","0.9192977180064719"
"-0.11596585557886095","0.525333931260578","-0.02563621037656699","-0.02443071540348163","-0.2475777308392784","0.22283213590042658","-0.7600133061313641","0.2383895378685475","0.9570433477748975"
"-0.2867417516562114","-0.154867616042662","0.039716462548057815","0.2700645068689738","-0.24992205739892356","-0.11916079184606163","-0.6773286871914239","0.26360769270535145","0.9247830048029733"
"-0.09079715208771134","-0.003419359672652766","-0.015888318435635866","0.007735958507496634","-0.023871952889570298","0.09282798176771434","-0.623630391358125","0.2747130482810896","0.8986936094771131"
