"AccX","AccY","AccZ","GyroX","GyroY","GyroZ","MagX","MagY","MagZ"
"0.17453848301071578","-0.0069312386224745365","0.07436115059161129","-0.007918688018316628","0.03102488871693149","0.06196067683734538","-0.32691687690127735","0.276327700423622","0.7903934782886868"
"0.13856333710285043","-0.03393044520312138","0.10409363785621008","-0.13729173537291514","-0.033322123332031835","0.002445419097911403","-0.31859463179058173","0.23550535007196285","0.805272318724197"
"0.1766827514047529","-0.030824930611858623","0.018176171679165968","-0.04795640971496225","-0.010176492168389145","-0.048671500831140156","-0.31822664136051687","0.21694301322727727","0.8130545693667336"
"0.10845453626196921","-0.10749346021203209","-0.036698225831337306","-0.05585639595289154","0.14237248027791607","-0.06997909645521677","-0.3529026626550826","0.2185083630143125","0.8257735781261213"
"-0.2691466593330905","-0.17966130493095736","-0.10704456810855102","0.06265923983443947","0.3932471022485931","-0.2153754677805785","-0.5425309619630794","0.2629914132616368","0.8819634847477835"
"-0.13727382452665543","0.2160991991148105","-0.043442406883493136","-0.031041145064337174","0.07533582870308958","-0.007932340874715074","-0.70982507286176","0.24596977502623785","0.9456442361509181"
"-0.20905062971779964","0.21095836079729385","-0.06032765429716272","0.10585357635299993","0.04544408106318148","0.08367275964569235","-0.7296116352167816","0.24004116677770276","0.9534093452722155"
"-0.19526698596514008","-0.06707274345719302","0.05471146194781827","0.018712926016225824","-0.24789453172571693","0.15560833898290738","-0.648993424076436","0.27458979239234665","0.912183986692259"
"-0.08286211045179401","0.02194500429208845","0.05623779338541516","0.0474507101785328","-0.16490853952314233","-0.020459999559443956","-0.5548444878921701","0.2745281644479752","0.8839519012115153"
"0.10943861285408403","-0.040417426742200245","-0.04673657094783396","-0.07570247100595696","-0.25112590076739","0.004431155206446516","-0.42633090693108544","0.2696718824315037","0.8364698873792993"
"0.17711482510045606","-0.047824716394251426","-0.031091062698163616","-0.028825346785302994","-0.07129070957169044","0.008206697777672611","-0.356299497394142","0.25548512963719217","0.8138259378224917"
"0.13651304063046435","0.05070848494927812","0.11390882992318688","-0.002127617892673056","-0.013223166293268552","0.0044591733431130496","-0.33201212900986665","0.2553002458040778","0.8090605949180308"
"0.1722527638744732","-0.04042302983573432","0.07886671692477422","-0.011999854705563473","-0.0524014567177927","0.021523797059604298","-0.31214064578636846","0.2554481528705693","0.7989642389082203"
"0.1578996371336822","-0.061804434761776154","-0.006480469236830241","-0.17054983251628325","-0.0268578012442535","-0.024210878277970634","-0.3253883012687006","0.23210348754265794","0.8081863773348386"
"0.1166031504470934","-0.06940643191413653","-0.14087882095003873","-0.18443817730622578","0.14103716454157766","-0.02181749801201963","-0.36674476421674995","0.17386508011162247","0.8442007134581186"
"-0.3983744802608863","-0.33587555266105334","0.017428786068869287","0.17351146651182195","0.10232726422765288","-0.3031590523083281","-0.5124406675662438","0.23848814257954182","0.8827348532035415"
"-0.21095635400303034","0.32098911007275155","0.13723009465396105","-0.18580060808790078","0.21900661470739805","0.0018272442938533232","-0.6701387203270813","0.2097941716801872","0.9485240117190813"
"-0.11787157986409166","0.23257229410499994","0.09106397924257813","-0.021411188578048496","-0.01013863446245974","-0.03341542810539145","-0.6486254336463712","0.1847115983210005","0.9457128022358744"
"-0.20103344479372592","-0.1416443153022378","-0.10689934152076828","0.02235980468996511","-0.23948346819077382","0.04007693361421049","-0.6202901705313831","0.21986417779048475","0.9303197161631921"
"-0.01846177253710294","0.0024578652125800513","-0.036811573412045794","0.009786997715258492","-0.14142408981145363","-0.03810353322649581","-0.5330764386060304","0.20837672895964351","0.9040760471461802"
"0.11452656812249723","-0.0277292214342805","-0.005184056282476757","0.08843030456595188","-0.18155642610548742","-0.005055351785033984","-0.4309732477411335","0.22468348304033345","0.8584796006502614"
"0.17648396464741417","-0.01405487166436302","0.06782170360711018","-0.030942923310309442","-0.004432575296372043","0.01929398746475579","-0.3163300752978753","0.24629024033696945","0.8057179982764129"
"0.1532318283555318","-0.009558949412618789","0.06171297742930138","-0.09786362223997708","-0.05093783662244666","0.05877805328501316","-0.2968831964167597","0.21710324588264307","0.8095919820764419"
"0.17982391074385723","-0.06427399823692105","0.05251730073313449","0.017971510195500376","0.011456097961623094","-0.015233038584562823","-0.33062508815808406","0.1950774185642811","0.8272648904739203"
"0.14487802023659274","-0.05076774127302591","-0.003706995621369095","0.009818787766830908","0.06523146443013246","-0.029204815172547714","-0.37090588677209807","0.20458044758636115","0.8392296722987891"
"0.03728066280589369","-0.053887263598123875","-0.08729729428199179","0.014832638658184082","0.2796739844603778","-0.026864708828427442","-0.47960459842200215","0.18481020303199483","0.8886315365097808"
"-0.39770090529800306","-0.16859519520115324","-0.030623503927741054","-0.02548263870468184","0.3483722566845744","0.0020152815068336456","-0.6415770015628227","0.2396097711671025","0.9273542329888335"
"-0.13937669270346167","0.3596084322563845","0.14751284549136043","0.07468559588942622","0.061745070674876355","0.16060227587748444","-0.7250259083190511","0.22802371762526688","0.9572319045085274"
"-0.22897859142456503","0.06871682756780496","0.02477122982045218","-0.02701405314920022","-0.09804771244028922","-0.09767956269898115","-0.7297531699975758","0.22681580991558614","0.9644484849501745"
"-0.1012457783412173","-0.043363253167741776","-0.03326237729111085","-0.06091111976769496","-0.20444529015067167","0.09405722818625308","-0.61021289413884","0.22203348143236037","0.9268228458304223"
"0.010403378921088946","0.0024313905956315322","-0.17680646192273655","-0.0820118985173727","-0.21890725061659086","0.02271950063847182","-0.5155827396998739","0.19953928173677526","0.9000820726974774"
"0.1610400900405084","-0.08289587959742944","-0.04831989496585585","0.10710088701436284","-0.28161798608709915","0.08249876025720031","-0.31284831969033927","0.19404206909884045","0.8244536809907133"
"0.1811250604282561","-0.03712841083769643","0.09244363182651441","0.12115821546714879","0.0587497182936","0.012864614343072891","-0.2828995600742979","0.22064068988956526","0.7983814271860922"
"0.14780363558757442","-0.02550199175448447","0.1045399439552498","0.09044437859746673","0.005187875622550212","0.02379879083259812","-0.3180851065797226","0.2505302429097263","0.8014840425303632"
"0.16516084094819414","-0.002207270463893334","0.007950094632120852","0.014795673481937086","0.01451797852905155","-0.02086251363549837","-0.3365412419952793","0.2693267659430235","0.7969929639657276"
"0.13987270111606492","-0.08554754361243187","-0.03746686411301683","-0.057373024326911125","0.06357142778519452","-0.013874750888700767","-0.3688394789725035","0.26241211058454494","0.8147687214906403"
"-0.028023251278518818","-0.16933760509441856","-0.3347031839615763","0.31942885937710425","0.3794821037328387","-0.1273294598601071","-0.5173660779378801","0.28127026156221363","0.8685588151388332"
"-0.24867655192449226","-0.08170242067467082","0.11829396445184703","0.0145707139807768","0.35063738302260994","0.08452711550320001","-0.6870379731539025","0.3344798287325374","0.8962252304186874"
"-0.09796004681495755","0.48043914431877754","0.051668964933769296","-0.130194421533492","-0.014982678416548182","0.12741064946872283","-0.7705718007786074","0.31977540120550557","0.9307311126729295"
"-0.2703295226825439","-0.029962054207610597","-0.08166887847743526","0.1375285078051039","-0.17713705373966981","-0.13844003222413853","-0.7190248336133794","0.29792213213138374","0.9277484879773319"
"-0.07722708088425854","-0.030892167734267558","-0.04076811240115193","-0.07273363927937686","-0.07703906165611767","0.13251113420696137","-0.6201203287944301","0.31189934991483226","0.889231489753148"
"0.009411088000158508","0.03786199224902067","-0.06731269895832412","-0.11126825129503039","-0.27813317633627527","0.03235024184053849","-0.5045996407102482","0.26800792793347405","0.8677703051618358"
"0.15061753606666325","-0.058543434324942724","-0.07288089886062925","-0.044921040671137544","-0.26791634774863243","0.032490332523871145","-0.36600878335662057","0.25558373434818654","0.8177342046649989"
"0.20317724756674838","-0.0897624707234421","0.10453285973145553","-0.09510813238773677","0.007928995292459648","0.09008536134753964","-0.3062244919491734","0.23629418775991765","0.7995641921515878"
"0.15495256595583407","-0.06370948656336269","0.017744034027714805","-0.0862396585321362","0.01103950479595642","-0.009807582923156819","-0.3036202519825609","0.1999830029362498","0.8151458349578997"
"0.1624103550875621","-0.031123295342548273","0.04125940649045229","0.05147885824156252","0.061973167313112115","-0.047907907951566346","-0.3316724455359607","0.20517207585232725","0.8242479827358444"
"0.1076117461254836","0.008410731860522923","0.06255493742725173","-0.04512698951022795","0.15406243298749808","-0.03482225426336595","-0.4099411793151234","0.2040134704981437","0.8526000588652616"
"-0.13249308515594754","-0.11303351894385175","-0.2619198686991297","0.15626457142286668","0.4289188820615723","-0.07744533794438298","-0.5706963833411144","0.2234385985640298","0.9113783351940229"
"-0.26462877848448335","-0.025747127096600386","0.259932392882811","-0.06282274745361101","0.10696047719181648","0.20927688245682935","-0.6660342116840511","0.252785825673722","0.9340394262720695"
"-0.1120394064049806","0.540630376608611","-0.07095398998858475","-0.1117646408046329","-0.16151877003825","0.13149301036752964","-0.6726863463813759","0.21758394384874052","0.9480440491243873"
"-0.25735088315381793","-0.1851803520620242","-0.08913565035660782","0.20139377088098417","-0.26687090482338527","-0.1076970331113746","-0.5866898135708529","0.22624883282736866","0.9198805297286001"
"-0.03007683348243116","-0.0182894096027425","-0.05881163040518652","-0.08456038338262983","-0.13476968719181215","0.06864556747299419","-0.4582611534782448","0.2075878912716887","0.871387166143279"
"0.1275183505773283","-0.05246547861385156","-0.012817307420814904","-0.003769082947618204","-0.24111499275593226","-0.0034001113026709984","-0.3392304028303681","0.20333556311005757","0.826664937230553"
"0.22747358933767609","-0.12596265727373684","0.1062295313301859","0.028164393508636157","0.044542782541263835","0.08614506424028148","-0.25147883873799753","0.18715206491811057","0.797575775687856"
"0.1480071866556262","0.024892231491013505","0.059375750315092075","-0.04271052313156722","0.04940726015252756","0.012432109022135991","-0.2739262549719492","0.18372555121105705","0.8104490581383954"
"0.16151893612448787","0.013861981559827458","0.05132467165736722","-0.004448080427880871","0.032119435779576634","-0.04881159151447283","-0.2978173259700009","0.18257927144574776","0.8214024902101593"
"0.16990839443048686","-0.02248752743315048","-0.02059578514693581","-0.019239748510510708","0.003337758445749161","-0.03295174767464249","-0.34217432627088645","0.19078811363602707","0.8303503642969524"
"0.05627383389343816","-0.03535643250754424","-0.07298362010564634","-0.026180752461803666","0.2603174502989832","-0.029449480591325895","-0.40829937585791126","0.1795841533492945","0.8632792265972002"
"-0.3448334850404838","-0.23099964943694748","-0.1540271403122249","0.14298879241073148","0.3237568278083001","-0.1655525122195489","-0.5538820513827699","0.22566953015027688","0.9045902927833521"
"-0.21961425657472475","0.29754016363263497","0.16956957627485536","-0.03308690353263517","0.2385215493120119","0.2133612164638521","-0.706796228552765","0.21264138271014896","0.9607116333200582"
"-0.08570426822200872","0.22098789822329357","-0.026659880714840645","-0.14255135187891618","-0.1726384811522426","-0.1864398357936275","-0.6314997251702795","0.1854511336534581","0.9442043483668364"
"-0.20762133650387665","-0.26442210236772307","0.013752073919637267","0.10108084402556645","-0.3274432343104335","0.08585501733253639","-0.5833212857879523","0.26098234227512696","0.9003734785585418"
"-0.02667610135275231","0.07941873621789404","-0.04875911684110129","-0.03752483697806016","-0.09424451779859458","0.03192996979054049","-0.5062414441674603","0.24064512063254315","0.8787065957123608"
"0.1383086929095653","-0.018449097768463728","0.02591356090728005","-0.054824539461653984","-0.29379898017066086","-0.05382723259942539","-0.34084389933142123","0.22527511130629949","0.825156483361515"
"0.21996569280017259","-0.057347173855417065","0.07307996871841552","0.050585357124277995","0.03932190393275676","0.07011355998566324","-0.2829844809427745","0.21691836204952872","0.7968901148382931"
"0.12875378563120196","-0.008656991430970576","0.08543733449397016","-0.0021261392856231757","-0.031090261087072347","0.05560332216554476","-0.2792196557736502","0.22409185477436736","0.7953988024904944"
"0.16016868118242905","-0.049352960155671206","0.0635467287584511","0.036268216289870314","-0.013957827548919517","-0.050764968648266316","-0.29909113899714823","0.21844673506994106","0.8010897875418647"
"0.15490015853799022","-0.11873886893492672","-0.1419379124072838","-0.028022674386796807","0.04711045372584817","-0.031706716390376144","-0.3195853752561406","0.2252997624840481","0.8077921223463399"
"-0.002954762598920068","-0.10768396539219073","-0.11453259265910641","0.1532756728863239","0.3189731344230782","-0.1522103544632746","-0.4361817276743581","0.2194451077687588","0.8607937060175357"
"-0.3210940747632571","-0.1050687214851598","0.1229057941419242","-0.03434371952503302","0.3986010372294043","0.1487320568503111","-0.6029946203183385","0.2857937526790792","0.8936540022328272"
"-0.09135572644717545","0.5773586547244927","0.09729278301369998","-0.06357578090115695","-0.09890624284253766","0.21770205453894872","-0.6536923787988015","0.2528844303847163","0.926994261042813"
"-0.31516332935835817","-0.0440762468199532","-0.11277216304622752","0.17774661956183485","-0.07325329106317716","-0.21336289740030642","-0.6679307777466927","0.24594512384848924","0.9353250403649995"
"-0.04317047361457627","-0.05493644286237998","-0.004231228182145919","-0.08950843626026336","-0.15769181533007245","0.10819257544534046","-0.5338973403346364","0.24939628873329134","0.8888715178071276"
"0.05135509379862732","0.020067967958172308","-0.03335447220043652","-0.04840844101306836","-0.2732544426851218","-0.012372623603895738","-0.40926181236731163","0.23997953883333129","0.8423494291642994"
"0.1986577238523781","-0.12041419390161606","0.03588496010892075","0.051639392721263756","-0.126456831931665","0.11849022722439925","-0.28703237567348716","0.2418037259867267","0.7884222033461941"
"0.15721282067274814","-0.04701506937857714","0.04678368420523288","0.006850695343775734","0.006733547147483831","-0.00886266139853692","-0.28301278789893336","0.24084233005453182","0.7901192139488616"
"0.1543386270201524","-0.006400765742135697","0.044838710562512936","-0.04071757205790778","0.028783522445378847","-0.016142246850473975","-0.2999969615942309","0.21792906033722073","0.8058722719675645"
"0.1674306242865344","0.015613368521241905","0.05419835161839848","-0.023643885223367016","0.06409890126111469","-0.021363683122350437","-0.33458806202032015","0.2118155682555713","0.8235623218862819"
"0.0974818358300248","-0.013748102293372245","0.07314903990040976","-0.03342381471042922","0.08453255843640028","0.039569844802710565","-0.380332103172988","0.2107062652568849","0.8407038431253488"
"-0.23770220862678465","-0.24926573435804192","-0.19099970429457921","0.23809491015478673","0.3516036257262474","-0.24913534935553458","-0.5297079108231297","0.25499210608222045","0.88129496541946"
"-0.17760617901149386","0.016358159729259227","0.13160522096130167","-0.0031311696203843416","0.26738211006656254","0.15057888614044315","-0.6564664605023669","0.278595608776492","0.9169321880754805"
"-0.14400957415548793","0.5366521801994156","0.021001360128325368","-0.1688916803246323","-0.24786285163707308","0.15299199748855366","-0.7024086503481466","0.22799906644751827","0.9510609568624634"
"-0.23628934407049296","-0.12633666376713656","-0.028161736159228283","0.22974078032296574","-0.14756210698620026","-0.17764963869155684","-0.6013811238172854","0.23774860724708424","0.9136067329551015"
"-0.044829768035337426","-0.007755313603999065","-0.06668574515253023","-0.07658752294009932","-0.14187553107462852","0.09753384486276227","-0.5181303657541685","0.24136000478725214","0.886420280269941"
"0.10353908189868465","0.028478211352823454","-0.059976985219345795","-0.008495344767769758","-0.24542348481149634","-0.03474332993472783","-0.4086107523756585","0.22744441494817508","0.8476975837908883"
"0.22159048703990802","-0.10274343766851741","0.05483515249526643","-0.009589619599470096","-0.06749543495215676","0.08611349450882623","-0.2980154746631129","0.22039417811207937","0.8010555044993866"
"0.16590998773618137","-0.0022457917319401196","0.0336452827563587","-0.047954297419176714","0.024814007338303985","0.023054929035183833","-0.2804651618446388","0.22718557758181493","0.7921076304125935"
"0.1550379949755168","-0.035553941554620494","0.0888575977418492","-0.10529045422194484","-0.00044737854541847315","-0.010005288366395311","-0.2902310617194349","0.19211927723445074","0.8085463492808589"
"0.16284374307587576","-0.06431742221181015","0.05692641535933828","0.03915044388924317","0.030801544091992324","-0.040062829684937164","-0.32218961522275286","0.18537718012021231","0.8260821255084246"
"0.06901261502074721","-0.020658117394273996","0.0069689296366128835","-0.014021321772327731","0.141648590252404","-0.06518444349045094","-0.3964387612273619","0.19433788323182352","0.8499259815519671"
"-0.23361147287659126","-0.204833202632803","-0.32443105945986833","0.2927400021267736","0.39864855736237015","-0.21336289740030642","-0.5819342449361695","0.2458465191374949","0.9051045384205241"
"-0.11954730294248414","0.09779688300967006","0.24674156817785917","-0.05750609896140031","0.35127098479548696","0.2496861387195471","-0.6793950949910185","0.26804490470009695","0.9270114025640519"
"-0.11350155693416616","0.35294075095083166","-0.0169792888999552","-0.20013253499280725","-0.18176234668167246","-0.03448090654200608","-0.6790837184732714","0.22993418390078232","0.9419073845208012"
"-0.22357356306386772","-0.1550637243163547","-0.10304552377667922","0.22245335986284384","-0.22696983317645159","-0.06518838970688286","-0.6288105643351908","0.2476707062908903","0.9196405484312531"
"-0.033970425341048965","-0.007677150449198677","-0.0030481628085009317","-0.017940686602402015","-0.1536510200235489","0.09818299746581083","-0.510912091933667","0.24160651656473803","0.8776781044380169"
"0.11743279765747398","0.008029161190852207","0.0073408513858126525","-0.037921948585742174","-0.2292507995588091","-0.013116485401310026","-0.40444962982031074","0.2359490712714374","0.840720984646588"
"0.20487761363158782","-0.08906208403168234","0.04743932911739362","0.0029181286650418123","-0.023441103684013885","0.08204494536753111","-0.2752283749552554","0.22818395028063268","0.7921933380187888"
"0.17178043996757336","-0.023844876841780886","0.04826605803418625","-0.04909176869969139","0.008220135307096662","0.016835100006035143","-0.2774929314479618","0.2187302236140498","0.7960330387763399"
"0.16102426924320945","-0.04670409768743581","0.03713355455266283","-0.010710298128489719","0.03079362406983136","-0.024129980841116564","-0.3161036196486046","0.20493788966371568","0.8190883848428852"
"0.1354156063006936","-0.04487888996870989","0.0018116147143760683","0.04250688189247036","0.10884861047499016","-0.05678492181513896","-0.37090588677209807","0.22007371280134774","0.8306246286367773"
"-0.07292277258485826","-0.05594640047189755","0.05474560790650671","0.010693172607256263","0.2414994776445341","-0.09276652324125813","-0.47872708278107834","0.21266603388789754","0.8779180857353638"
"-0.3576642666505281","-0.00014561219802931486","-0.12804574954669806","-0.11941115154829708","0.20688898080112403","0.015405583103577187","-0.6830183853793487","0.2227360399981951","0.947924058475714"
"-0.11856158348460617","0.141692918529021","0.055224536856119104","0.013883161702582688","0.0348977795536426","0.033952405711892335","-0.672176821170517","0.22410418036324162","0.9444614711854225"
"-0.19321340376122773","0.05829927591457036","-0.035918961213966365","0.002562206825177885","-0.21095554836698358","-0.04576511242904137","-0.6654114586485569","0.21651161761667703","0.9425073377641687"
"-0.058136980716689386","-0.032924689913754364","0.012306892265603876","0.013208283199101828","-0.1495025124156363","0.03361697731518032","-0.5529479218295286","0.22128162051102848","0.9049502647293727"
"0.049855157356889744","0.017517299704121626","-0.07603337844908446","-0.03255354884678567","-0.2126821131980736","0.004840772472078363","-0.46412069340312245","0.21990115455710768","0.8727756293636436"
"0.19404784252103568","-0.08290568501111407","0.01480408115308805","0.029394805803714716","-0.24398204077820101","0.09102653396654924","-0.28666438524342236","0.2085616127927579","0.8047752146082641"
"0.13810333468917407","-0.01794902167054726","0.11905551850973227","0.07494223982736964","0.04171850263866428","-0.01253974586978696","-0.28488104700541605","0.22598999546100848","0.7988956728232642"
"0.1540862828389357","-0.017754314170238053","0.08338716012790515","0.03047946968959083","-0.015652078689592806","-0.03146205097159797","-0.3187927804836934","0.23083395188860573","0.8063008099985411"
"0.1819119931287953","0.00820733956523589","-0.0045996078194485476","-0.03391914807213896","0.06072813982940866","-0.057651116321942336","-0.34687328099325193","0.2428514010410416","0.8138773623862088"
"0.10310043673992897","-0.015319770029681132","-0.017156394494812228","-0.1890957895133472","0.15992324938661098","-0.0198029545235316","-0.40960149584121747","0.21117463763410804","0.8510573219537455"
"-0.17683403210282284","-0.2452455147473409","-0.3290003838071798","0.3690678103373552","0.32926916323233063","-0.15889327199070746","-0.5669881720843079","0.23909209643438217","0.9053445197178713"
"-0.18087548188012229","-0.012030754125177321","0.0884243974568289","-0.10832159867419848","0.3920749389687705","0.22387788325488164","-0.7050695042270765","0.26834071883308","0.9390276089526381"
"-0.15343962363585342","0.4252766884757792","0.07652821465028195","-0.1026236807926973","-0.22416614533147058","0.05984550482984375","-0.7448690845863903","0.22300720295342952","0.9663169107652332"
"-0.20546918235417658","-0.04529912198376574","0.002091441554250182","0.19828869607623656","-0.13472375106327858","-0.07052959364746766","-0.6839242079764312","0.2546469895937402","0.9361649749057138"
"-0.06723845704442892","-0.010134106963891902","-0.09795196686859094","-0.05222535949754383","-0.14555200536174775","0.051110554757819754","-0.6058819298465391","0.2658756010582214","0.9082242952860344"
"0.09625625797072991","0.01973318311951114","-0.07168012292749856","-0.07496739207258815","-0.2629267337872255","-0.007770546001006925","-0.44608916232994833","0.2232537147309154","0.870067269007871"
"0.15348860827430905","-0.06553609505547213","0.05684193599059147","0.010510670251385383","-0.20351072753567798","0.08381087722080906","-0.32669042125200665","0.22162673699950872","0.8196026304800573"
"0.1676142966788523","-0.08488497780202715","0.08474556004045859","0.02361450838657741","0.025053192007565075","0.07488058943540572","-0.3068189380285086","0.23186930135404635","0.8060608287011942"
"0.1531036848260077","-0.005117517245493471","0.02839587292479623","-0.027581204567618405","0.029008451074750204","0.0012935185214380325","-0.3206044256778584","0.22622418164962008","0.8150429858304654"
"0.17548904514126273","-0.011277138044843822","0.029169470163131754","-0.029569931049706757","0.035346052807953124","0.0026654206639901636","-0.34418412015816313","0.21792906033722073","0.8268706354854218"
"0.1103717606075418","0.01875684407119804","0.14026214243791346","-0.13683759177902347","0.11272625332499783","0.04019532010716767","-0.40872398020029366","0.18333113236707968","0.8606737153688622"
"-0.059418416011930736","-0.0988226729680463","-0.38195495666943274","0.231314440683195","0.3347656586120392","0.0002529012483444125","-0.5204515361591926","0.18552508718670385","0.9030818389143143"
"-0.3713986244302938","-0.16792282397706385","0.1680110470401135","-0.06603132475185021","0.11389049658265946","0.09363695613625507","-0.6389444546400517","0.25151629001966974","0.9209433040454224"
"-0.16017537326468592","0.6393989078805719","-0.001114169712662126","-0.12045673796214067","-0.10082764021878737","0.2714495223415088","-0.714778790189555","0.20054998002446728","0.966334052286472"
