"AccX","AccY","AccZ","GyroX","GyroY","GyroZ","MagX","MagY","MagZ"
"0.04229797484649232","0.08255366705021071","-0.01609376092567002","-0.01823957645605629","0.2470276531128866","-0.10275242392219634","-0.28921201129771684","-0.3222275464898055","-1.0480689576437434"
"-0.289304622246694","0.055557962403022666","-0.18904445852735757","0.010919821945044983","0.25879680604407823","-0.12875404399202514","-0.14827167658290644","-0.295641251287955","-0.9658067972174604"
"-0.15618320946028033","-0.16960375203728725","0.22847843923620187","-0.021690011621740113","-0.03554923356369474","0.07458265009479681","-0.15897170601094357","-0.290217992183266","-0.9710692442378539"
"-0.04364690468588393","-0.2522213661972681","0.09750885183942556","0.06834025934965628","-0.04108691305864036","-0.04625247015838176","-0.18710882043281998","-0.2838086859686335","-0.9910391164813672"
"-0.245472963686389","0.040922682092010804","-0.14352123642530568","-0.011195070011271745","-0.015002953673280247","-0.0016499643151206749","-0.14917749917998893","-0.2943470644561542","-0.9611100203979559"
"-0.03786401719966677","0.020451779865256647","-0.045705816385766034","0.015829642268960185","-0.13523380049044462","-0.025440124696509366","-0.16409526507569192","-0.2879870605970189","-0.982039817830857"
"0.0863234915668467","0.026293004874533017","-0.019611078039530716","-0.04753183826206819","-0.1598698214243374","0.13762148448627967","-0.2018001306792524","-0.30175474336960445","-1.0154829257682771"
"0.17484454890238688","0.05013136631526808","0.04023361088504035","-0.0543714520156551","-0.21909733114845398","0.1293186451135494","-0.2782006053519324","-0.30498404765466924","-1.0667189327518487"
"0.16896078945831355","-0.05406236027106381","0.14072261698454178","0.001441000222211877","-0.0745442546754142","-0.06677279560429313","-0.298496692917813","-0.294716832122383","-1.090288524455566"
"0.17350314900679134","0.0675779988070036","0.03295173724689856","0.03165496229424529","-0.050313738876162736","0.030039732119657506","-0.33625817243369105","-0.30613032741997853","-1.0998877763494437"
"0.16703190076582278","0.11240694939977855","-0.02512260415148159","0.06096095402286323","0.09437872998691","0.01731535454579811","-0.33894733326877985","-0.31893661426036923","-1.0886600799378545"
"0.039089458011099684","0.06633271126905477","-0.12462052734216307","0.09188918891477786","0.3159635260019121","-0.1241507825242068","-0.31514118313920453","-0.33858360292599254","-1.0471775985393121"
"-0.5436038137215673","0.20130703218484441","0.03473979533257517","0.24994488951168065","0.35239562794234375","-0.2648610218366801","-0.18543871001944912","-0.3421210469329148","-0.9446370184872124"
"-0.03995045671884172","-0.5615401447460469","0.18143919324217378","0.029968294109489528","-0.15127026136196334","-0.1434931623651942","-0.17366301625737632","-0.31956521929295817","-0.9493337953067167"
"-0.3033346958638231","0.0979229526141868","-0.10658409356192275","-0.05231618821632216","0.24717021351178392","0.1839776889118798","-0.19016597169797375","-0.34802500400370123","-0.9422886300774602"
"-0.11550585316518461","-0.09080044380063006","-0.0803901760825675","-0.07730992809875488","-0.06979540938770053","-0.12581608585847112","-0.1518383530589187","-0.31903521897136355","-0.9498480409438889"
"0.013104250235674467","0.10864307131826163","0.03040850090475156","0.022111609935163857","-0.2681697884577833","0.02867631434243397","-0.205338500199106","-0.31437614637688077","-1.0049580317274898"
"0.1238120454157073","0.07343463232349869","0.07463424741888083","0.013126959811358438","-0.27140115749945637","0.12566247558938845","-0.2735299575857257","-0.33063359810207343","-1.0455662955428398"
"0.2195106189837856","0.12264099973977212","-0.007461634232338209","-0.041862436373671874","-0.11648077201771546","0.016700731336528746","-0.327652857761407","-0.34070360421237106","-1.0772438267926359"
"0.12551076861478358","-0.03527378687791659","0.1255021621625283","-0.04162163465412002","0.13030078250017565","-0.03307013416759967","-0.29988373376959543","-0.3174452180065797","-1.0760782033483793"
"0.1682998645618064","0.05040031480490382","0.11861629663448683","-0.01607341712798236","0.03348009558683015","0.04640666477098776","-0.29991204072575445","-0.3191461492712322","-1.0715699832625047"
"0.07791694745691112","0.039474282413451627","-0.0032677737461236527","0.09775714660701518","0.1936467037479932","-0.11395573237237755","-0.318339869185152","-0.3265045258291852","-1.0594680692677232"
"-0.32497123796424365","0.2176960807720227","-0.027591456143788645","0.10922374427883313","0.4649549828939558","-0.01778229439957412","-0.21199063489643075","-0.33730174168306615","-0.9708635459829853"
"-0.0740399213037866","-0.32538376001849223","0.18675590319978191","-0.12318159952549061","-0.05742116676341131","0.004940611747805585","-0.17802228750583568","-0.33232220377785165","-0.9453741039004924"
"-0.04847693002948574","-0.18463405044245165","-0.12453197454473454","0.16014063418933733","-0.052387200677902965","0.03284154578631079","-0.21886922524302635","-0.34106104628972556","-0.964966862676746"
"-0.14675315997991484","0.08098199931390182","-0.08753107366720309","-0.07086531365706443","-0.05318553891172808","-0.14205279336754847","-0.17553127536385874","-0.3459789562505685","-0.938946033435842"
"-0.055557681468575516","0.03905685194516281","0.040382733795909974","0.015097731779269676","-0.25168030231865746","-0.009306413436304754","-0.18391013438687237","-0.3179012647949286","-0.9847481781866296"
"0.10078399601391586","0.06869301442028514","-0.027605624591377203","-0.05515088916052032","-0.32584338983391886","0.13820749762641774","-0.26631168376522424","-0.3282424338604606","-1.041538038051659"
"0.20998692615492173","0.12545235192049578","0.052445041650432817","-0.04080206388932949","-0.16871015016040478","0.03577555770343292","-0.3335973185547611","-0.3243968501316811","-1.0932197245874464"
"0.14041648968366094","-0.010372238439090218","0.09126410856476656","-0.05067915898252665","0.10891355465671004","-0.033200359309852566","-0.3189343152644875","-0.30440474497757747","-1.0971451329511928"
"0.16473386013635669","0.020028746303433757","0.053166676107237285","0.0017916413226119474","0.0666079642817079","0.0015008921949346942","-0.3063377197738085","-0.2998319515052147","-1.0932025830662073"
"0.1470446316050084","0.048786623867089346","-0.029266875071136178","0.0879655994931325","0.09578215791383271","-0.02480478385097249","-0.3348428246257496","-0.3062289321309728","-1.0847689546165864"
"-0.0505140835757668","0.17666742836873622","-0.19684064681296418","0.008212492436715043","0.483091833642562","0.03623331880953402","-0.2625185516399409","-0.3194666145819638","-1.0214310336382333"
"-0.28343959147232034","-0.06901701691351812","-0.0005509739210167585","-0.11096196840612671","0.022583729097776686","-0.03363444311736223","-0.18849586128460258","-0.3101114926263752","-0.9673495341289763"
"-0.1004900600901776","-0.5356678603524415","0.1760870621655942","0.17222296608264095","-0.22598775042849215","-0.1489014519851214","-0.1931382020946508","-0.2887019447517279","-0.9844396308043263"
"-0.2800388593426415","0.11589487512474216","-0.1268874789563331","-0.07787707951717307","0.10993523751547433","0.25037672659513066","-0.22249251563135666","-0.33287685527719485","-0.9736404724237141"
"-0.11016653943501253","-0.01310094499018623","0.0849347088157659","-0.09859130813809651","-0.0117060068481144","-0.0756004817624669","-0.18750511781904367","-0.29785985728532777","-0.9867194531291223"
"0.04286147780324587","0.00255325787999773","-0.17530814859024604","0.13186755509984974","-0.30566317336778404","0.034260210593581","-0.2063575506208239","-0.3164591708966363","-0.9982214138805362"
"0.14669732978268277","0.09708809167760918","-0.07858369901502575","-0.11571463392359756","-0.3440436007598128","0.18457554070131357","-0.28677761306805744","-0.3293147600925241","-1.050451629095974"
"0.2186645431157737","0.023847254546907944","0.014563217544082479","-0.09907185542930745","-0.019914951417509756","-0.01948133788433126","-0.3249070830140007","-0.3040103261336001","-1.098447888565362"
"0.11443785337128823","0.0017633617690310768","0.19641170023138738","0.02369688792221357","-0.021579898476187482","-0.010572951600124992","-0.30840412757340324","-0.28493031455619416","-1.104344571871601"
"0.18221756616073745","0.05180669128195741","0.05862039495302683","0.013878937111011604","0.02385568465682741","0.025416739569679592","-0.3529026626550826","-0.3048361405881777","-1.114543777008846"
"0.14204621252068578","0.09289137462058472","-0.0915301179990749","0.13985203316920072","0.10519589625435383","0.0008158290223558076","-0.36213073036286103","-0.33063359810207343","-1.0908541946564552"
"-0.06615416564076322","0.20880116978667382","-0.41075232639318643","-0.07100155673523192","0.6159106052819183","0.07554750001239784","-0.2749453053936671","-0.33724011373869467","-1.0178998802629853"
"-0.18513050420662866","-0.22070396506807907","-0.06284963796792688","-0.28831032256028283","0.021585806305495298","-0.03520503725726084","-0.18249478657893076","-0.30940893406054054","-0.9651554194103759"
"-0.1094601071568667","-0.34988328649624845","0.19432185421207437","0.24918446302888533","-0.29739467023173827","-0.042241141155349285","-0.21606683658330245","-0.2834635694801533","-1.0148144064399534"
"-0.1341359509190774","0.07316568383386295","-0.03593312966155492","-0.07235553833376475","0.03587352628387329","-0.11987703012845256","-0.2004130898274698","-0.3123054474459995","-0.9832225827963526"
"-0.09424717019028406","0.02131325549612115","0.017492544083017814","-0.002468436817670353","-0.14996504170983657","0.007377005772864369","-0.17380455103817047","-0.2848317098451998","-0.9969529413088453"
"0.06832096853446952","0.03104722973819824","-0.07329178384069758","-0.0636475989578654","-0.2209822964227633","0.1151576474476546","-0.2267951729674986","-0.2838086859686335","-1.0464233716047933"
"0.18807766833782172","0.10678424503833124","0.11559841729812297","-0.07539196352548222","-0.14857745382723578","0.055765117039252916","-0.2956376903457711","-0.27494658756801665","-1.1010876828361782"
"0.16018913486118","0.020020341663132643","0.04924899408564279","-0.0338145894307546","0.021663422522672737","0.006851567054956081","-0.31267847795338616","-0.2645930929136104","-1.1169093069398373"
"0.14778424977156948","0.03352519785364426","0.11671064043382516","0.1074811002557605","0.02829089706696692","-0.007285950623168867","-0.31783034397429333","-0.27203774859368346","-1.1102755382203182"
"0.1631235231153368","0.046670055284591366","0.07641097074648659","0.0897684439460931","0.07480677122273723","-0.028453060942269615","-0.31505626227072797","-0.2939403200233025","-1.0862602669643853"
"0.028775546750170324","0.022655196397532846","-0.03458712714064146","0.18615355678829434","0.21572772553275918","-0.12649878130119088","-0.2955527694772945","-0.326073130218585","-1.0396867537578398"
"-0.35253852546956294","0.08067943226306161","-0.19902967196539714","0.10054009630446754","0.22882744218699266","-0.08329165758825176","-0.21697265918038494","-0.3363649969286198","-0.9689779786466877"
"-0.12181445769560334","-0.3446023708403799","0.14912450640455943","-0.12155513177062281","-0.028661982292520965","-0.06084163230713835","-0.21584038093403157","-0.3174575435954541","-0.9771030597140055"
"-0.19993272473242885","-0.07892608782853515","-9.75835981827554e-05","0.09237607309334542","-0.04254102912739325","0.11723533039905312","-0.23387191200720575","-0.3234231286106119","-0.9870622835539037"
"-0.1196623035459032","0.04869977591731113","0.04927272623535363","-0.08827908011307756","-0.09340499544953246","-0.12349373748829444","-0.22028457305096796","-0.31565800761980717","-0.9957016102583934"
"-0.017065336638442532","0.030732055726906352","-0.056792626623816324","0.09511043998773033","-0.27795893584873405","0.003293855630771199","-0.23407006070031758","-0.31490614669847533","-1.0201797025877815"
"0.16631068269580876","0.08303133077399087","-0.17894943962050666","-0.1150386992722239","-0.30834014085818967","0.14859591238341036","-0.33447483419568474","-0.3226219653337829","-1.0880772682157263"
"0.22810280692495485","0.03782277059428212","-0.0313071315238892","-0.13991098214698797","0.04116726909626123","-0.05236121319497229","-0.3670561407344972","-0.2906740389716148","-1.1314281754293272"
"0.13790454793183535","-0.008295031588669134","0.16423515575776151","-0.01948266252584811","0.018265733015619436","-0.0027931832154438514","-0.3414383454107568","-0.2654435585459366","-1.1379933780638898"
"0.16308409433702167","0.013570480618717046","0.08022086630305111","-0.010308961929236625","0.037093209696661654","0.020556974033787315","-0.342230940183204","-0.2673047224659549","-1.1335022994992543"
"0.1336774543233022","0.009759256396837158","0.1012812010098804","0.22642447593966392","0.07468955489475497","-0.012156765565070478","-0.349534134872182","-0.2943347388672799","-1.1111154727610326"
"-0.0464233478255734","0.3474637270212703","-0.6819009921193047","-0.16167819021700436","0.6721427626247587","0.35212991729182763","-0.2791630418613325","-0.33255638996646325","-1.0261449519789767"
"-0.15033460734353796","-0.27543218116218643","-0.1903514978174025","-0.18261104145173146","0.04311717855229042","-0.23891464879689797","-0.16624659374376288","-0.2971079963639959","-0.966766722406848"
"-0.06707417046811591","-0.3020048522475516","0.17051532015139195","0.056749036226491294","-0.29302281799888646","-0.0025937019748110014","-0.21612345049561985","-0.2712489109057287","-1.0209339295223"
"-0.22746715492248556","0.0904498266131102","-0.005743709962224984","-0.10344325155748785","-0.016505857078544663","-0.20294488602007452","-0.1849291848085903","-0.26078448595145376","-1.0160314544479272"
"-0.05067837015207978","0.005867627782743248","0.044405510277492635","-0.040231744027232993","-0.15122432523342974","-0.022813917661075902","-0.17428576929287026","-0.20870887295756488","-1.0512572805942102"
"0.09457560629504805","0.07710886090847037","-0.04703410834719379","-0.07657379301749329","-0.27110019665733975","0.16185717270283057","-0.23933515454586005","-0.20857329147994766","-1.1003677389441375"
"0.21133571894645134","0.08709357358619746","0.06270831087239791","-0.0421190803116153","-0.08603462282653992","0.02663612044713855","-0.3030824198155432","-0.20349514886373885","-1.145432798281645"
"0.15082700145146233","-0.061451439869129224","0.1250771087348714","0.0656196223778774","0.004233196151267684","0.02077993526219001","-0.2997138920326426","-0.21861864641249665","-1.1322338269275634"
"0.1669474574655979","0.057248695876930725","0.0404036322561031","0.025372994628041618","0.0423426003849482","0.09732864160830318","-0.3081493649679735","-0.24706610553436537","-1.1215718007168636"
"0.14801934386227336","0.12292535673662656","-0.07195286554357842","0.1093610435048934","0.1356959015962239","0.13313858261963443","-0.31720759093879897","-0.26244844044948334","-1.107361479609677"
"-0.03855402082018131","0.05225493876468366","-0.28394826258744754","0.09189235735845618","0.4933086622302048","-0.219637381527037","-0.2526960378528273","-0.2842400815792338","-1.0426522369321984"
"-0.412601697769591","-0.13130520695848028","0.04611387084548358","-0.11281022721847649","-0.053741524467427707","0.03592551392784535","-0.1495737965662123","-0.2590342523313041","-0.9832911488813089"
"0.0004607553226269472","-0.3492669462074999","0.16984940311472949","0.10213804806623053","-0.08378058451952972","-0.11235948782567158","-0.19611043249132787","-0.2653079770683193","-1.0048551826000554"
"-0.24236794739407352","0.02534748284065735","-0.31210451005781875","0.06933092607307574","0.1542049933863954","0.01105645797397355","-0.1403174219022755","-0.28840613061874487","-0.9599786799961775"
"-0.07382634875457969","0.019839641896658624","-0.06612963358467915","-0.04244120541891054","-0.3307221234850723","-0.03201452127206481","-0.15798096254538466","-0.2746754246127822","-0.9888792848052447"
"0.1304393659041732","0.020020341663132643","0.11599513383060274","-0.02783679235766906","-0.23482649516012732","0.13801807923768625","-0.23132428595291107","-0.2688454210752415","-1.059433786225245"
"0.17534545867356519","0.13950210895719647","-0.1295476049910857","-0.04520091986272194","-0.42721967349425044","0.009854440448814974","-0.34659021143166363","-0.2806903119834373","-1.1239030476053766"
"0.15874316655976123","-0.012768961698292104","0.11678148267176797","0.05826249615683256","0.07484003531581328","-0.12193498199769155","-0.3504399574692645","-0.269917747307305","-1.1348564796771405"
"0.16863287345199282","0.06084308037904179","0.030367412406744728","0.08571283603785132","0.021810734934866658","-0.007298381204929371","-0.3478357175026523","-0.2936198547125709","-1.1144409278814114"
"0.16290666483460364","0.061155452843566646","-0.0440303974584185","0.0657083388008702","0.10384157246482908","-0.016355145226975305","-0.36105506602882537","-0.29949916060560877","-1.1109611990698811"
"0.004610634240292998","0.17682151344092334","-0.17956930920250627","-0.013585132692613187","0.47680333604675706","0.14880506185430137","-0.303959935456467","-0.31062916735909557","-1.0579767569199245"
"-0.4055373749881325","-0.08630816355968299","-0.21415448976618778","0.03623864414887271","0.2294293638712259","-0.09490142633091929","-0.12871156987715524","-0.30905149198318604","-0.9260384679428246"
"-0.04823050016501625","-0.3792294888809823","0.14549738382188737","0.028988188864997766","-0.2616278501528275","-0.13209451620163362","-0.1517817391466013","-0.29750241520797327","-0.9494709274766294"
"-0.14376314429101844","-0.035722034360642835","-0.02754895080102296","-0.020731029335103776","0.09847971746185685","0.035840670274559366","-0.18441965959773118","-0.3126998662899768","-0.9663210428546324"
"-0.19873343272534408","-0.00985185112711272","-0.09218895081194307","-0.023631211448653756","-0.08898720708814707","-0.06599341785899168","-0.14637511052026472","-0.2846961283675826","-0.9669038545767605"
"0.06334965673523853","0.04215816421627501","-0.06822302171588927","-0.015663631745587096","-0.342253675751435","0.04241309374189886","-0.2124152392388131","-0.282613103847827","-1.0352128167144432"
"0.14303686057585308","0.1191068484931524","0.0679003384912267","-0.08959187194379228","-0.31269615304671955","0.13028744124758232","-0.2973361077153008","-0.28676682729846387","-1.0977108031520821"
"0.19659757018541327","0.07105471834489903","0.07487050628242012","-0.04504566612248456","-0.014042096584712168","-0.027097535597909898","-0.32819068992842465","-0.2761175185110745","-1.1211432626858868"
"0.13380395498706318","-0.03454118239833588","0.08067956979373082","0.08282955229058568","0.038556829792007696","-0.019587885727992724","-0.3078096814940677","-0.2747000757905308","-1.1077385930769363"
"0.1748962991739255","0.044536677421491144","0.05672865925212091","0.09522133551647131","0.036277447414082425","0.017160860172488985","-0.3380981245840149","-0.2949140415443717","-1.10988128323182"
"0.0873683541921973","0.1049072087044151","0.027789109156816035","0.030459402879628186","0.17164488218483684","0.005645997935008788","-0.33419176463409633","-0.3180491718614201","-1.0813235088475337"
"-0.3158861902941354","0.17654135876421942","-0.024956124892315974","0.061828051442828456","0.48001886504410823","-0.11562695503128978","-0.21691604526806724","-0.30951986436040924","-1.0005698022902885"
"-0.1349738124582736","-0.29403445169532555","0.29192828964968276","-0.12647678095093706","-0.03184899921009264","0.04360879732076638","-0.17142676672082863","-0.30921172463855184","-0.9630470122979704"
"-0.0490026470736873","-0.20617794508098172","-0.05778796006691286","0.2473890116111741","-0.07666998862341677","0.018670682579336233","-0.204970509769041","-0.32904359713728965","-0.9727148302768045"
"-0.14644101548492014","0.06443046101423526","-0.11617259046748256","-0.10218326712141168","-0.07708658178908345","-0.07842399961949567","-0.20613109497155335","-0.3263935955293166","-0.9767945123317023"
"-0.01902034689656711","-0.004004882946963923","-0.020106973705130402","-0.03353893483074129","-0.1621301957490764","-0.011475648608923496","-0.20791443320955966","-0.3011384639258898","-1.007546401434589"
"0.07457371562894184","0.02630981415513525","0.009377565726668542","-0.07984890763297708","-0.2687558700976946","0.1735932203713191","-0.2623770168591468","-0.3007810218485352","-1.0559369158924754"
"0.1883240982022912","0.10220511684760596","0.08957487540102019","-0.016754632518819847","-0.20810434038903675","0.03155705233772538","-0.33402192289714366","-0.30953218994928344","-1.1031960899485835"
"0.1753646802029938","-0.0016811399810434042","0.11640601881067104","0.012878765056557185","0.028317825142314193","-0.04501730441519518","-0.3547426148054064","-0.3037884655338628","-1.1179720812566594"
"0.1563899092119964","0.06429598676941739","0.077133915784693","0.0772288000152195","0.06930077181643544","-0.0033772232473659436","-0.364112217293979","-0.311233121213936","-1.1159665232716884"
"0.1578141095420537","0.11054532157308113","0.06617178788542205","0.04210554569321727","0.10733905425111052","0.09144285980011532","-0.3639706825131849","-0.31988568460368977","-1.1010876828361782"
"-0.02003892366970762","0.09426413253643384","-0.17323247101852163","0.11924658778123275","0.36666750787639985","-0.07416997830590097","-0.32213300131043526","-0.34090081363435976","-1.0419665760826358"
"-0.3168390524367507","-0.004652040250149938","-0.11113924946164566","0.081890636813912","0.12164419827824263","-0.017257447614130617","-0.21122634708014237","-0.3738471126953455","-0.9322265571101277"
"-0.11774015060304129","-0.31762347547379416","-0.022986710677505774","-0.009628908301081188","-0.11703834157784727","-0.05477432454308283","-0.2349475763412414","-0.36985362190007454","-0.9401116568800987"
"-0.13347880461382544","-0.12092687695998419","-0.06912626024966015","0.007930395334555829","0.03684135299194302","-0.01178582122047131","-0.24799708313046165","-0.358316870713736","-0.9596529910926351"
"-0.1392452634424113","0.02329675060718478","0.060187389835202894","-0.16232244043159483","-0.09228668832040443","-0.017353143362604337","-0.23480604156044727","-0.34272500078775514","-0.9759888608334663"
"-0.009031723056737464","-0.013403512041026444","0.09357002340980515","0.0002418499047593472","-0.10924662377589148","-0.027377716964575225","-0.2314092068213878","-0.31926940515997515","-1.0061407966929854"
"0.10366558256244565","0.024918846185300377","-0.1073562739554994","0.031327556447486186","-0.21310979439476563","0.10718826336342038","-0.2620939472975585","-0.3391752311919587","-1.0310302855321107"
"0.1919499029415188","0.13410773065726286","-0.009749838517891083","-0.12982476977102206","-0.24303163811888542","0.0810958803156577","-0.3603473921248547","-0.3379180211267808","-1.0973165481635834"
"0.14413988064921848","0.015137805957537028","0.04644116198477938","0.018775238741899333","0.01698744143883994","-0.09068884028985962","-0.3580262217198308","-0.3257280137301048","-1.1029218256087585"
"0.1418769973470834","0.0717915251446303","0.08897555006802398","-0.04886997764220942","0.09803936422970728","-0.04246212927553602","-0.33526742896813194","-0.3155840540865615","-1.0959966510281753"
"0.16454755915881777","-0.0155326875839761","0.02030143881745037","0.05889829718828088","0.09405876109160707","-0.06957263616273045","-0.31434858836675733","-0.3068945139301847","-1.082369141643117"
"-0.12258660460427438","0.15459123984446868","-0.013600114150082993","0.11088189647048408","0.2804501466321522","-0.13768827799386044","-0.2589801821200872","-0.30918707346080326","-1.0389153853020818"
"-0.3061439963187752","-0.0037737553386832023","0.015558550987179008","-0.1207313364142612","-0.01666710872974188","0.10428976739418541","-0.1885241682407616","-0.30462660557731475","-0.9882964730831164"
"-0.06827346247520073","-0.47404783921141813","0.1411689230835815","0.05230265359792413","-0.1960659067043724","-0.15128891292642455","-0.19444032207795667","-0.29645474015365836","-0.9961472898106092"
"-0.24498010395745","0.04639550370142153","-0.339910088450373","-0.04252464110243948","0.25515359585003505","0.1368065907930911","-0.18846755432844386","-0.3276261544167459","-0.9702121681759006"
"-0.10957510776028576","0.038502145685289084","0.010404778176839333","-0.15179264594066502","-0.17282856168410574","-0.15592374412569818","-0.15616931735121967","-0.2882335723745047","-0.9919304755857986"
"0.025939960443008173","0.04306586536879566","0.06994661653420488","-0.024754952806562414","-0.2176400470708367","0.09229918876583892","-0.2086787210258477","-0.25756750725526323","-1.059725192086309"
"0.189017387554332","0.0765009252600229","0.13325938721726638","-0.0683052111649868","-0.3387688660006111","0.06726241861361114","-0.31313138925192757","-0.26114192802880826","-1.1275199085868197"
"0.20486939930277215","0.015553275343088915","-0.08115527225234986","0.058471613439601285","-0.027287066445377713","-0.027403367371382614","-0.35358202960289437","-0.27315937718124417","-1.1428101455320676"
"0.13553553550140207","0.038422301602428474","0.051851383696472034","0.07850145822600892","0.051133824983617585","0.020766123504678338","-0.3279076203668364","-0.2916970628481812","-1.1192748368708287"
