"AccX","AccY","AccZ","GyroX","GyroY","GyroZ","MagX","MagY","MagZ"
"-10.747","0.059738","-2.3403","-0.48331","-0.027839","-0.12669","0.90589","0.47416","0.010322"
"-10.303","-0.25633","-0.12983","-1.1329","-0.30576","-0.17686","0.89727","0.47723","0.027515"
"-10.935","-1.5969","-0.44295","-0.97872","-0.1719","-0.19862","0.88597","0.48757","0.038512"
"-10.695","-1.62","-0.57344","-0.44592","-0.18113","-0.086133","0.87693","0.48726","0.049381"
"-9.2579","-2.2253","-0.28184","0.034509","-0.19359","0.026852","0.87113","0.48735","0.046404"
"-8.4951","-2.3445","-1.4048","0.6749","-0.074113","-0.024929","0.86534","0.48359","0.032215"
"-8.2543","-1.5981","-1.5631","0.75014","-0.005487","-0.09806","0.86047","0.47601","0.018922"
"-9.6315","-1.0244","-1.4205","0.25301","-0.075423","-0.20343","0.84861","0.47101","0.003233"
"-9.7528","-2.0857","-1.0967","-0.11512","-0.10499","-0.35639","0.83788","0.46834","0.01064"
"-9.125","-3.0155","-0.95409","-0.27407","0.01001","-0.65576","0.8224","0.47573","0.022088"
"-8.6777","-4.1221","-1.2633","-0.27463","0.056743","-0.9957","0.80156","0.49281","0.034778"
"-7.1221","-5.5184","-1.3678","0.070195","0.044112","-1.3934","0.77635","0.51611","0.054249"
"-6.3393","-3.7924","-0.38617","0.73244","0.26716","-1.8119","0.73992","0.55678","0.061752"
"-6.3951","-0.98099","-1.0668","0.50509","0.26189","-1.8114","0.70405","0.59319","0.076124"
"-7.2812","-1.8482","-1.8387","0.2544","0.46828","-1.6354","0.66647","0.62722","0.088493"
"-9.3871","-2.3379","-2.1072","0.33063","0.47574","-1.4012","0.63057","0.65413","0.10437"
"-10.25","-3.1852","-2.1689","0.34808","0.51389","-1.216","0.599","0.6745","0.11997"
"-10.416","-4.3516","-1.6519","0.33923","0.88213","-1.0868","0.56846","0.69189","0.13102"
"-9.2192","-5.284","-1.5146","0.20219","1.1544","-0.96392","0.54139","0.70259","0.15916"
"-8.9802","-5.9893","-0.94472","0.31367","1.3047","-0.90538","0.51413","0.71627","0.17622"
"-8.2598","-5.8624","0.24817","0.41156","1.0656","-0.9428","0.48848","0.72867","0.19137"
"-7.8252","-5.9401","0.53919","0.75882","0.75281","-1.135","0.45937","0.7432","0.19972"
"-7.7601","-6.6533","-0.67189","0.91013","0.50855","-1.2781","0.4253","0.76326","0.18498"
"-8.6469","-8.0062","-1.4077","0.34977","0.25164","-1.1333","0.39038","0.78216","0.18192"
"-8.7121","-7.5333","0.16132","0.22975","0.35097","-0.80667","0.36657","0.79727","0.17383"
"-7.8671","-3.636","-0.33685","0.11029","0.11928","-0.35803","0.34671","0.81007","0.16287"
"-8.5168","-6.0326","-1.9979","-0.24277","-0.071424","0.57898","0.34688","0.80527","0.16974"
"-8.885","-10.945","-2.3909","-0.41908","-0.12193","1.0715","0.37118","0.78914","0.17533"
"-8.0618","-8.283","0.050751","-0.24414","0.079246","0.81688","0.39103","0.77975","0.18862"
"-6.4767","-5.5939","0.14455","0.30684","-0.32578","0.82827","0.40598","0.77846","0.17093"
"-4.8609","-6.4426","-0.71199","0.091022","-0.43735","1.3049","0.43762","0.77135","0.1442"
"-6.3746","-6.6138","-1.007","-0.46558","-0.81532","1.1308","0.47807","0.75426","0.1413"
"-7.4983","-5.8863","-2.4733","-0.38308","-0.68296","0.81898","0.50611","0.74094","0.12943"
"-7.0936","-5.7083","-2.6602","-0.24535","-0.55452","0.81297","0.53507","0.729","0.12687"
"-7.3167","-4.6308","-2.8553","-0.14289","-0.58937","0.97173","0.56471","0.71295","0.11285"
"-8.6622","-3.0264","-2.7243","-0.39993","-0.28075","1.0175","0.59313","0.69353","0.10509"
"-10.746","-3.3873","-3.5449","-0.64355","-0.052667","1.405","0.62745","0.66509","0.11455"
"-10.58","-4.1739","-0.97433","-0.31562","0.013139","1.4181","0.66316","0.63436","0.11348"
"-7.9703","-2.6568","-0.38078","0.26306","-0.07798","1.4529","0.70056","0.59927","0.10206"
"-6.5468","-1.9204","-1.4006","0.5403","-0.17383","1.3767","0.7368","0.56586","0.075159"
"-6.5925","-1.8422","-2.3425","-0.10552","-0.079699","1.1854","0.76656","0.53109","0.046753"
"-8.2574","-3.0145","-2.3888","-1.0175","-0.16089","1.1264","0.79403","0.49952","0.042113"
"-7.6354","-3.8232","-0.52021","-1.2382","-0.28885","0.97024","0.81624","0.4759","0.026933"
"-8.2418","-4.0246","0.19367","-0.80764","-0.40243","0.72089","0.84104","0.45563","0.022396"
"-9.245","-2.646","-1.7694","-0.041331","-0.055284","0.49015","0.85899","0.44307","0.018159"
"-9.2145","-1.8287","-2.7006","0.2182","-0.004707","0.54767","0.87638","0.43452","0.005333"
"-9.5581","-1.6503","-1.9737","0.14461","-0.17516","0.46185","0.88959","0.42231","0.000142"
"-8.9448","-2.2962","-1.8008","0.1171","-0.15503","0.23207","0.89735","0.42372","-0.017162"
"-9.5882","-1.5746","-2.2206","0.16516","0.069647","0.069088","0.90414","0.42374","-0.011634"
"-9.5569","-1.0234","-1.7927","0.087599","-0.019175","0.036094","0.90703","0.42687","-0.004296"
"-9.6599","-0.10554","-1.3886","-0.096176","-0.089896","-0.014563","0.9073","0.43424","-0.002964"
"-10.197","0.66403","-0.70828","-0.25606","-0.16567","0.028959","0.90708","0.43865","0.00571"
"-17.556","-1.0647","-0.67292","-0.38067","-0.069228","0.020635","0.90229","0.45213","0.009953"
"-14.007","-1.8356","-0.70468","-0.044654","-0.16529","0.13156","0.90367","0.45375","0.007178"
"-11.208","-2.4009","-3.0271","0.31491","0.10425","-0.044261","0.90653","0.45463","-0.000713"
"-10.488","-1.5822","-3.1099","-0.085487","0.11646","-0.32937","0.89842","0.46703","0.003311"
"-11.025","-0.96509","-1.5634","-0.7037","-0.12371","-0.35093","0.88461","0.47797","0.018332"
"-11.61","-1.6587","-1.1045","-1.0366","-0.12304","-0.44025","0.86632","0.49257","0.030885"
"-8.989","-2.8704","0.10945","-0.81015","0.019649","-0.6074","0.84833","0.50522","0.056096"
"-9.3023","-2.017","0.016804","-0.33498","-0.006604","-0.57969","0.8302","0.52048","0.069172"
"-8.9712","-0.92632","-0.43785","-0.31531","-0.17945","-0.53045","0.81178","0.53411","0.070718"
"-8.5316","-1.9644","-1.1131","-0.41978","-0.1115","-0.51543","0.79505","0.54325","0.076385"
"-8.5884","-3.91","-2.2249","-0.40323","0.10826","-0.7328","0.77295","0.55825","0.084293"
"-8.7109","-5.8839","-1.545","-0.028613","0.16684","-1.1366","0.74782","0.57552","0.10016"
"-7.6756","-5.2482","-1.0103","0.21169","0.085354","-1.5127","0.71602","0.60162","0.10649"
"-7.897","-3.0498","-1.3219","0.34261","-0.00459","-1.4684","0.67834","0.63063","0.10581"
"-5.7832","-2.0951","-1.5974","-0.02616","0.30692","-1.4772","0.64642","0.65182","0.11687"
"-6.5567","-2.9937","-2.0761","-0.10806","0.50159","-1.3767","0.60453","0.67866","0.13441"
"-7.9747","-4.3769","-1.9469","0.002387","0.54859","-1.2648","0.57022","0.69217","0.16413"
"-8.1785","-5.6479","-1.3934","-0.047355","0.48486","-1.482","0.53605","0.70929","0.18728"
"-7.331","-5.1071","-1.2133","-0.080771","0.46737","-1.6181","0.4922","0.72901","0.20223"
"-7.1364","-5.3706","-0.88202","-0.37036","0.60728","-1.6002","0.45037","0.74099","0.23254"
"-9.2357","-6.4137","-1.0099","-0.55353","0.6651","-1.5297","0.40411","0.7534","0.25326"
"-10.414","-7.383","-2.0933","0.026447","0.73205","-1.2723","0.3663","0.75871","0.28262"
"-7.7999","-7.5239","-1.6162","0.97272","0.53088","-1.0773","0.33239","0.77464","0.27473"
"-5.5999","-8.9163","-1.5828","1.4577","0.67459","-0.85593","0.30647","0.79576","0.23726"
"-6.1223","-7.7634","-1.5736","0.80634","0.80327","-0.84966","0.28312","0.81282","0.21575"
"-6.4898","-4.7065","0.58002","-0.25158","0.50567","-0.48266","0.2617","0.82195","0.20108"
"-8.3177","-3.945","-1.1073","-0.41824","0.13906","0.43594","0.26779","0.81744","0.22885"
"-9.8002","-10.83","-4.0944","-0.092834","-0.137","1.3975","0.29207","0.80473","0.23477"
"-8.7877","-11.667","-1.1809","-0.053814","0.14779","1.6675","0.33647","0.78885","0.23331"
"-6.609","-4.8211","1.4817","0.49407","-0.25623","1.6586","0.38244","0.77774","0.2306"
"-6.9844","-4.4475","-0.18965","0.79276","-0.34463","2.0048","0.45008","0.75831","0.19184"
"-8.9297","-7.3056","-0.57388","0.75054","-0.68886","1.8462","0.50933","0.73242","0.1609"
"-6.9577","-5.0665","-2.6637","0.51085","-0.57305","1.2188","0.54409","0.72228","0.1217"
"-6.9267","-4.003","-3.4746","-0.54224","-0.22719","1.0988","0.57392","0.70425","0.10799"
"-8.2267","-3.0475","-1.5367","-0.68734","-0.2939","1.226","0.60735","0.67944","0.12227"
"-8.5732","-3.6098","-2.6348","-0.19659","-0.099399","1.3058","0.64388","0.64909","0.109"
"-9.9508","-3.7564","-1.5976","-0.20419","0.085529","1.3511","0.67577","0.61805","0.11021"
"-8.509","-2.4237","-0.090422","-0.20984","0.014671","1.3301","0.70217","0.59332","0.1066"
"-7.6839","-1.951","0.34316","-0.039916","-0.22758","1.3855","0.73619","0.56167","0.087831"
"-7.447","-3.0539","-0.74655","0.070402","-0.21175","1.2623","0.76897","0.52661","0.066166"
"-6.2119","-3.1917","-1.4432","-0.27929","-0.078754","1.0075","0.79808","0.49655","0.040572"
"-7.8169","-4.2139","-1.7869","-0.70734","0.006847","0.77743","0.82407","0.47203","0.042259"
"-9.1114","-3.1229","-2.2839","-0.55833","-0.036089","0.42728","0.84223","0.45866","0.040833"
"-9.8868","-1.186","-1.851","-0.43972","-0.054736","0.5809","0.85921","0.44923","0.038632"
"-9.1548","-2.3395","-1.9539","-0.16927","-0.12627","0.46099","0.87815","0.43388","0.03833"
"-10.087","-0.22873","-1.9042","0.47254","-0.015492","0.4026","0.88545","0.43506","0.031106"
"-8.8074","-0.79547","-1.7645","0.39027","-0.003684","0.48735","0.89924","0.42629","0.025338"
"-9.7889","-1.1436","-1.3039","0.34881","-0.078709","0.31918","0.91239","0.42204","0.013491"
"-8.8702","-2.2201","-2.3148","0.037712","-0.025616","0.00063","0.91556","0.42884","0.007093"
"-11.158","-0.23972","-1.601","-0.091487","0.028595","-0.070992","0.91601","0.43733","0.016509"
"-17.846","0.11798","-0.95852","0.092327","-0.20333","0.12086","0.91392","0.44599","0.018672"
"-13.193","-2.8736","-1.904","0.2495","-0.030509","-0.073015","0.91509","0.4492","0.013471"
"-12.27","-1.1548","-3.3331","0.47398","0.26677","-0.29278","0.91129","0.45911","0.005066"
"-10.412","-1.1512","-2.5695","-0.31988","0.10591","-0.36147","0.9017","0.4753","0.011362"
"-10.95","-1.1818","-1.6374","-0.7377","-0.14946","-0.37637","0.88809","0.48952","0.027922"
"-10.741","-1.4533","-1.1714","-0.7494","-0.42207","-0.24709","0.87196","0.50565","0.03215"
"-9.1224","-1.7022","-0.5172","-0.51347","-0.26704","-0.30975","0.858","0.51192","0.038755"
"-8.8389","-2.1953","-0.87981","-0.24319","-0.060849","-0.35257","0.84233","0.52386","0.041218"
"-8.3902","-2.4953","-1.1495","-0.19151","-0.089356","-0.43629","0.82717","0.5337","0.043071"
"-8.9755","-2.9397","-1.4444","-0.20073","-0.063196","-0.47923","0.81037","0.54071","0.051033"
"-9.2187","-4.6394","-2.1404","-0.26989","0.038987","-0.73508","0.78907","0.55139","0.056259"
"-8.2113","-6.9603","-2.0251","-0.11747","0.2595","-1.2734","0.76073","0.56834","0.075482"
"-8.0357","-5.8609","-0.4727","0.15486","0.21579","-1.9646","0.7237","0.59617","0.09064"
"-7.2761","-0.10077","0.47457","-0.016814","-0.11207","-1.9127","0.67625","0.63569","0.09635"
"-5.1805","-0.30675","-1.1043","-0.7651","0.25883","-1.581","0.63712","0.66077","0.12225"
"-6.3261","-3.9586","-2.015","-0.40276","0.56415","-1.4598","0.59302","0.6845","0.16341"
"-9.3866","-6.0477","-2.924","0.44223","0.66438","-1.315","0.55674","0.69999","0.19024"
"-9.4737","-4.9677","-1.9066","0.5183","0.42791","-1.409","0.5225","0.71671","0.19786"
"-7.4501","-4.3501","-1.7811","0.31707","0.73862","-1.4002","0.48169","0.738","0.202"
"-7.578","-5.0541","-1.0978","-0.032109","0.91834","-1.3121","0.44258","0.7494","0.22576"
"-9.132","-6.7027","-1.8083","0.11692","0.92795","-1.2438","0.40066","0.76472","0.23369"
"-9.1777","-6.82","-2.3922","0.54936","0.71228","-1.0907","0.36584","0.77681","0.2435"
"-6.827","-8.0285","-1.7356","0.94476","0.66707","-0.97269","0.33475","0.78974","0.23536"
