"AccX","AccY","AccZ","GyroX","GyroY","GyroZ","MagX","MagY","MagZ"
"-7.507","2.8458","-3.1649","-0.093468","-0.49019","-1.7285","0.34016","0.23042","0.056214"
"-5.8226","4.4693","-0.76169","5.0702","-1.4215","0.2865","0.34261","0.24529","0.02582"
"-0.78679","20.451","-2.9587","2.7186","1.3726","0.90883","0.34914","0.25207","-0.017178"
"-1.0079","0.53805","-1.2459","-0.26523","-0.18027","1.9147","0.3656","0.22828","-0.023543"
"-0.42303","-5.4166","-0.73248","-1.9861","-0.071548","1.0785","0.378","0.20537","-0.021077"
"-0.6581","-3.2878","-0.6945","-1.7735","0.32417","0.63173","0.38152","0.19314","-0.003359"
"-1.6413","-0.89219","-0.58181","-1.1802","0.19169","0.28283","0.37989","0.18343","0.010188"
"-0.04652","6.4733","7.9954","0.71037","-0.043341","0.35467","0.37225","0.17755","0.022922"
"-4.1433","-6.5285","-0.2058","-1.0499","-0.35587","1.5054","0.3727","0.16186","0.021411"
"-74.809","-17.294","-3.7897","-1.508","3.7541","2.9158","0.37787","0.11944","0.051309"
"-25.714","-16.285","-11.98","1.3979","1.6589","-0.96704","0.37958","0.12743","0.028877"
"-31.956","0.38858","-5.6339","1.6704","0.35414","-2.3373","0.37002","0.15943","0.045878"
"-11.058","4.3812","-0.79176","2.1724","-2.3944","-3.257","0.35958","0.19617","0.046087"
"3.6414","7.206","-4.1834","2.702","-0.073311","-0.44364","0.35205","0.22866","0.008516"
"-4.9173","11.454","-0.54102","1.0172","-2.0773","-0.51023","0.34983","0.25281","-0.030225"
"0.94163","-1.9939","-3.7099","-2.1261","0.1634","0.4224","0.35351","0.25001","-0.049009"
"-1.9806","-1.2134","0.58215","-2.5584","0.48073","0.47623","0.36134","0.24083","-0.018672"
"0.39024","-3.3344","-2.9092","-1.4311","0.38635","0.37438","0.36469","0.21841","0.004555"
"-1.0377","1.9961","1.7377","-0.953","0.9704","0.34621","0.36042","0.21104","0.030274"
"-0.71615","3.6001","2.2676","-0.71269","0.099938","1.1726","0.36075","0.20833","0.030688"
"-5.5635","-7.7472","-0.51841","1.2778","0.86473","1.7855","0.35834","0.18762","0.034547"
"-67.104","28.357","12.806","-2.4311","4.5069","1.969","0.35595","0.15263","0.094401"
"-15.283","-24.98","-17.441","2.7907","0.41875","0.80433","0.36415","0.1402","0.095337"
"-29.322","-5.6899","1.5004","2.5628","0.80149","-1.4519","0.34735","0.16153","0.10914"
"-11.287","4.4609","-5.7483","4.2458","-3.8263","-2.6723","0.34879","0.21127","0.039922"
"0.72496","9.648","6.3568","0.88433","0.14765","-0.12346","0.34901","0.23452","0.003521"
"-9.2189","16.132","10.382","2.1591","-1.3045","0.35367","0.3543","0.23843","-0.033905"
"0.05257","-2.2957","-7.7264","0.63545","1.1373","0.63212","0.36341","0.23106","-0.079364"
"0.3931","-3.7615","0.61761","-1.7314","0.21989","0.79859","0.36862","0.22369","-0.055562"
"0.80714","-2.4476","-4.755","-2.2597","0.73569","0.34154","0.37157","0.20997","-0.028713"
"-0.8764","1.0505","1.8924","-1.8249","0.086369","-0.18424","0.36854","0.20636","-0.003344"
"-1.2464","-0.64085","6.0808","-1.3195","0.5636","0.57961","0.36691","0.19981","0.008103"
"-12.957","-2.1895","-9.5935","1.2612","1.9658","0.73537","0.35818","0.19444","0.021177"
"-39.887","8.6558","0.63514","-0.82057","1.1271","0.12591","0.35682","0.16467","0.084743"
"-20.278","-9.819","-14.256","-1.7099","2.8427","0.97445","0.35813","0.15752","0.080374"
"-24.591","-13.464","-11.158","3.0299","-2.8461","-1.0719","0.34617","0.17459","0.093505"
"-11.433","7.7234","3.0985","-2.5245","-3.2784","-2.4667","0.34795","0.20007","0.058872"
"-7.9538","0.3089","-1.4602","0.063724","0.47047","-1.0992","0.34517","0.2318","0.036435"
"-1.8873","5.1762","-2.8742","5.2678","-1.7647","-0.22953","0.34655","0.24893","-0.004344"
"-0.6439","16.13","-2.5685","3.1302","0.03555","0.55454","0.3509","0.24537","-0.043889"
"0.76606","3.2087","-3.3289","-1.7829","0.15035","1.0887","0.35627","0.23356","-0.044655"
"0.12901","-1.5229","1.2776","-2.5042","-0.31582","0.89236","0.36237","0.22309","-0.020413"
"-0.53917","-1.6843","-3.815","-1.4578","0.042166","1.0323","0.36968","0.20025","-0.021455"
"-1.8949","-3.6772","-0.20874","-1.6442","-0.1874","1.0993","0.37251","0.18096","-0.009899"
"-1.7105","-7.6726","-0.5008","-0.46276","0.39683","0.54677","0.36862","0.1683","0.001196"
"-35.637","13.147","13.928","1.1895","0.78141","1.2863","0.36359","0.15884","0.002552"
"-38.541","-5.041","-10.187","-0.72221","-0.072605","-0.26173","0.36521","0.13262","0.039046"
"-32.203","-5.0721","-2.0766","1.1119","-0.74629","-1.1362","0.36602","0.14246","0.035792"
"-18.624","-3.4002","-5.2119","-0.99478","-0.63126","-2.2599","0.35976","0.18287","0.025333"
"5.4627","2.3371","-9.2734","-0.007106","-1.4078","-4.3087","0.34184","0.23502","0.003184"
"0.97525","9.9974","5.5512","1.0418","-0.75592","-0.28326","0.33349","0.26299","0.014497"
"-2.2717","15.128","-1.3622","0.61706","-1.4897","-0.036991","0.33752","0.2687","-0.002722"
"0.27485","-5.005","-1.6493","0.21052","0.3322","1.4936","0.34852","0.26021","-0.025857"
"-0.029166","-8.2616","-1.5468","0.45685","0.42278","0.26531","0.35675","0.24499","-0.015235"
"0.24473","1.5262","-3.2175","0.62107","0.53327","-0.015244","0.36084","0.2336","-0.006646"
"-0.65851","2.7104","-0.29589","-0.55291","0.3352","0.87933","0.36322","0.22432","0.000941"
"-1.2017","2.7654","3.9997","-1.3069","0.59589","0.23278","0.36213","0.21082","0.013085"
"-10.325","-4.1817","3.0587","0.12472","0.16809","3.4742","0.35331","0.1996","0.021853"
"-41.228","1.0038","-21.727","-4.8993","6.5907","2.45","0.36071","0.15675","0.06258"
"-19.52","-16.651","-15.419","2.7079","-2.3579","0.71994","0.3684","0.14025","0.059579"
"-34.551","-13.003","-1.605","0.5661","-0.66505","-2.1069","0.35875","0.16023","0.079743"
"-16.69","6.0532","6.5661","-0.68671","-2.8824","-3.2517","0.34902","0.19881","0.064549"
"-3.9383","0.30635","-6.0313","3.5977","-0.44783","-0.63891","0.34226","0.23678","0.017323"
"-1.1191","28.968","-8.0316","3.6022","-0.63183","-0.52511","0.34696","0.24728","-0.028515"
"-1.496","1.1767","-7.4087","1.5305","-0.23919","1.4554","0.36077","0.23176","-0.04274"
"3.5385","-7.2932","-3.772","-1.3281","-0.52883","0.80824","0.37009","0.21778","-0.041878"
"1.5036","-4.1777","-4.6416","-2.6115","-0.2258","-0.26736","0.37067","0.21725","-0.021318"
"-1.1844","-0.8764","3.2688","-2.6711","-0.077991","-0.40283","0.36454","0.2101","0.007706"
"-2.6051","0.66468","2.8484","-2.1743","-0.37872","0.011936","0.36093","0.20613","0.012255"
"-2.4371","17.089","-0.64737","1.0435","1.9853","0.41304","0.35007","0.21133","0.027558"
"-28.775","-14.15","-19.644","-1.8977","4.3741","1.2049","0.35018","0.17627","0.044124"
"-39.955","6.0755","4.2604","3.1418","-4.6626","0.20369","0.35229","0.16447","0.084792"
"-25.051","-26.748","-20.141","4.0434","1.9123","-1.4353","0.35447","0.17329","0.06068"
"-21.293","6.3625","-0.054181","-4.2519","-3.6506","-3.3783","0.33892","0.21138","0.057376"
"-5.46","6.7861","-0.24673","-0.16477","-0.56825","-2.8434","0.32717","0.25753","0.039323"
"-0.88486","16.77","-5.2075","5.8003","-1.2367","-0.16534","0.32557","0.27427","-0.013756"
"6.7605","5.1362","-10.248","1.7209","0.76763","2.4715","0.34403","0.25505","-0.07052"
"2.2975","-9.103","4.6232","-1.3648","-0.37962","1.397","0.35917","0.2388","-0.045709"
"0.76316","-9.4334","-3.953","-1.0291","0.11203","-0.63474","0.36069","0.23865","-0.035437"
"-0.60844","1.1707","-1.4937","-3.7507","0.7116","-0.44135","0.35754","0.24021","-0.011133"
"-1.8558","4.1436","1.9969","-1.2903","1.0066","0.6638","0.35501","0.23311","0.028653"
"-0.63764","5.3568","1.7724","-0.53828","-0.3377","0.043183","0.35712","0.22395","0.026419"
"-4.3216","12.794","-4.7996","-1.5978","0.20753","0.085294","0.34401","0.22367","0.025022"
"-52.019","22.039","-11.86","-5.7277","6.6188","3.816","0.34534","0.18483","0.083765"
"-25.03","-32.149","-23.346","3.8536","-0.82106","-0.35267","0.3509","0.15138","0.10647"
"-29.018","-16.558","-7.162","3.0756","-1.8983","-0.73732","0.34548","0.18218","0.089401"
"-17.892","4.4119","-0.26884","2.5822","-5.5657","-1.6958","0.34996","0.21548","0.029635"
"4.8737","16.099","2.8468","0.51953","0.052689","-0.22902","0.33219","0.25611","-0.023342"
"-3.5158","15.946","-4.5542","1.8176","0.25451","-0.36175","0.34213","0.2538","-0.046935"
"-1.1803","0.89645","2.5767","0.052649","0.46896","1.5216","0.35087","0.24956","-0.059855"
"2.2159","-2.7547","-3.4884","-1.573","-0.18637","0.63688","0.35427","0.23844","-0.064901"
"-0.87635","-8.7645","-4.0467","-1.069","0.43914","0.32424","0.35692","0.22854","-0.040821"
"-1.1354","-0.54486","-0.66206","-3.2801","0.70791","-0.15839","0.35875","0.21549","-0.000817"
"-5.2141","16.506","5.2622","1.6968","-0.59113","0.64597","0.35382","0.20657","0.009959"
"-10.312","-10.967","-6.3646","5.6377","0.15064","1.6566","0.35644","0.19163","-0.019046"
"-59.167","13.289","0.72291","-6.5987","7.6262","0.58715","0.35304","0.16214","0.088756"
"-8.9667","-21.867","-24.34","4.7242","-1.7469","-1.5011","0.35752","0.1784","0.046163"
"-28.222","0.025243","5.9358","-3.0304","-2.8715","-2.17","0.3431","0.19865","0.064272"
"-0.14542","1.9157","-16.086","6.5416","-0.023249","-1.8546","0.34525","0.23032","-0.019531"
"-5.9623","37.825","-5.5425","4.2485","0.71241","-0.34858","0.33795","0.25251","-0.048697"
"7.1259","-2.3759","-17.75","1.9643","-1.0628","1.8612","0.35106","0.22413","-0.10177"
"0.38116","-6.684","1.806","-2.3904","0.16919","1.4418","0.36937","0.20872","-0.073016"
"-0.4762","-3.479","-3.2266","-3.4407","0.088621","0.94922","0.38145","0.18638","-0.065074"
"-2.4802","-1.93","-0.68757","-2.3728","0.2449","0.69412","0.38402","0.17906","-0.041788"
"-0.70436","-0.66556","-1.8837","-0.36717","0.13356","-0.13846","0.37761","0.18352","-0.021959"
"-1.712","23.202","-12.524","-1.991","1.8827","0.30686","0.37305","0.17616","-0.008555"
"-29.05","2.6415","-3.5822","-1.2076","1.1574","3.3521","0.37755","0.14269","0.015276"
"-23.548","-9.7887","-10.226","1.1841","-1.6729","1.3652","0.38446","0.11746","0.006635"
"-26.638","-4.4204","-3.7962","1.8043","0.34781","-0.97595","0.37993","0.12647","0.016995"
"-21.514","-1.0592","0.78977","-0.009345","1.7407","-2.0201","0.37438","0.15057","0.034856"
"-18.339","3.3766","1.1864","-0.18783","-3.0502","-4.0275","0.36509","0.18686","0.019426"
"4.3282","5.927","-0.7544","-0.47817","-0.36276","-2.2108","0.33891","0.24343","0.015189"
"-0.33358","10.35","2.3733","1.6924","-2.536","-0.1889","0.3341","0.26822","-0.019228"
"5.4203","0.87016","7.9763","1.0231","-0.008973","1.2572","0.34186","0.26262","-0.046707"
"-2.134","-2.7432","-1.4","-1.4531","1.3776","1.2816","0.35545","0.24517","-0.043544"
"-1.7895","-4.2429","-1.1213","-0.60511","-0.31662","0.82482","0.35995","0.229","-0.030217"
"0.70403","-1.195","-1.2846","0.2466","0.30571","0.18561","0.35833","0.22281","-0.028448"
"-0.72768","2.5962","1.8486","0.26859","0.24787","0.63444","0.3569","0.20824","-0.021811"
"-6.1883","1.8489","3.2253","-0.085709","-0.52142","1.3165","0.35886","0.18634","-0.029121"
"-20.166","9.6758","-25.62","-2.2062","3.8215","1.7718","0.35057","0.17021","-0.022671"
"-39.599","-22.883","-4.0966","-1.2436","0.94999","-1.0839","0.37266","0.12137","0.01549"
"-18.663","-31.945","-8.783","2.1203","-3.2409","-1.4809","0.3643","0.14481","0.00785"
"-26.096","19.143","5.8977","1.0931","-0.89508","-3.3971","0.36213","0.17346","0.002449"
"0.6983","4.7682","-3.2795","-2.1238","0.70413","-2.4737","0.35085","0.21716","-0.018584"
"4.0503","3.1796","8.599","1.8876","-1.2727","-0.55287","0.34919","0.23966","-0.007076"
