"AccX","AccY","AccZ","GyroX","GyroY","GyroZ","MagX","MagY","MagZ"
"-4.0652","1.5618","6.298","-2.8801","0.43083","-1.0919","0.45898","-0.099923","0.10066"
"-29.768","4.2781","-9.8401","0.93666","2.1544","0.67618","0.45106","-0.098883","0.10903"
"-19.389","-29.137","0.009534","2.2043","-1.4607","1.1359","0.44089","-0.086636","0.14865"
"-28.401","21.809","-4.727","-6.0302","-1.2436","-0.9949","0.45027","-0.081876","0.12665"
"-16.157","-4.2729","-0.92968","-1.1977","-0.93481","1.7532","0.45363","-0.11052","0.098423"
"-5.8101","-3.2006","-0.9761","1.1525","-1.8562","1.7257","0.45406","-0.14234","0.067902"
"0.70573","-5.8597","-5.4902","-0.068304","-0.48078","1.3994","0.44706","-0.17519","0.057381"
"2.4562","-9.2274","-1.8314","-0.91362","0.25459","-0.18702","0.44642","-0.19451","0.030849"
"-0.37006","-6.8509","-0.46071","3.1522","0.18982","-0.84386","0.4486","-0.18525","0.047508"
"0.12322","1.9279","-1.4597","1.5632","0.48041","-1.195","0.45194","-0.15599","0.072877"
"-0.98025","9.012","-0.65238","-1.652","-0.4614","-0.13489","0.45345","-0.14617","0.067954"
"-6.6161","-3.8864","-4.5925","-1.6624","0.4185","-1.1101","0.45126","-0.14295","0.058645"
"-52.008","-5.7862","1.2098","-0.66095","3.809","-1.4455","0.44805","-0.10655","0.12291"
"-27.756","2.612","6.812","-2.5486","-0.48193","-0.57987","0.44844","-0.11616","0.10475"
"-20.772","3.1827","0.8951","0.53744","-0.21508","1.0789","0.44978","-0.12806","0.091842"
"-14.103","-3.0099","-1.6984","0.77684","-1.7693","1.9353","0.44747","-0.15163","0.083427"
"-2.8692","-3.4438","-3.7137","0.35434","-0.85644","1.7094","0.44056","-0.18275","0.070881"
"4.9964","-6.9416","-5.1815","-2.8151","-0.51125","-0.10463","0.44234","-0.20744","0.025638"
"-0.72778","-6.9541","1.7593","0.24536","0.34944","-0.39407","0.44659","-0.19955","0.017779"
"-3.3248","-0.25784","0.13469","2.929","0.58255","-0.69761","0.4459","-0.18475","0.047146"
"0.24002","1.9392","-4.8494","2.7322","0.71457","-1.0969","0.44625","-0.15917","0.083662"
"-3.4976","-5.7899","1.5363","-0.032443","0.92606","-0.88942","0.44788","-0.13747","0.11151"
"-21.102","14.377","-4.0559","-2.4577","3.047","-0.27432","0.44867","-0.11988","0.12345"
"-11.714","-12.027","-11.051","2.9626","-0.21401","0.42175","0.44411","-0.11727","0.13802"
"-22.43","6.8809","-1.2895","-4.3571","-0.030141","-0.85276","0.43749","-0.11478","0.14813"
"-26.61","2.506","-0.7593","0.38198","-1.3515","2.2448","0.43466","-0.15121","0.1285"
"-9.0466","-8.072","-0.69279","1.3036","-1.6417","1.8007","0.43205","-0.17946","0.10979"
"-6.2815","0.19816","-6.6976","-0.40446","-0.72473","1.2197","0.4262","-0.20598","0.10158"
"4.5094","-7.2173","-4.7348","-3.983","-0.79527","-0.37748","0.42771","-0.22384","0.060991"
"-1.4528","-8.8076","-1.2911","-0.24752","0.12067","-1.5228","0.43623","-0.21191","0.032309"
"-0.47746","2.1016","-3.352","3.5409","1.0679","-1.9853","0.44524","-0.18142","0.058769"
"-3.9389","8.822","-0.037977","0.82119","0.87286","-1.5526","0.45232","-0.13852","0.099169"
"0.43137","3.4648","5.1091","0.14982","-0.20863","-0.60015","0.45914","-0.11269","0.096912"
"-5.4875","-4.4533","-6.3381","-2.3876","0.77094","-1.9657","0.45875","-0.096502","0.10165"
"-57.637","3.5278","4.8752","0.61002","1.2087","0.51612","0.445","-0.10351","0.13446"
"-18.375","1.2565","3.7693","-3.8068","0.80637","-2.0485","0.445","-0.0986","0.13171"
"-34.582","10.786","-1.6785","1.3322","-2","2.6782","0.44069","-0.12185","0.12881"
"-11.524","-12.626","1.8753","0.44482","-1.4223","1.6989","0.43604","-0.15767","0.1135"
"-3.247","-2.8427","-8.4774","1.3788","-0.45082","1.8816","0.43164","-0.18958","0.10424"
"5.4811","-16.682","-6.0737","-3.4258","-0.19361","-1.0261","0.43134","-0.20533","0.077391"
"8.4885","-1.8197","-4.8099","0.60718","-1.0868","-2.2297","0.44596","-0.17891","0.059942"
"-1.7673","9.6642","-2.3897","4.8131","1.1773","-1.8309","0.4559","-0.13543","0.09763"
"-1.2072","3.1935","-0.58225","0.68175","0.53426","-0.69442","0.45526","-0.097765","0.12285"
"0.021453","0.50268","4.631","0.68408","-0.057599","-0.41836","0.45212","-0.088328","0.12709"
"-1.7645","-13.669","-5.5978","1.3251","-0.16564","0.87399","0.45121","-0.083742","0.13004"
"-28.8","10.478","-10.995","-1.961","3.4195","0.14836","0.43467","-0.08518","0.15667"
"-8.1063","-21.281","19.929","-6.3649","0.38257","-0.86368","0.43001","-0.07776","0.1798"
"-35.705","24.823","-2.2274","-1.7791","-1.7161","0.80548","0.42299","-0.08851","0.17844"
"-19.206","-15.779","-4.9344","3.1603","-0.97871","2.1754","0.43243","-0.12569","0.13713"
"-7.2923","-5.8151","-3.2943","-0.28044","-1.2068","2.1612","0.42839","-0.15742","0.1219"
"0.84544","-1.5333","-8.1507","-3.2634","-1.9205","-0.81863","0.4325","-0.17465","0.087765"
"7.7176","-14.724","-5.0071","-2.4638","-0.41106","-0.14101","0.44486","-0.16906","0.032187"
"-0.65994","-6.0387","0.52273","3.0516","0.5199","-0.15208","0.4453","-0.17038","0.048854"
"-0.41662","2.8647","-3.7598","2.0926","0.93498","-1.5585","0.44959","-0.14417","0.07737"
"-0.81259","6.7133","-1.4925","0.13801","0.69053","-0.88231","0.44981","-0.11323","0.10221"
"-1.3706","1.5872","3.9828","-0.98098","0.57343","-0.48003","0.44632","-0.10384","0.11256"
"-11.481","5.7337","-1.8995","-0.10563","0.012303","-0.01309","0.44288","-0.098813","0.10651"
"-57.291","-18.011","13.549","1.3563","-2.3078","0.40027","0.43084","-0.0755","0.14626"
"-36.086","14.074","2.2346","-3.9475","-1.295","-0.46647","0.44033","-0.089758","0.10971"
"-18.45","2.4887","1.8588","-1.4384","-1.5923","2.0504","0.44548","-0.11918","0.082094"
"2.6431","-5.7379","-8.7368","1.2092","-2.047","2.8176","0.43583","-0.16906","0.036287"
"1.7106","-15.375","-3.153","0.39279","-1.1683","0.6221","0.42978","-0.191","0.033442"
"2.0967","-8.158","-3.7994","3.2743","-0.96937","-0.38268","0.43106","-0.21651","0.006555"
"-1.1795","2.4878","-1.7641","3.3135","1.1629","-1.4628","0.44301","-0.18351","0.053415"
"-0.83015","0.6846","-1.4044","-0.067814","0.92216","-1.221","0.44301","-0.14715","0.094242"
"-0.71738","0.65993","-0.90953","-0.48199","1.072","-1.001","0.44174","-0.12615","0.10791"
"-0.56327","-4.3963","4.9739","-0.24458","0.41633","0.21979","0.438","-0.11997","0.12151"
"-8.7282","8.532","-2.5851","-0.13048","2.4741","-1.067","0.43374","-0.10428","0.13518"
"-48.003","-22.551","-3.6388","4.726","-1.2957","-0.5154","0.42331","-0.090357","0.16252"
"-26.977","23.74","-7.6561","-5.0837","0.9532","0.049609","0.42466","-0.079202","0.15571"
"-23.197","-5.1994","2.1315","1.377","-0.82984","1.7725","0.4221","-0.12348","0.14381"
"-11.955","-1.1972","0.44953","1.9242","-2.2656","1.9037","0.42748","-0.14188","0.12491"
"0.43472","0.7655","-2.7351","-0.87951","-0.86851","1.3046","0.43267","-0.17208","0.09597"
"4.5949","-10.772","-2.9723","-2.67","-1.1732","-0.33788","0.43434","-0.18768","0.068778"
"-0.038717","-5.784","-0.51201","-0.25386","-0.013431","-0.69232","0.43639","-0.18214","0.05597"
"-2.1015","-3.2735","-0.017132","0.82728","0.60524","-0.7678","0.44076","-0.16836","0.070753"
"-0.41898","-0.43447","-0.23506","0.24658","0.28315","-1.1402","0.44419","-0.14654","0.085089"
"-1.5128","0.061011","6.9497","-0.60148","0.85017","-0.77019","0.44482","-0.11599","0.095449"
"-6.4019","9.0001","-7.1092","-1.2986","-0.75336","-1.5599","0.44875","-0.098067","0.086861"
"-39.723","-9.8773","-7.4242","6.9152","3.7235","-0.85786","0.43462","-0.084605","0.13444"
"-17.49","21.409","1.0221","-7.6253","0.55006","-3.8927","0.43631","-0.066279","0.13895"
"-35.401","10.712","-4.9797","-1.0862","-3.0112","1.937","0.43518","-0.10824","0.11974"
"-10.017","-15.84","0.45026","3.8632","-0.44736","2.0564","0.43911","-0.14204","0.094686"
"-3.7464","0.61707","-3.8371","2.6322","-0.17586","2.1373","0.42852","-0.17765","0.11097"
"7.2861","-13.907","-3.1744","-4.0864","-2.5003","0.2707","0.42758","-0.21054","0.063399"
"-2.0062","-7.7405","-2.3435","0.10336","-0.047241","-1.2623","0.43748","-0.19972","0.044228"
"-0.87939","2.3943","-1.057","0.62787","1.0324","-1.2591","0.44376","-0.17888","0.053619"
"-0.23801","1.2894","-2.1249","-0.000198","0.76391","-0.90143","0.44608","-0.15601","0.067368"
"0.88819","0.82291","1.6133","-0.024922","0.93307","-1.0997","0.44648","-0.13436","0.084005"
"-5.3397","3.9179","0.73198","0.30634","0.16046","-0.024819","0.44781","-0.12256","0.095002"
"-33.006","-3.1244","-14.196","5.3742","4.4522","-0.18689","0.43547","-0.11048","0.13588"
"-22.467","-12.712","11.029","-1.3707","-0.56637","-1.9083","0.42951","-0.084328","0.17538"
"-35.053","39.245","-4.3889","-3.8225","-0.82016","1.4397","0.43377","-0.10041","0.14535"
"-13.895","-17.953","-1.272","0.71377","-1.8313","1.5918","0.43933","-0.14135","0.10679"
"-3.1367","-2.5186","-3.0508","2.1884","-0.81214","1.6999","0.43994","-0.17011","0.090048"
"5.406","-3.3394","-6.1809","-4.0038","-1.7398","1.175","0.43311","-0.20047","0.066183"
"-0.98765","-17.424","-1.0674","-0.16818","-0.15868","-1.1684","0.43928","-0.19847","0.038143"
"0.24223","2.8629","-4.1297","0.21043","0.15974","-1.5629","0.44798","-0.17731","0.044147"
"0.54405","4.3944","-4.5538","0.693","0.66195","-0.75056","0.45281","-0.15855","0.047944"
"0.055768","3.3579","4.1312","-0.79942","0.84976","-0.82847","0.45802","-0.13532","0.070426"
"-2.2661","0.4794","1.5217","0.43052","-0.34602","0.42793","0.4563","-0.13253","0.065663"
"-27.447","-7.1927","-13.948","3.413","4.1075","-0.83885","0.44865","-0.12592","0.087775"
"-19.702","-11.585","1.3739","0.99199","-0.9774","1.6825","0.43503","-0.11266","0.14402"
"-26.988","17.445","-8.2336","-7.7528","-1.6746","-0.97778","0.44506","-0.11641","0.11489"
"-20.936","-3.4804","-3.2794","0.36396","-1.9204","2.1953","0.4445","-0.13942","0.10319"
"-0.47386","-5.8695","-1.1098","1.5374","-0.79434","1.5034","0.44157","-0.17316","0.077253"
"-0.26577","-1.1186","-3.4916","-3.02","-1.3043","0.66065","0.43928","-0.18978","0.057669"
"2.4319","-15.56","-0.33226","-1.4456","-0.49912","-0.48533","0.4402","-0.20752","0.000163"
"4.1708","-2.374","-7.1555","2.4203","0.49169","-1.5081","0.44798","-0.19614","0.006453"
"-1.3578","3.8212","-2.5703","1.2386","1.255","-1.4959","0.45594","-0.15834","0.041655"
"-0.32339","0.58052","4.192","-0.65021","1.2777","-0.75153","0.45837","-0.13842","0.061981"
"-3.5481","6.1535","6.3191","-1.3734","0.205","-0.56752","0.45768","-0.12795","0.072539"
"-13.094","5.1302","-10.908","-0.29611","0.4185","-0.76362","0.46078","-0.10983","0.070838"
"-48.67","-38.201","16.464","7.1156","0.82837","2.1841","0.44067","-0.087859","0.15266"
"-26.333","32.219","-6.5989","-6.3656","-0.11976","-2.7481","0.44703","-0.071405","0.1334"
"-29.463","-7.9124","2.332","-0.74471","-2.0055","2.7334","0.44997","-0.10662","0.10196"
"-9.7479","-8.5234","3.306","2.4523","-1.5808","2.1587","0.4498","-0.14128","0.078919"
"-5.6486","0.76746","-3.7119","1.7647","-1.1079","1.6538","0.44821","-0.16669","0.085461"
"7.9414","-8.1331","-1.6386","-4.3793","-0.7262","0.41392","0.44632","-0.19419","0.040418"
"-0.046027","-13.982","-1.625","2.5955","-0.17727","-0.77065","0.44914","-0.19193","0.024769"
"-1.1938","-0.14749","-4.3713","1.7902","0.31456","-1.4872","0.45519","-0.16857","0.049537"
"-0.8292","6.3889","-2.689","-0.72373","0.73033","-0.93057","0.46215","-0.14493","0.055972"
"1.0821","-0.54332","3.2565","-0.054349","1.4932","-0.69065","0.46288","-0.12302","0.073413"
"-6.2372","9.0006","1.0891","0.23639","-0.59589","0.15321","0.46031","-0.11335","0.08193"
"-20.757","2.8064","-15.452","1.3992","2.1242","0.18414","0.45318","-0.12004","0.083421"
