"AccX","AccY","AccZ","GyroX","GyroY","GyroZ","MagX","MagY","MagZ"
"-30.387","-45.244","10.807","-3.9733","-2.2744","-1.3739","0.45208","-0.10437","0.12008"
"-31.16","47.589","3.1105","-5.892","0.040455","0.63811","0.46264","-0.090156","0.088756"
"-23.443","-25.561","-0.39298","4.1836","-0.42034","1.2862","0.45653","-0.1311","0.068969"
"-9.0193","-0.42047","-1.2918","3.3556","-1.1743","2.0662","0.4538","-0.15117","0.066329"
"-4.7376","-0.54931","-4.3575","-0.47789","-1.1592","1.3113","0.44488","-0.18545","0.067612"
"3.3658","-4.0324","0.34215","-3.6398","-1.1253","-0.099678","0.44858","-0.193","0.025968"
"-3.7556","-16.056","0.421","2.742","-0.56549","0.070252","0.45052","-0.19369","0.016067"
"-0.35484","-0.52731","-3.6858","3.6322","1.4107","-2.1089","0.45802","-0.16562","0.046913"
"-3.6054","6.797","-0.32917","-0.17337","0.81933","-1.3561","0.46498","-0.12754","0.079417"
"-0.97698","5.4267","1.3551","-1.3833","0.52208","-0.59733","0.46665","-0.11519","0.08802"
"-4.3294","-1.3624","1.1905","-0.56392","0.040922","-0.83594","0.46424","-0.10717","0.089257"
"-32.335","5.2776","-16.664","2.5324","4.3488","0.007765","0.45577","-0.091783","0.11823"
"-18.295","-25.337","9.9147","-1.8032","-0.36709","-1.3221","0.44617","-0.086534","0.14257"
"-34.811","29.194","0.41425","-3.7469","0.045405","1.0413","0.4516","-0.091893","0.12661"
"-16.708","-9.5474","-4.345","2.2822","-1.8676","1.7605","0.45418","-0.12273","0.10731"
"-8.6168","-2.6027","0.56191","2.8016","-1.5949","2.336","0.4523","-0.15288","0.096376"
"2.6418","-4.6192","-3.945","-3.3068","-1.358","1.0605","0.44541","-0.18521","0.071216"
"-1.2901","-19.494","-0.31611","-0.29128","0.009986","-1.183","0.45141","-0.19829","0.030947"
"-0.30079","-0.90979","-1.1906","1.5248","-0.059383","-0.94582","0.46142","-0.17406","0.033744"
"-1.1008","4.4728","-1.2643","-0.67153","0.86155","-1.3167","0.46654","-0.14171","0.054723"
"-0.23702","4.8806","0.58173","-1.0149","0.7692","-0.5354","0.46878","-0.12818","0.065716"
"-1.6861","5.2325","4.4505","-1.1806","0.74334","-0.37529","0.46569","-0.12104","0.075727"
"-7.5304","3.7987","-2.854","-1.363","-0.57435","0.23943","0.46129","-0.12552","0.06955"
"-57.251","-21.269","5.3528","9.9306","6.6817","-0.16314","0.44166","-0.1184","0.14435"
"-28.976","9.9361","-5.329","-3.5615","0.5782","-2.1178","0.44497","-0.11516","0.1392"
"-25.296","14.972","-4.1998","-3.7031","-0.94738","1.1981","0.45296","-0.13159","0.092808"
"-10.662","-6.2856","-0.94686","-0.22128","-2.1896","1.7743","0.45373","-0.16436","0.048614"
"-0.27732","-4.8548","-1.0216","2.7691","-1.0181","1.8678","0.44658","-0.19961","0.041059"
"7.5969","-13.833","-7.6066","-1.7667","-0.081455","-0.11069","0.44575","-0.21534","0.01073"
"7.8619","-10.265","-2.8112","1.0698","-0.99061","-1.335","0.44426","-0.21674","0.002993"
"-2.246","7.9495","1.5347","1.7701","1.4349","-1.4686","0.457","-0.18205","0.037342"
"-1.1828","0.59085","-1.8963","0.43036","0.46089","-0.64718","0.4614","-0.16662","0.060076"
"-1.4489","0.84883","1.5963","-0.18718","0.70623","-0.97672","0.46581","-0.13631","0.071094"
"-0.083546","-4.4749","5.4674","0.56414","0.32585","0.38975","0.46319","-0.12757","0.080424"
"-8.9225","-5.2336","-17.903","1.6102","1.7134","-1.3871","0.45759","-0.12099","0.092493"
"-40.222","-11.434","6.9221","3.1311","-3.2794","0.8119","0.4468","-0.095719","0.153"
"-35.662","23.237","-1.708","-7.233","-0.70244","-0.51836","0.45707","-0.091942","0.12306"
"-21.416","-5.8219","0.44156","-0.90236","-1.5976","1.7378","0.45921","-0.1273","0.091599"
"-6.7385","-5.0789","-5.2104","-0.14632","-1.3454","1.1882","0.45901","-0.15498","0.054994"
"-2.0294","-1.3304","-6.7793","-2.3531","-1.4534","0.61717","0.45427","-0.18722","0.021122"
"3.9475","-12.922","-2.5109","-3.7285","-0.48001","0.53172","0.45273","-0.19883","-0.030857"
"-3.1316","-10.466","0.82763","2.9593","0.58592","-0.53543","0.45495","-0.19035","-0.031742"
"-2.6357","1.1981","-2.7185","2.0542","0.99044","-1.5406","0.46359","-0.16259","0.005531"
"-0.080874","4.3807","0.22442","0.60698","0.75318","-1.0008","0.46908","-0.13856","0.028274"
"-0.84852","1.0071","2.5258","0.18236","0.74301","-0.81122","0.47284","-0.12578","0.05077"
"-5.6535","4.7962","-0.070332","-0.345","-0.34433","0.11822","0.47239","-0.12078","0.052791"
"-26.879","-10.318","-18.123","4.8441","4.8548","-0.49205","0.46318","-0.10684","0.080437"
"-20.304","-12.702","1.0843","-0.68999","-0.89887","0.2059","0.45769","-0.093409","0.10954"
"-29.845","16.363","-0.53753","-3.0608","-0.99316","0.45481","0.46239","-0.090174","0.090743"
"-15.914","-3.4141","0.95192","0.62299","-1.8353","2.0953","0.46382","-0.12321","0.080763"
"-3.6555","-3.6813","-3.1075","2.789","-1.0768","2.1401","0.45666","-0.1634","0.065052"
"9.2624","-11.625","-8.8575","-2.1041","-0.85381","0.064118","0.44891","-0.19088","0.04177"
"0.12441","-7.9739","1.7186","1.3345","0.26635","-0.39312","0.45465","-0.19231","0.014444"
"2.3442","-1.5201","-7.5127","3.5853","0.57189","-1.6815","0.46292","-0.17289","0.038027"
"0.15718","4.995","-2.7433","1.1643","0.9011","-1.1497","0.46985","-0.13511","0.075458"
"-1.2496","3.9883","0.76393","-0.81758","0.99432","-0.53208","0.46869","-0.12087","0.091251"
"-0.79622","3.5949","5.8507","-1.3585","0.15434","0.013445","0.46457","-0.12123","0.098442"
"-6.1531","-0.99551","-11.599","0.25371","0.017567","-0.74521","0.46351","-0.12117","0.089494"
"-65.506","-13.173","14.753","3.0634","-1.2384","-0.39644","0.4455","-0.091065","0.16338"
"-38.027","18.394","-6.6246","-6.2111","-0.27313","-0.61902","0.452","-0.09331","0.13902"
"-24.97","0.94539","1.1468","-1.8807","-2.074","2.3236","0.45442","-0.14489","0.090309"
"-7.4791","-2.6872","-0.28571","1.2747","-1.7383","2.9805","0.44643","-0.19406","0.056382"
"4.3256","-12.924","-6.8675","-3.9671","-2.3864","1.4745","0.43339","-0.23724","0.027236"
"-0.26321","-23.924","0.36168","0.17141","-0.12491","-0.92392","0.43317","-0.2395","-0.019554"
"1.2423","9.0251","-3.0951","1.2061","1.059","-1.3955","0.444","-0.22105","-0.003188"
"0.25735","6.2394","-1.9762","1.3084","0.68093","-0.45518","0.45094","-0.20713","0.030298"
"-1.9383","4.3508","0.55155","1.0038","0.56114","-0.10048","0.45103","-0.19818","0.04929"
"-2.2027","-2.0694","1.8372","2.9613","0.21854","0.011299","0.45513","-0.17699","0.078026"
"1.0288","-14.994","4.3522","2.5558","0.50113","0.017801","0.45229","-0.16654","0.10461"
"-14.62","16.804","-14.519","-5.9705","2.6334","-2.4134","0.44712","-0.15012","0.10786"
"-55.12","-59.544","22.991","4.9828","-2.3329","1.6809","0.4372","-0.14172","0.16645"
"-35.721","52.655","11.16","-2.6468","2.457","1.8385","0.44248","-0.13704","0.14858"
"-13.69","-17.462","1.3476","4.4353","-1.5979","2.1721","0.44369","-0.15966","0.12469"
"-6.3966","4.2717","-0.77909","1.5877","-0.70913","1.024","0.44082","-0.18141","0.11809"
"-1.5519","-2.9269","-5.8939","-2.6465","-2.3718","0.4669","0.44006","-0.20639","0.088865"
"5.0754","-15.276","-1.6465","-1.5227","0.15128","-0.53628","0.44206","-0.2197","0.039559"
"0.26474","-3.0934","-1.2915","2.0231","0.18304","-1.0948","0.44861","-0.20283","0.049964"
"-0.2197","4.1412","-3.7456","0.75252","0.7085","-1.8264","0.46521","-0.15005","0.07306"
"0.16534","4.3833","-0.86963","-0.076106","1.1227","-0.7707","0.46568","-0.12856","0.092362"
"-3.9606","-0.03161","8.9402","0.46757","0.018711","-0.23816","0.46233","-0.12807","0.10847"
"-26.051","1.3481","-18.608","2.8862","2.9888","0.30625","0.45199","-0.11838","0.1218"
"-19.862","-16.207","-1.0992","-1.8149","-1.2231","0.068933","0.45016","-0.098208","0.15488"
"-30.687","26.896","0.68691","-4.9374","-1.0682","0.27438","0.45528","-0.11606","0.11627"
"-15.622","-7.822","0.69843","-0.52154","-1.3785","1.4165","0.45422","-0.15304","0.086198"
"-1.4906","-3.8274","-2.6679","2.0541","-1.3787","2.224","0.45074","-0.18377","0.062448"
"6.4652","-8.7115","-9.4647","-3.0313","-1.9641","0.76471","0.44382","-0.21394","0.031793"
"-5.5852","-14.257","3.2563","1.1087","-1.175","0.52052","0.44639","-0.21637","0.008375"
"0.2422","1.7502","-2.0932","2.1924","1.2219","-1.6891","0.45131","-0.19861","0.038532"
"-0.38549","11.163","-1.3388","-1.0221","0.30887","-0.61465","0.45766","-0.17834","0.052459"
"-0.83173","2.5339","1.6934","-1.7943","0.49623","-0.51323","0.46242","-0.16446","0.056211"
"-1.6603","-12.335","-0.52719","1.1409","0.66607","-0.8277","0.46171","-0.15736","0.058717"
"-37.99","-2.4201","-10.274","2.9578","3.1238","-2.1024","0.46158","-0.11569","0.11141"
"-28.371","-27.733","20.84","-2.764","1.1","-1.7303","0.45006","-0.10632","0.13029"
"-29.914","32.629","-7.9134","-2.9143","-1.8769","1.5441","0.45872","-0.11794","0.1083"
"-19.584","-19.31","-2.7763","1.7877","-0.87383","1.4173","0.45976","-0.13939","0.085988"
"-8.9001","-1.1101","-0.76866","2.0955","-0.52899","1.8185","0.45395","-0.16805","0.08168"
"-0.71831","1.6561","-3.7906","-2.4697","-1.2155","-0.10522","0.45235","-0.1794","0.063349"
"3.4647","-15.599","-1.2712","0.036972","-0.75019","0.038906","0.45784","-0.19449","0.010331"
"-0.99705","-3.7512","-3.7651","3.6667","0.22472","-0.78237","0.46194","-0.18146","0.03576"
"-0.21694","5.4463","-3.1219","0.69654","1.3226","-1.4966","0.46839","-0.14431","0.068399"
"-0.19154","6.2168","-1.319","-0.24556","0.60845","-0.5656","0.46924","-0.12637","0.086849"
"-0.90864","1.4452","9.7951","-1.2236","0.8457","-0.19916","0.46659","-0.12164","0.10237"
"-8.2032","7.5936","-8.3836","-2.7285","-0.31506","-0.8842","0.46455","-0.11713","0.097168"
"-64.414","-36.543","7.5215","6.3564","1.3389","-0.48375","0.44701","-0.1033","0.15993"
"-29.563","6.7563","-3.1287","-4.3385","0.99388","-0.9296","0.44832","-0.10805","0.1461"
"-24.694","7.9293","3.1426","-1.334","-2.0229","1.8437","0.45371","-0.14122","0.10844"
"-11.929","-3.6654","1.2651","1.229","-2.5075","2.1255","0.45174","-0.17527","0.073895"
"0.54092","-8.235","-1.0766","1.1681","-0.65325","1.9553","0.4393","-0.21711","0.074806"
"-2.1234","-15.662","-1.2164","-0.90205","-0.94033","-0.13843","0.43793","-0.23118","0.033787"
"2.2012","0.98785","-4.5948","4.0419","1.2235","-2.1902","0.44595","-0.21285","0.046474"
"-2.5827","5.2568","-1.3171","1.9584","0.72943","-1.4844","0.45741","-0.17112","0.090096"
"-1.6152","1.4872","-1.296","-0.59381","0.88004","-0.91575","0.45786","-0.15198","0.10678"
"-1.7966","4.8198","7.2566","-1.9553","0.058966","-0.82829","0.463","-0.12851","0.11569"
"-2.5513","-6.7222","-2.2977","-0.5015","-0.86286","-0.63835","0.4677","-0.1175","0.098207"
"-16.391","-7.2587","-5.5736","1.3555","4.0783","0.043015","0.46007","-0.11093","0.10795"
"-40.682","-2.98","3.9189","-2.5832","-3.0078","-1.5367","0.45531","-0.090916","0.14095"
"-23.072","20.487","0.90289","-1.147","-1.1063","1.6003","0.46293","-0.096525","0.10964"
"-23.425","-14.803","-0.57286","2.5481","-1.5319","1.8341","0.46228","-0.12403","0.099485"
"-6.7079","2.4472","-1.9771","0.15485","-0.35132","2.0359","0.45974","-0.15245","0.0853"
"0.66997","-2.226","-2.0892","-1.2734","-0.53662","0.86916","0.45153","-0.18853","0.065089"
"4.56","-12.452","-5.3532","-2.4352","-0.32799","-0.37979","0.45526","-0.19486","0.020498"
"-2.432","-2.8023","-1.9041","1.3843","0.66598","-1.0653","0.46197","-0.18019","0.025628"
"-0.61106","1.8117","-1.45","1.2809","0.373","-0.97215","0.46803","-0.15354","0.051133"
"0.93599","3.1576","0.42507","0.21087","0.96161","-0.75648","0.47119","-0.13267","0.068804"
"-0.061043","4.3617","5.6261","-0.44769","0.45895","-0.19063","0.4714","-0.12839","0.077777"
