"AccX","AccY","AccZ","GyroX","GyroY","GyroZ","MagX","MagY","MagZ"
"0.68909","0.85435","-0.84564","1.527","-0.30151","-1.1179","0.59824","0.29172","-0.35142"
"1.5151","3.617","-3.7377","1.3053","-0.27192","-0.67807","0.57624","0.33141","-0.36473"
"-4.8508","2.1539","0.20724","-0.037241","0.44316","-0.24733","0.5644","0.34442","-0.36878"
"-26.772","-10.663","3.5002","-0.4627","1.3444","-0.43423","0.5624","0.33064","-0.3678"
"-27.629","-0.81608","-2.2699","0.56866","0.004239","-0.23325","0.54019","0.36726","-0.35743"
"-23.162","-4.0949","6.582","-0.27578","-0.26406","-0.052028","0.54583","0.35662","-0.36181"
"-19.326","-1.0331","1.7171","0.34737","-0.57767","0.75375","0.55339","0.35554","-0.34914"
"-10.355","-1.503","0.17909","0.012731","-0.7938","1.3659","0.56644","0.3171","-0.35659"
"0.43588","-0.68495","-4.649","1.3056","-0.41541","1.363","0.57726","0.25611","-0.37875"
"3.6129","-4.0885","-5.4114","-0.26239","-0.24171","-0.8221","0.58411","0.23708","-0.38069"
"2.2396","-3.3494","-1.3089","2.2562","0.705","-0.38989","0.58664","0.2354","-0.38084"
"1.3036","-3.1656","-1.3466","3.2487","0.94198","-0.52058","0.59845","0.20958","-0.37946"
"-1.818","1.038","1.264","2.3169","1.2425","0.24477","0.60541","0.17902","-0.38026"
"-2.3378","1.8725","4.7088","0.53697","0.97412","0.86084","0.61857","0.13746","-0.37405"
"-9.3093","2.9569","5.1243","-1.9119","0.36739","-0.23937","0.61452","0.15228","-0.36535"
"-36.937","1.4171","-11.109","-0.76453","1.6538","-0.067536","0.61238","0.18673","-0.33781"
"-28.874","-16.296","0.057908","-0.14268","-0.91921","0.47718","0.61631","0.16305","-0.33526"
"-22.616","14.2","-2.9664","-2.7952","-0.90647","-0.61473","0.603","0.17985","-0.34062"
"-12.117","0.35924","3.8687","-1.2459","-0.48339","0.58681","0.59436","0.21745","-0.33085"
"-1.5981","-5.3611","0.011868","1.7752","-1.1432","1.0787","0.60358","0.16703","-0.33675"
"4.9202","-1.706","-5.0975","-0.47975","-1.4465","-0.78143","0.58632","0.14045","-0.37483"
"1.4528","2.8498","-4.4714","-1.0636","0.012343","-0.022663","0.5737","0.18642","-0.3745"
"1.3366","-6.1583","-0.23952","1.6402","0.84305","-0.2874","0.57956","0.17933","-0.36442"
"-0.68305","-4.2949","-0.64214","2.3678","0.6138","-0.3532","0.58037","0.15084","-0.37112"
"-0.84119","-1.0719","0.7235","1.6719","0.59133","0.080662","0.58189","0.12441","-0.3731"
"-5.2406","-1.2338","6.1006","-0.7092","-0.062651","-0.83477","0.57826","0.12456","-0.36678"
"-21.726","-10.701","-16.107","0.34242","3.3464","-1.5397","0.56454","0.158","-0.35675"
"-23.982","1.4547","-7.1326","-2.0624","-0.94224","0.67048","0.56976","0.22426","-0.30251"
"-29.529","5.724","5.5895","-1.5159","-1.2725","1.1687","0.57149","0.24104","-0.28666"
"-18.956","-3.6802","1.9777","1.5529","-1.0086","0.81026","0.57599","0.20337","-0.30245"
"-6.97","-0.65903","-2.1595","0.39467","-0.71168","1.364","0.57796","0.1594","-0.31952"
"-0.45474","0.53216","-5.6454","-1.2361","-1.7648","1.0739","0.59071","0.11714","-0.3208"
"3.5795","-6.6636","-4.0054","-1.2412","-0.1909","0.26709","0.58149","0.11824","-0.33814"
"3.9634","-12.501","0.66928","2.8087","-0.83388","0.095582","0.57871","0.10648","-0.34567"
"0.56675","0.99779","-3.4455","2.8448","1.1646","-1.019","0.58496","0.079351","-0.33559"
"-1.3233","6.4917","0.2427","0.039234","0.53435","-0.13649","0.58969","0.08504","-0.3205"
"0.15005","-0.30428","2.0496","0.12101","0.53573","-0.059265","0.59069","0.086263","-0.30848"
"-8.7244","-5.626","-10.882","1.3505","0.48936","-1.2281","0.58067","0.087293","-0.31872"
"-36.406","8.3303","-0.16578","-2.2166","1.4287","-0.47645","0.59095","0.12469","-0.28185"
"-35.162","-2.1019","3.6296","-3.038","-0.069529","-0.11731","0.60254","0.13888","-0.25653"
"-25.935","-5.2981","-0.4589","1.1676","-0.66911","1.4236","0.59996","0.12178","-0.26765"
"-12.673","0.77646","0.64811","1.2402","-1.4067","1.3327","0.60773","0.075276","-0.27287"
"-3.7205","1.5397","-7.4235","-2.1084","-1.2518","0.49841","0.60618","0.050261","-0.29121"
"7.2294","-17.443","-6.6248","-4.4342","-0.27633","-0.75076","0.59183","0.069467","-0.31948"
"-1.5753","-2.0907","2.5311","0.71382","-0.044815","-0.79819","0.59608","0.12293","-0.30066"
"-4.0732","2.6727","-1.9655","2.5362","0.57757","-0.67191","0.59602","0.1143","-0.30301"
"-3.1239","4.4362","0.86413","2.5613","0.37953","0.048927","0.5982","0.12491","-0.30024"
"0.8651","-1.7205","0.21271","2.5109","0.49579","-0.16519","0.59901","0.094702","-0.30533"
"0.11308","-11.467","-1.4997","3.4036","0.63375","0.70617","0.59688","0.032474","-0.32207"
"-10.038","5.5071","-1.3415","-2.9647","1.0264","-1.6884","0.59641","0.067236","-0.31322"
"-39.684","-3.3384","0.1209","-1.1365","2.6035","-0.3255","0.61753","0.13944","-0.24325"
"-34.974","1.0246","6.4874","-1.7621","0.26094","-0.34815","0.62059","0.15714","-0.22539"
"-27.068","1.9784","0.85638","2.6757","-1.7977","0.85903","0.60898","0.13453","-0.26152"
"-14.68","3.7399","-4.6221","-1.3925","-1.7196","1.2781","0.60298","0.093449","-0.29119"
"-3.0981","-0.79687","-2.2871","-1.1207","-1.0922","1.225","0.60458","0.070083","-0.29876"
"7.3429","-10.305","-10.294","-3.3386","-1.7254","-0.2145","0.5901","0.082616","-0.3281"
"1.319","-6.7196","-2.0641","0.12643","0.34564","-0.41543","0.5893","0.1039","-0.33697"
"-1.1878","-0.88191","-1.8816","2.0685","0.72138","-0.87809","0.59537","0.10098","-0.3251"
"-0.55209","2.9395","-1.8157","1.2122","0.82084","-0.53657","0.60219","0.11454","-0.30903"
"0.64557","1.7491","-0.51375","1.0693","1.0668","-0.07467","0.60491","0.10654","-0.30404"
"-2.0078","-2.4122","5.3244","0.54922","0.48719","0.098744","0.60844","0.10021","-0.29483"
"-11.487","-0.80481","-10.183","0.48727","0.2474","-1.0176","0.59157","0.10482","-0.31843"
"-45.503","4.0685","4.5697","-3.3024","1.1797","-0.12017","0.61471","0.16783","-0.22604"
"-37.215","-2.5036","3.7507","-3.0142","-2.648","-0.20963","0.61097","0.18969","-0.22987"
"-21.788","1.1174","0.78637","2.239","-1.7714","1.1564","0.60326","0.15742","-0.26503"
"-5.7536","1.7204","-2.9677","0.1648","-1.4337","1.2578","0.59879","0.12001","-0.293"
"1.2839","-2.6296","1.1362","-0.80049","-1.3608","1.075","0.60027","0.077721","-0.30933"
"4.4394","-10.332","-7.1907","-2.2785","-0.49518","-0.44541","0.5875","0.09405","-0.33618"
"-2.0562","-5.7078","-0.63926","1.8713","-0.43091","0.078581","0.58373","0.09928","-0.33983"
"0.71662","1.3126","-3.9651","2.2133","1.1657","-0.89001","0.58627","0.079642","-0.33754"
"1.3175","1.9801","-3.3854","1.0384","0.6634","-0.29472","0.59151","0.074658","-0.33015"
"0.50566","-1.1328","-0.76294","0.95252","0.65881","-0.332","0.59194","0.077463","-0.32016"
"-4.3855","0.31926","4.9703","0.053746","0.28904","-0.15728","0.58825","0.08347","-0.3225"
"-26.292","-4.4966","-7.0069","1.2601","2.2922","-1.2341","0.58473","0.096986","-0.31388"
"-40.793","-5.0914","-5.5203","-1.5297","-1.0722","0.25108","0.58609","0.12202","-0.29806"
"-29.093","2.0027","13.739","-3.0146","-0.85106","0.078151","0.58161","0.15221","-0.29612"
"-16.478","7.488","4.7405","-0.39296","-1.959","1.4032","0.57373","0.16118","-0.2972"
"-4.5975","-5.9437","-2.4309","2.9743","-1.3251","1.5589","0.57978","0.08231","-0.31905"
"3.6441","-9.0299","-11.011","-1.6297","-2.1305","0.38711","0.56555","0.047722","-0.35147"
"3.2877","-4.3766","0.32118","-1.2201","1.0727","-0.69222","0.56368","0.076012","-0.3539"
"1.4247","-3.8361","-6.5144","1.5739","0.78705","-0.49043","0.57457","0.077017","-0.33509"
"-1.63","1.002","2.5684","0.6015","0.75228","0.078334","0.58242","0.069375","-0.31965"
"-0.52594","8.4073","0.36592","0.41274","0.85185","0.34727","0.58645","0.059875","-0.30601"
"-4.1371","-8.7423","-1.6687","0.74262","0.92944","-0.36256","0.5861","0.042284","-0.30134"
"-35.62","1.9069","2.8333","3.5598","1.9894","-0.73479","0.60605","0.03182","-0.26196"
"-13.191","-1.6216","3.5314","-0.95493","0.73102","0.30443","0.61176","0.011386","-0.25454"
"-34.815","9.7238","0.82107","-1.6068","-0.058523","0.072133","0.60964","0.034658","-0.25213"
"-20.077","-0.84438","-0.18358","-1.6391","-1.8017","1.1017","0.607","0.022033","-0.26518"
"-8.2165","-1.6809","-3.2724","0.23357","-1.4214","0.84286","0.6027","-1.8e-05","-0.28089"
"-3.0498","-1.6005","-5.3812","-4.0597","-1.3404","-0.48885","0.59941","0.027049","-0.29575"
"3.8453","-16.08","-7.3507","-4.602","-1.2773","-0.72391","0.58232","0.10021","-0.3263"
"-3.3932","-3.686","-0.253","1.07","1.1525","-1.3311","0.58074","0.13001","-0.32095"
"-1.4685","0.87878","-0.86557","1.4126","0.93725","-1.4665","0.58571","0.14539","-0.30629"
"-0.76315","2.1411","-1.7915","0.73666","0.50455","-1.2854","0.58756","0.19277","-0.28348"
"-1.5116","1.0522","0.88225","0.57266","0.63179","-1.1263","0.57843","0.22057","-0.28217"
"-3.0571","-3.292","6.268","-0.73614","0.74692","-0.52084","0.57028","0.24155","-0.27939"
"-27.237","11.546","-4.9626","-2.4461","1.4092","-0.39894","0.5511","0.27487","-0.26081"
"-34.455","-16.495","0.21859","0.92141","-0.632","0.84083","0.55843","0.27578","-0.25083"
"-28.945","-2.943","5.1443","0.4946","-1.007","0.46647","0.56395","0.27534","-0.255"
"-14.349","1.6328","1.5186","-0.76531","-1.083","0.98233","0.56924","0.24534","-0.26404"
"-5.0775","1.1906","0.22474","1.9186","-1.0195","1.6214","0.57976","0.20465","-0.2722"
"3.9466","-9.2529","-7.4352","2.4879","-1.0085","1.2364","0.58761","0.094722","-0.32193"
"3.8888","-0.83799","-4.1414","-0.88065","-0.60515","-0.33209","0.57651","0.098839","-0.34269"
"-0.22845","-2.5427","1.8206","2.407","1.2501","-0.082468","0.58565","0.095354","-0.32148"
"-1.088","-4.2688","-1.1569","3.2704","0.61652","-0.21594","0.58974","0.057106","-0.31589"
"0.60405","6.5716","2.5838","0.1832","0.73688","0.31048","0.59062","0.038214","-0.31076"
"-4.0895","-0.90226","-5.0085","-0.64368","0.3629","-0.038609","0.58515","0.03459","-0.30664"
"-40.459","-3.6356","4.9703","3.6383","2.3599","-0.30678","0.60091","0.031824","-0.26886"
"-11.494","-2.0826","0.64537","-1.8057","0.71533","0.40783","0.60305","0.013607","-0.26462"
"-23.867","8.9102","-1.1701","-1.2632","-0.21871","-0.054104","0.60442","0.029193","-0.26302"
"-22.551","-0.98984","-2.2801","-0.46597","-1.6994","1.0301","0.60516","0.013919","-0.26826"
"-7.2456","-3.7421","-2.5594","-0.77157","-0.95252","0.65637","0.60118","-0.012378","-0.29298"
"-4.3932","-0.44767","-2.1512","-4.0221","-0.88586","-1.6358","0.60084","0.034026","-0.29847"
"4.248","-12.834","-7.126","-3.2948","-1.0424","-1.0361","0.57656","0.10571","-0.33358"
"-3.8479","-2.7602","0.48886","0.94625","0.99684","-1.0377","0.58314","0.13474","-0.31991"
"-1.4209","2.5297","-0.94996","0.78889","0.42413","-1.1139","0.58504","0.15743","-0.30614"
"0.73072","-0.58629","-1.4001","1.6522","0.6571","-0.806","0.58018","0.19604","-0.3078"
"-0.72698","2.7785","3.8883","0.57253","0.97538","-0.82415","0.57767","0.20711","-0.304"
"-7.414","8.4047","3.925","-2.1839","0.087339","-0.19099","0.5719","0.21302","-0.29676"
"-45.028","-5.7206","-7.9244","0.061453","2.4348","-1.2687","0.57118","0.24049","-0.27643"
"-26.343","-17.586","10.729","-2.9401","-0.63639","-0.28289","0.57506","0.22494","-0.29305"
"-23.961","22.215","3.0552","0.64366","-1.4336","2.2626","0.57211","0.2613","-0.27441"
"-10.172","-11.852","-1.5176","2.5542","-2.6409","2.9975","0.58527","0.14691","-0.33195"
"2.0502","-8.7118","-1.5641","0.67198","-0.54992","0.8867","0.58472","0.060935","-0.3585"
"1.5579","-6.3716","-3.6503","-0.48469","-0.63591","-0.80232","0.57769","0.068947","-0.36996"
