"AccX","AccY","AccZ","GyroX","GyroY","GyroZ","MagX","MagY","MagZ"
"-8.225","-2.0238","-1.2369","-0.76671","0.71923","1.5194","0.86516","0.28725","-0.1489"
"-7.9017","-2.3234","-0.99001","-0.98099","0.57306","1.2219","0.88319","0.24208","-0.11796"
"-7.2274","-1.3458","-1.0375","-1","0.56201","0.89901","0.89582","0.20656","-0.085254"
"-6.8253","-2.4623","-0.83322","-0.64939","0.59267","0.27958","0.90164","0.18822","-0.059612"
"-7.6288","-2.4709","0.47086","-0.037796","0.60622","-0.064323","0.90295","0.18274","-0.038638"
"-8.0365","-0.86891","-1.0993","0.37355","0.42787","-0.35293","0.90139","0.19151","-0.020741"
"-8.2622","3.0641","-5.9089","0.59247","1.3198","-0.84025","0.89524","0.2131","0.000465"
"-12.621","12.113","-0.89048","-1.5642","1.3144","-0.9388","0.88313","0.25171","0.059365"
"-10.332","14.725","-2.7826","-1.3555","0.55596","0.43458","0.88017","0.24299","0.10942"
"-9.4006","-3.3729","-2.4742","0.90053","-0.63727","-0.26556","0.87999","0.2478","0.10648"
"-18.12","15.587","5.9864","-4.5262","0.17078","0.53841","0.88082","0.23665","0.13023"
"-8.5567","-7.3929","-5.0183","-0.9741","0.75387","-1.1764","0.87062","0.23868","0.16308"
"-9.6238","-0.71017","0.68392","-0.35406","0.094987","-0.63573","0.86501","0.25682","0.14961"
"-9.5776","-4.3434","-3.6694","0.063243","0.07626","-1.1645","0.85279","0.29405","0.15809"
"-8.9814","0.51479","-2.9801","0.002578","-0.050438","-0.90668","0.84042","0.33093","0.16936"
"-9.9721","-0.75489","-1.5134","0.039941","0.097772","-1.1458","0.82603","0.3637","0.17521"
"-9.6527","-0.70605","-2.1371","0.11854","0.078168","-1.0745","0.80868","0.40128","0.17574"
"-9.425","0.2971","-1.541","0.37281","0.10686","-1.0114","0.79017","0.43591","0.16608"
"-9.5354","1.1836","-2.0618","0.49704","-0.010274","-0.93264","0.77252","0.46951","0.15734"
"-9.1112","2.776","-2.3476","0.42129","-0.008489","-0.73468","0.75687","0.496","0.15594"
"-9.1018","0.94674","-2.3904","0.18338","0.025331","-0.56012","0.74461","0.51677","0.15077"
"-10.058","-1.6082","-1.9493","0.38016","-0.094265","-0.68318","0.73188","0.5353","0.14597"
"-8.9971","-0.44813","-2.2292","0.7612","-0.2819","-0.73545","0.71708","0.56001","0.11852"
"-9.3306","0.39134","-2.4769","0.53695","-0.17058","-0.80423","0.70226","0.58413","0.097016"
"-9.2164","0.34336","-1.6494","0.11083","-0.10318","-0.83641","0.68324","0.60898","0.090776"
"-10.172","0.36927","-1.5786","0.20905","-0.18814","-0.70107","0.66616","0.63008","0.085139"
"-10.079","1.4165","-0.90279","0.86436","-0.33934","-0.45565","0.65091","0.64605","0.063129"
"-8.9259","3.6706","-0.92709","1.3878","-0.48122","-0.1994","0.64176","0.65575","0.017595"
"-8.1124","6.0783","-2.1736","1.1732","-0.16599","0.20202","0.64227","0.65563","-0.023425"
"-11.36","7.3492","1.0453","0.74648","-0.33926","1.0272","0.65843","0.63989","-0.052425"
"-12.783","0.65175","0.12389","0.44727","-0.52469","1.4569","0.68702","0.6031","-0.078659"
"-15.986","-7.0057","-0.63723","1.0566","-0.17445","1.7367","0.72355","0.5526","-0.098295"
"-13.824","-2.673","-1.9037","2.0493","-0.084381","1.6411","0.76336","0.48586","-0.13548"
"-11.116","-1.3795","-0.26047","0.58833","0.014035","1.7531","0.79392","0.42428","-0.15473"
"-8.9677","-3.726","-0.094751","0.012745","0.17268","1.1978","0.81386","0.38087","-0.1593"
"-7.2625","-1.9888","-1.5176","0.09853","0.61516","0.88695","0.83024","0.34993","-0.14468"
"-7.4756","-1.0613","-1.1779","-0.5501","0.55639","1.0967","0.8455","0.3177","-0.12161"
"-7.766","-2.5778","-0.99451","-0.99335","0.51661","1.1341","0.86238","0.27703","-0.077938"
"-8.6241","-2.7383","-1.0791","-1.1853","0.60945","0.73143","0.87159","0.24907","-0.047814"
"-8.8664","-1.8048","-0.40986","-0.97196","0.49377","0.29144","0.87767","0.23257","-0.024951"
"-8.1505","-1.3397","0.21912","0.31379","0.26984","0.039479","0.87937","0.22954","-0.0103"
"-7.7083","3.3848","-1.3674","0.5751","0.39766","-0.22875","0.87806","0.23331","-0.004794"
"-8.6396","6.7231","-2.6649","0.27288","1.0023","-0.32273","0.87229","0.24832","0.020118"
"-10.691","8.9818","0.3519","-0.094689","1.2468","-0.39273","0.86195","0.26416","0.07155"
"-8.4374","10.499","-3.6251","-1.3696","0.60511","0.41366","0.86396","0.25277","0.10473"
"-7.2651","0.17593","-0.99494","0.20671","-0.34121","0.28956","0.86688","0.24189","0.10692"
"-9.398","-4.6403","-4.2056","0.25693","-0.36547","-0.32582","0.86734","0.23742","0.089971"
"-19.299","19.842","5.8831","-1.8029","0.2348","0.4782","0.8638","0.22741","0.1248"
"-9.3615","-4.0223","-3.1478","-1.6559","1.0907","-1.1345","0.85389","0.24394","0.16713"
"-15.621","-7.5438","1.096","0.67369","0.066406","-0.89293","0.84406","0.26638","0.17993"
"-8.2802","0.13245","-4.1283","-0.2441","-0.33153","-1.26","0.83157","0.3069","0.16939"
"-10.088","-1.3627","-1.5001","0.13989","0.26496","-1.1006","0.8162","0.34522","0.17291"
"-9.9338","0.16316","-2.2712","0.58172","-0.12296","-1.0607","0.79971","0.38909","0.17054"
"-7.7605","1.0759","-3.3162","0.051377","0.16719","-0.92628","0.78385","0.41895","0.16507"
"-9.8092","-0.55857","-1.6904","0.59131","0.04074","-0.99613","0.76813","0.4477","0.1629"
"-9.4532","2.4303","-2.4816","0.81656","-0.11458","-0.92781","0.75254","0.47974","0.14514"
"-9.3175","2.3543","-2.0962","0.54031","-0.10884","-0.65514","0.73941","0.50644","0.13017"
"-9.5638","0.97284","-1.8971","0.032385","0.015149","-0.65634","0.7221","0.52849","0.12237"
"-9.5585","0.13141","-1.491","0.042906","0.00277","-0.72805","0.70685","0.54947","0.12251"
"-9.5137","-0.091173","-2.015","0.19921","-0.034439","-0.71425","0.6937","0.569","0.12098"
"-9.5735","-0.1657","-2.1811","0.39441","-0.17203","-0.78758","0.67679","0.59128","0.11003"
"-8.637","0.52937","-2.5531","0.14585","-0.18103","-0.88992","0.6573","0.61571","0.098578"
"-9.7304","1.3923","-1.9459","0.044887","-0.19077","-0.68151","0.63603","0.63667","0.098198"
"-10.162","1.551","-0.85209","0.67838","-0.37605","-0.49383","0.62143","0.65546","0.080265"
"-8.6699","4.7359","-0.83309","1.3812","-0.53234","-0.16072","0.61535","0.66573","0.041709"
"-7.9281","7.0935","-0.91077","1.5361","-0.4092","0.54916","0.6211","0.66233","-0.006286"
"-12.266","7.6693","0.74175","1.0573","-0.46749","1.4403","0.64811","0.63421","-0.045659"
"-12.588","-1.1768","-3.5233","-0.35661","-0.3584","1.5563","0.68478","0.5937","-0.074685"
"-19.099","-3.9632","-3.2085","0.27662","0.088566","1.7762","0.72285","0.54764","-0.067153"
"-14.892","-3.0174","-3.05","-0.037963","-0.044125","1.9094","0.75747","0.49867","-0.070411"
"-10.51","-3.2789","-0.89134","-0.87089","0.15383","1.8983","0.79605","0.44041","-0.054593"
"-8.7372","-5.2222","-0.68859","-0.41507","0.35276","1.4139","0.82027","0.39352","-0.033118"
"-7.427","-3.2355","-1.1895","0.001119","0.46603","1.4001","0.84267","0.34466","-0.018056"
"-6.6809","-1.8883","-1.6861","-1.1305","0.55591","1.2306","0.8602","0.3024","0.011212"
"-7.4265","-3.058","-0.5896","-1.299","0.4094","1.037","0.87288","0.26573","0.03822"
"-7.519","-3.7649","-0.18563","-1.359","0.55535","0.53672","0.87879","0.23547","0.068326"
"-7.4608","-3.138","0.57248","-0.40106","0.40943","-0.049094","0.87966","0.22747","0.093973"
"-7.6413","-1.7561","-0.13026","0.87798","0.066232","-0.24085","0.87471","0.23536","0.10336"
"-7.5733","6.0392","-4.8781","1.053","0.52872","-0.55038","0.87138","0.25481","0.10063"
"-9.9189","11.42","-2.8008","0.30327","1.6198","-0.65979","0.85839","0.28335","0.13709"
"-8.4322","14.37","-2.309","-1.7567","0.74143","0.66339","0.85149","0.27707","0.18277"
"-7.0374","-1.8636","-0.76311","1.6496","-0.83962","0.30695","0.86107","0.26537","0.16766"
"-20.192","14.523","-1.4502","-3.7276","-0.26819","0.10959","0.86181","0.2681","0.17047"
"-8.9966","-4.963","-2.1115","-2.0907","1.3902","-1.2339","0.8528","0.27107","0.20948"
"-15.084","-5.6044","5.6732","-1.2367","0.21055","-0.68311","0.84501","0.28063","0.23863"
"-9.6258","-5.8682","-5.0111","0.040184","-0.091183","-1.27","0.82938","0.32102","0.23656"
"-8.8241","-0.90502","-2.33","0.37154","0.20764","-1.003","0.81737","0.36086","0.22781"
"-9.7929","-1.046","-1.8167","0.33624","0.014433","-1.1605","0.79434","0.40593","0.24263"
"-8.9633","-0.3918","-3.271","0.49642","0.013803","-1.1145","0.77497","0.44845","0.23101"
"-9.0027","0.1539","-2.9123","0.32571","0.146","-1.2776","0.75826","0.48337","0.21294"
"-8.7856","3.6421","-1.299","0.89728","-0.039528","-1.234","0.73451","0.52568","0.20176"
"-10.468","2.0739","-2.6213","0.8118","0.047929","-0.64955","0.7133","0.56012","0.18133"
"-9.4644","1.5226","-2.518","0.29319","-0.027494","-0.47113","0.6972","0.58301","0.17738"
"-9.4866","0.46132","-1.5722","0.44405","-0.13333","-0.55056","0.68592","0.60165","0.16567"
"-9.8538","-0.7768","-1.6907","0.43487","-0.062773","-0.5962","0.67747","0.61717","0.14701"
"-9.4665","-0.72144","-2.013","0.53391","-0.23914","-0.58332","0.66412","0.63749","0.1309"
"-8.6664","0.21416","-2.6581","0.39549","-0.1778","-0.67454","0.64929","0.65674","0.11067"
"-9.5455","0.095594","-2.0305","-0.18645","0.00655","-0.55855","0.63127","0.67737","0.10803"
"-9.8187","-1.0014","0.050517","0.00537","-0.16686","-0.49809","0.61657","0.68748","0.11114"
"-8.3899","2.4271","-0.83966","1.2005","-0.51924","-0.24838","0.61151","0.70022","0.08263"
"-7.8027","5.083","-2.481","1.4896","-0.36747","0.036394","0.60976","0.70805","0.027923"
"-11.483","8.829","0.14143","0.62234","-0.16336","0.60968","0.61812","0.70469","-0.004886"
"-12.232","5.8176","-1.2431","0.12207","-0.68139","1.3069","0.64927","0.677","-0.030778"
"-16.505","-4.7937","-3.0951","-0.41304","-0.12672","1.7542","0.6919","0.63512","-0.041291"
"-17.276","-6.3786","-1.3611","1.6134","-0.38327","1.7479","0.73124","0.58823","-0.062839"
"-10.896","-1.21","-1.2761","0.724","-0.08565","2.0976","0.77423","0.52598","-0.09901"
"-9.2378","-3.2366","0.80723","-0.18593","0.01659","1.6337","0.81289","0.46301","-0.10345"
"-7.6232","-4.2584","-0.75697","-0.064299","0.31271","1.0045","0.83808","0.41606","-0.098142"
"-7.4467","-1.4479","-2.0992","-0.12075","0.42015","1.1417","0.85729","0.38004","-0.084771"
"-7.6988","-1.7343","-1.9764","-0.75743","0.47391","1.1561","0.87359","0.34575","-0.063427"
"-7.9766","-2.4146","-0.9161","-0.97934","0.5068","0.93207","0.88787","0.30942","-0.036341"
"-8.3644","-1.2449","-1.3002","-0.80187","0.53109","0.40747","0.89509","0.2882","-0.00695"
"-8.3424","-0.62022","-0.040261","-0.18141","0.27227","0.11559","0.89927","0.27627","0.013287"
"-7.5326","2.4776","-1.3476","0.054589","0.40342","-0.19883","0.89899","0.27983","0.024289"
"-7.7914","4.846","-1.3628","-0.44565","0.53445","-0.26893","0.8968","0.28834","0.039628"
"-8.7797","5.5971","-0.82093","-0.22551","0.65797","-0.17784","0.89414","0.29472","0.062553"
"-9.3451","4.7888","-1.7166","0.21914","1.1751","-0.28115","0.88637","0.30621","0.096384"
"-8.4217","7.9659","-2.1515","-0.52373","0.52019","0.18778","0.88475","0.30517","0.12571"
"-7.0152","3.8707","-0.49856","0.63676","-0.25918","0.25221","0.8874","0.29598","0.12534"
"-13.105","-0.3785","-8.6125","-0.37103","0.029421","-0.4334","0.88983","0.29629","0.10936"
"-13.369","8.1204","2.8422","-1.0419","0.5163","-0.011264","0.89492","0.26666","0.15274"
"-11.181","-7.1313","-2.048","-1.2233","0.49075","-0.82139","0.87638","0.28815","0.20811"
"-14.834","-8.6115","-2.9974","0.90255","-0.17591","-1.1517","0.86621","0.32324","0.19008"
"-7.3792","1.682","-4.6142","-0.29332","-0.16384","-1.2038","0.85359","0.36511","0.18016"
"-11.231","-2.7127","-0.86113","0.18163","0.11391","-1.1891","0.83403","0.40061","0.19478"
