"AccX","AccY","AccZ","GyroX","GyroY","GyroZ","MagX","MagY","MagZ"
"-7.2547","-1.1972","-1.3521","-1.1382","0.70013","1.1669","0.87789","0.28134","-0.15711"
"-8.0244","-2.1337","-0.4514","-1.8779","0.50947","0.98537","0.89216","0.25137","-0.12153"
"-9.0508","-2.8285","-0.23122","-1.573","0.70392","0.68135","0.90342","0.22737","-0.072151"
"-8.813","-0.97732","0.19161","-0.77919","0.58986","0.15422","0.90686","0.21771","-0.039516"
"-8.4405","1.9717","-0.014147","0.066543","0.3491","-0.037417","0.90847","0.21316","-0.027515"
"-8.7251","6.1423","-0.68451","-0.18804","0.35834","-0.14508","0.90569","0.21587","-0.015856"
"-8.3415","6.0184","-2.9945","-0.060062","0.75575","-0.15656","0.90705","0.22097","0.007015"
"-9.147","7.3803","0.50587","-0.087668","1.0592","-0.070144","0.90301","0.23023","0.049917"
"-8.2542","6.528","-2.8508","-0.27343","0.78612","0.1667","0.90241","0.22677","0.08058"
"-7.7581","1.1372","-0.63714","0.15004","-0.008635","0.15841","0.90346","0.21626","0.0965"
"-6.9333","0.027608","-1.6695","0.10005","-0.16871","-0.43334","0.90198","0.22325","0.088809"
"-18.669","9.2441","-2.3954","-3.8258","0.2671","-0.70011","0.89494","0.24836","0.095786"
"-11.519","2.6681","0.86842","-2.0913","0.56429","-0.63934","0.89391","0.23161","0.12063"
"-11.23","-6.7065","-1.9436","0.03671","0.3851","-0.6575","0.87831","0.26003","0.1622"
"-12.42","-4.7165","-2.0071","0.87554","-0.02668","-1.0693","0.8718","0.28575","0.1692"
"-8.6142","0.30321","-4.6366","0.54922","-0.15574","-1.02","0.86114","0.32582","0.15772"
"-9.6191","-0.24728","-1.2356","0.14738","0.056637","-1.0414","0.84703","0.36189","0.15218"
"-9.5659","0.23998","-2.9603","0.28785","0.075792","-0.9398","0.82983","0.40975","0.13683"
"-8.6088","0.1969","-2.506","0.19186","0.22604","-0.85142","0.81554","0.43754","0.13384"
"-9.7548","-0.21575","-1.7334","0.53637","0.14687","-1.009","0.79795","0.46072","0.14655"
"-9.2739","1.9393","-2.0262","0.99373","-0.069469","-0.82391","0.78112","0.49613","0.12935"
"-9.4905","1.5746","-2.8853","0.69617","-0.051296","-0.61214","0.76818","0.52231","0.10905"
"-9.2077","0.42017","-2.6758","0.33976","-0.084484","-0.6894","0.75331","0.54734","0.087021"
"-9.836","-0.4407","-1.8098","0.11525","-0.087453","-0.7919","0.73674","0.57054","0.081651"
"-9.8595","-0.15661","-1.6306","0.44628","-0.054364","-0.72805","0.72147","0.58923","0.080789"
"-9.1265","0.6822","-2.5019","0.59488","-0.19402","-0.74479","0.70539","0.61245","0.060987"
"-9.4752","0.32019","-2.3285","0.41642","-0.1689","-0.62821","0.68707","0.63335","0.04464"
"-9.8169","0.37492","-1.3903","0.43936","-0.1599","-0.5919","0.66964","0.65319","0.029984"
"-10.265","0.61874","-0.94947","0.97696","-0.33193","-0.48268","0.65679","0.66694","0.004012"
"-9.6049","2.9601","-0.80374","1.3787","-0.45758","-0.27305","0.64853","0.67593","-0.03594"
"-8.1309","5.1713","-1.0166","1.4763","-0.54359","0.032055","0.64433","0.67505","-0.088491"
"-9.3814","8.6013","-1.2405","0.90495","-0.20022","0.7887","0.65279","0.65876","-0.13042"
"-13.598","4.4838","0.41962","0.14141","-0.49767","1.7283","0.68607","0.61919","-0.16114"
"-14.383","-6.8572","-2.9744","-0.036542","0.05005","1.6415","0.72581","0.56985","-0.17076"
"-19.458","-4.9667","-0.82801","1.8399","-0.43019","1.9248","0.76188","0.51107","-0.18877"
"-11.065","-1.0013","-1.5939","0.74763","0.073415","2.1228","0.79924","0.43558","-0.21758"
"-9.3757","-3.5049","-0.1545","-0.27012","0.20302","1.6467","0.82805","0.37536","-0.21398"
"-7.5461","-3.9063","-1.055","-0.11346","0.44986","1.2256","0.8528","0.32393","-0.20171"
"-6.9987","-1.7199","-1.6239","-0.65002","0.58407","1.2013","0.8719","0.28457","-0.17907"
"-7.4595","-2.1341","-1.6102","-1.2822","0.45391","1.1579","0.88852","0.25303","-0.14541"
"-8.1343","-2.9402","-1.3529","-1.3141","0.60808","0.76177","0.89988","0.22649","-0.11466"
"-8.551","-1.5048","-0.73271","-1.069","0.62009","0.34219","0.90571","0.21253","-0.080635"
"-8.3747","-0.63724","-0.032492","-0.12562","0.34225","0.000809","0.90764","0.20488","-0.061639"
"-7.7909","4.5267","-0.769","0.028811","0.36288","-0.12069","0.90743","0.21009","-0.051644"
"-8.2618","6.0989","-0.63015","-0.3024","0.48333","-0.025993","0.90914","0.21266","-0.03433"
"-7.5115","6.0629","-5.6859","-0.34382","1.332","-0.42978","0.90653","0.22145","0.004074"
"-8.6616","6.944","-0.48907","-1.3808","0.55883","-0.067706","0.90422","0.22776","0.042497"
"-8.9387","3.8348","-1.3614","-0.12103","0.19298","0.14976","0.90273","0.22304","0.067037"
"-7.4454","-1.2799","-3.2687","1.2124","-0.35733","-0.21871","0.9018","0.22842","0.055825"
"-19.972","16","1.7718","-4.9515","0.14481","-0.14087","0.89952","0.23995","0.063302"
"-8.8567","-3.1099","-0.90213","-2.1489","0.75277","-1.0726","0.89774","0.2333","0.096708"
"-13.281","-6.6211","2.6134","0.11961","0.1547","-0.62967","0.88629","0.26373","0.12236"
"-9.5687","-4.4006","-4.9357","0.62689","-0.03937","-1.1684","0.87243","0.308","0.11263"
"-9.552","0.4128","-3.0353","0.32591","0.004363","-1.0629","0.86083","0.34565","0.1034"
"-9.6335","-0.3523","-1.2358","0.18252","-0.10365","-1.1167","0.84529","0.37999","0.10489"
"-9.3424","0.30124","-3.0534","0.098809","0.057353","-1.0785","0.82759","0.41853","0.10058"
"-9.251","0.4619","-1.9341","0.33204","0.043057","-0.94788","0.81095","0.45108","0.10051"
"-9.281","0.62527","-1.5823","0.65613","-0.018081","-0.98353","0.79024","0.48851","0.090354"
"-9.6308","1.7272","-1.8381","0.92759","-0.16256","-0.89782","0.771","0.52151","0.068739"
"-9.7533","0.79767","-2.0196","0.44544","-0.14775","-0.78588","0.75669","0.54615","0.05041"
"-9.3575","0.62085","-2.394","0.23797","-0.18466","-0.76593","0.74049","0.56973","0.041252"
"-9.8122","-0.39858","-1.0968","-0.028797","-0.054734","-0.87988","0.72131","0.59449","0.034873"
"-9.1426","-0.03492","-1.3613","0.28459","-0.18312","-0.91337","0.69899","0.61862","0.019858"
"-9.6572","0.67358","-2.7376","0.31123","-0.16358","-0.8999","0.67729","0.64535","0.007908"
"-10.15","1.4288","-0.91804","0.2124","-0.3286","-0.9008","0.65413","0.67087","-0.000935"
"-9.9672","3.701","-0.79682","0.59666","-0.41694","-0.53826","0.63433","0.68753","-0.022665"
"-9.2448","5.2285","-1.4291","1.3537","-0.53941","-0.008486","0.6291","0.69237","-0.06526"
"-9.3651","8.4058","-1.0899","1.0185","-0.20207","0.88396","0.63926","0.6767","-0.108"
"-14.018","5.363","1.3554","0.33817","-0.42548","1.7379","0.67456","0.63501","-0.13229"
"-13.457","-5.3981","-3.1524","-0.10433","-0.12449","1.7852","0.71381","0.58832","-0.14663"
"-17.924","-5.8875","-1.5313","1.588","-0.11905","1.9478","0.75456","0.52899","-0.16467"
"-12.138","-1.0381","-0.9853","1.2633","0.048648","2.1086","0.79397","0.45307","-0.19593"
"-9.7255","-2.2916","-0.17035","-0.19076","0.29291","1.6696","0.83352","0.37897","-0.18915"
"-7.4379","-3.2529","-1.2185","-0.40162","0.57163","1.1956","0.85556","0.33678","-0.16776"
"-7.344","-1.3467","-1.5488","-0.76333","0.61523","1.2581","0.87186","0.30271","-0.1497"
"-7.7712","-2.2503","-1.0163","-1.539","0.49062","1.3532","0.88972","0.26145","-0.11532"
"-7.7189","-3.5784","-0.74374","-1.6049","0.51775","1.0054","0.90154","0.22398","-0.083766"
"-7.8417","-2.8078","-0.462","-1.4352","0.62373","0.34897","0.9103","0.20572","-0.038192"
"-7.5428","-2.3167","0.72867","-0.19454","0.32516","-0.0923","0.90996","0.20274","-0.017407"
"-7.2944","1.2344","-0.12535","0.19695","0.20203","-0.396","0.90936","0.20746","-0.014022"
"-8.0677","6.3449","-0.10893","-0.26482","0.68016","-0.39868","0.9056","0.22292","-0.00193"
"-9.522","11.55","-3.7669","-0.66117","1.8783","-0.59942","0.89683","0.24195","0.053413"
"-9.7943","12.328","-3.5332","-1.0368","0.75101","0.29643","0.89261","0.24369","0.10241"
"-7.052","-0.75273","0.15173","1.2399","-0.2057","0.27851","0.89411","0.23741","0.10427"
"-17.313","1.3006","-2.142","-1.7048","-0.32618","-0.7737","0.89556","0.24265","0.092404"
"-9.4236","2.1102","-1.7893","-0.51925","0.6015","-0.85546","0.89845","0.21517","0.12467"
"-12.285","-5.8951","2.0625","-1.0338","0.20501","-0.56667","0.8837","0.24501","0.1678"
"-9.8109","-8.0384","-4.8466","0.77651","-0.088728","-1.06","0.87332","0.2869","0.15075"
"-9.0021","1.0809","-2.6949","0.64659","-0.078079","-0.94863","0.86229","0.32499","0.13597"
"-10.581","-2.0127","-1.3355","0.39013","0.010924","-1.148","0.85022","0.35636","0.14625"
"-9.474","-0.046022","-2.6131","0.64249","-0.076176","-1.075","0.83177","0.39804","0.13441"
"-9.1044","0.87592","-2.1866","0.2594","0.13457","-1.0354","0.81575","0.43405","0.12764"
"-9.3712","0.68547","-1.7192","0.53735","0.027875","-0.9938","0.79555","0.47332","0.11104"
"-9.2884","1.7826","-2.2213","0.80393","-0.067554","-0.96248","0.77737","0.5068","0.096067"
"-9.4346","1.1078","-2.3586","0.81783","-0.12372","-0.73712","0.76105","0.53148","0.087663"
"-9.5499","0.52044","-1.8727","0.49969","-0.10388","-0.74063","0.74719","0.55631","0.070621"
"-9.1171","0.88668","-1.1817","0.39417","-0.12157","-0.80949","0.72945","0.58157","0.056953"
"-9.5791","0.43732","-1.7456","0.51435","-0.08805","-0.75994","0.71044","0.60617","0.031183"
"-9.6318","0.54937","-1.6943","0.3913","-0.098417","-0.74588","0.69225","0.62805","0.01839"
"-8.9229","0.43418","-2.1675","0.33214","-0.2254","-0.64448","0.67578","0.64651","0.010499"
"-9.9397","1.0713","-1.2885","0.48547","-0.19862","-0.59996","0.66133","0.66212","-0.004646"
"-10.509","1.8445","-0.24309","1.3558","-0.61654","-0.45787","0.64601","0.67583","-0.042394"
"-8.7948","4.5583","-2.1019","1.5093","-0.60158","-0.16263","0.63517","0.67951","-0.10553"
"-11.491","7.6524","1.3586","0.8901","-0.45969","0.68807","0.63992","0.66752","-0.14535"
"-10.006","2.917","0.17842","0.46165","-0.59341","1.3231","0.66019","0.6388","-0.18011"
"-13.398","-4.6099","-1.5168","0.037799","-0.20646","1.8325","0.69615","0.59357","-0.18928"
"-18.509","-2.1604","-0.42193","1.2754","-0.093653","1.8712","0.73991","0.53133","-0.20997"
"-11.735","-2.5142","-0.83306","0.81502","0.000434","1.845","0.7821","0.45722","-0.23096"
"-10.242","-3.5087","-0.081874","0.36824","0.35924","1.5331","0.81388","0.39522","-0.23394"
"-8.3352","-3.0462","-1.2818","0.2489","0.51501","1.363","0.83336","0.35259","-0.23004"
"-6.8796","-1.3028","-0.83437","-0.39388","0.723","1.52","0.857","0.30292","-0.20806"
"-7.5336","-1.935","-0.87683","-1.0601","0.69074","1.5832","0.87987","0.25384","-0.17484"
"-7.1674","-3.1656","-0.31304","-1.3332","0.64483","1.0638","0.89853","0.21417","-0.13307"
"-6.6669","-1.9028","-0.58941","-0.70857","0.57208","0.36204","0.90575","0.19416","-0.10341"
"-7.5315","-0.55115","-0.098161","0.41809","0.43461","0.27061","0.91077","0.1818","-0.088956"
"-7.704","3.4934","-1.0062","0.86971","0.31094","0.3041","0.91209","0.17069","-0.080249"
"-7.064","10.095","-6.5439","0.62867","1.9785","-0.28502","0.9151","0.1679","-0.045621"
"-10.256","14.076","1.2114","-1.9855","1.0604","-0.37238","0.91177","0.1869","0.025691"
"-8.9313","7.4555","-2.9554","-1.3361","0.49644","0.14627","0.91145","0.17474","0.067036"
"-7.1219","-1.075","-1.7621","-0.46384","-0.052492","-0.23161","0.91158","0.17487","0.080481"
"-13.029","-4.4009","-6.3404","-1.1933","0.30524","-1.1378","0.90797","0.19435","0.08433"
"-13.395","10.968","-0.76856","-1.6637","0.25252","-0.1739","0.91082","0.1685","0.11266"
"-9.7418","-7.2304","1.0499","-0.85849","0.52465","-0.76249","0.8959","0.20166","0.13955"
"-12.987","-8.0378","-2.615","1.4303","-0.2323","-1.0802","0.88819","0.2357","0.13963"
"-8.6241","2.4527","-4.069","0.24531","-0.25748","-1.1509","0.87791","0.27934","0.13906"
