"AccX","AccY","AccZ","GyroX","GyroY","GyroZ","MagX","MagY","MagZ"
"0.05011036769780418","-0.08569651941177324","0.02416587287872389","0.013430049981055792","-0.0077436763391410335","0.0007025244285592753","0.15887470373462584","0.2845354116511977","0.5975916520176363"
"0.049391141655958495","-0.08523117401278231","0.026302169720074237","0.029126719450160078","-0.011471954491523382","0.02122182529575168","0.159571299368728","0.2878335778093184","0.5949440136302941"
"0.05097690509761826","-0.08633013703093498","0.028513848265513217","0.038342158615902615","-0.028229102481981398","0.01620545688741499","0.16149390331884916","0.29431117614386737","0.5823432161201648"
"0.049547118387925033","-0.07950368622252363","0.034052648051686354","0.05723804500391231","-0.04278106656590129","-0.012535640251554398","0.1649490176639944","0.3009470864540062","0.572978421083454"
"0.05054941331370998","-0.08494241057322992","0.035138970691429475","0.011668218214099165","-0.0025569229614012547","0.004037305188063601","0.1694908211983389","0.30705529017884575","0.5666861940518071"
"0.0505465248557106","-0.08664902327533276","0.03466809319739633","0.015700213536511378","0.0012311876173577525","-0.0014481798208204892","0.16910072764324205","0.3117254934587445","0.56441445494168"
"0.050400176317075336","-0.08734392522159375","0.0335797053054864","0.01393934451915418","-0.009034860100349327","0.0006903900105420117","0.1671502598677566","0.3148389623120105","0.5612928565961097"
"0.049758938641212926","-0.0838590283162042","0.03881925005268848","0.008337585974871596","-0.019302343796289444","0.004611505848640505","0.1667880301380237","0.31416613641575386","0.5582693189315521"
"0.0489665383300496","-0.08510652792376687","0.044492497754921076","0.0024564374968344643","-0.0022469909927701637","0.0021404529636049876","0.16773540020040204","0.3153930542265747","0.5571906514404127"
"0.05011903307180233","-0.08456016256691595","0.03959991537174342","0.004196126023004206","-0.01191519310612167","0.0007326177852420883","0.17004809770562035","0.31747749523850705","0.5556707108847162"
"0.04997557299116644","-0.08456224000173287","0.04144625080887336","0.003171856724170787","-0.004461269428117544","-0.0014035251625169598","0.16628648128147014","0.31712129329343003","0.5549679426707919"
"0.05054941331370998","-0.08486762291982065","0.036836607972548945","-0.0003043432544905758","-0.0018844064889276132","0.00038460267650697425","0.168348404358412","0.3204194594515507","0.5544939827125639"
"0.050621624763694494","-0.08510237305413304","0.03776390619544754","0.0010774912455710892","-0.006154287764871476","0.0007855238477973568","0.16845985965986812","0.31970705556139656","0.5581876016973749"
"0.05055037613304311","-0.08494760416027221","0.03807162876830253","0.002123711235271508","-0.008745031826980791","-0.000554843966389558","0.16712239604239235","0.31970705556139656","0.5562100446302858"
"0.05040402759440784","-0.08634364035724494","0.03805923725530166","0.0022894967162933283","-0.005695014060004244","0.0016628422704455003","0.1687106340881449","0.32059096409177296","0.5544939827125639"
"0.05026249315243821","-0.08479491270122834","0.04022155627395384","0.0002121719056035391","-0.008341761273202113","-0.0009756655832282524","0.17046605508608176","0.3206041567564054","0.5536768103707917"
"0.05033470460242272","-0.08487073907204602","0.03914349464287796","0.0015767731878354098","-0.011243633952470052","0.0033854442521762122","0.16940722972224673","0.32059096409177296","0.5540853965416778"
"0.0504059532330741","-0.08479179654900293","0.038375220836823896","0.0024623102693909866","-0.00698524050239051","0.0014320456397571505","0.16414096672843645","0.3205777714271405","0.5531211331783865"
"0.049685764371895286","-0.08463598893773368","0.04004807509194162","-0.0006699955523540331","-0.011313278896772484","0.0007719332996180217","0.1663700727575623","0.32196300121355115","0.5535624062429435"
"0.05033470460242272","-0.0846380663725506","0.03929838855538886","-0.00031493350008430425","-0.002287437713000785","0.001701429719740398","0.16723385134384877","0.32197619387818366","0.5516338795163609"
"0.050911433382965644","-0.08479387398381988","0.03777629770844841","0.00021467505456205678","-0.007048662874349768","-0.000535671585922282","0.1702710083085332","0.3223323958232606","0.552549112539146"
"0.051262862439556904","-0.08741455800536914","0.026666893252733238","-0.014577298615958002","-0.038942218089574876","-0.0015413721511930722","0.17227720373474653","0.3202875328052258","0.550473494791044"
"0.051559410794159946","-0.0855749894749832","0.0388750118611924","-0.02182584035006535","-0.02202687316377697","-0.009726522480557921","0.175760181905256","0.31822947712255856","0.5512416367923102"
"0.04839462364617231","-0.08200284030728285","0.046340898444217835","-0.019661579250547047","-0.01920158599027115","-0.009686964277821643","0.17567659042916384","0.3149313109644379","0.5530394159442092"
"0.05055037613304311","-0.08510548920635841","0.0393045843118893","0.003917795113809035","-0.011635416680384413","0.00424407567107777","0.17667968814227067","0.31701575197637016","0.5525817994328167"
"0.05055133895237624","-0.08479699013604526","0.04084939293266469","0.007465142287868265","-0.015000870999218706","0.005955271299872254","0.1768468710944553","0.31669912802519057","0.5478421998505372"
"0.0498301872718643","-0.08463702765514214","0.040207099508786155","0.01427053038135805","-0.011691659161178473","0.017797007154559258","0.18027412161423656","0.3172532199397548","0.5459627034644609"
"0.055586884064629166","-0.08835875212966098","0.022035771793873976","0.006912524017795531","0.02633256579030457","-0.006330098877525898","0.18292118502382385","0.31916615631146483","0.5440178332910427"
"0.04997461017183331","-0.08510548920635841","0.041134397731684744","0.005431333759072704","0.0011632179809938686","-6.194390652831862e-05","0.1778778326329261","0.3189682663419775","0.5448023187391442"
"0.0504059532330741","-0.08486970035463758","0.038375220836823896","0.0011774246539919078","0.0015521287524421497","-3.864582393517319e-05","0.1767354157929989","0.3208416247197901","0.5479729474252208"
"0.05098364483295015","-0.08463910508995906","0.03808815078563703","0.0024841646852980445","-0.00017367775396619076","-0.0009431453429419864","0.1739211694312273","0.32101312936001236","0.5461915117201571"
"0.050111330517137315","-0.0888261749634688","0.03865196462717671","0.0029409893702275086","-0.02405471375853468","0.005491493843252447","0.1744505821131445","0.3230711850426797","0.5478748867442081"
"0.05372286583569577","-0.08574014554292861","0.03849087495816537","-0.02864210751402869","-0.07667972605386096","-0.01468852869617727","0.1804970322171491","0.3210790926831748","0.5398339109011684"
"0.04954422992992565","-0.08448952978314053","0.04544251375165461","0.009773141902581446","0.01304450188116522","0.002191660207637839","0.18637629936896938","0.3190210370005075","0.5421546803518019"
"0.050260567513771955","-0.08433995447632203","0.0421071315022532","0.012268973964143393","0.028457813575203484","0.009740724344537743","0.1818066320092606","0.3204854227747131","0.5413048211163586"
"0.0527090170779133","-0.08394628057851498","0.0323240319880647","0.003599413821277584","0.01594445992278911","-0.010734164552711475","0.17849083679093575","0.32234558848789313","0.5446388842707898"
"0.04953845301392689","-0.08495695261694838","0.04238594054477283","0.0014934953474847277","-0.00826948370213911","0.0012262459101843634","0.17550940747697955","0.3238627449206286","0.5477931695100309"
"0.05033181614442334","-0.08456847230618363","0.03979404907542375","0.00030863941546641023","-0.0004182727129939707","-0.002234975485059847","0.17113478689481965","0.32332184567069683","0.54794026053155"
"0.050547487675043724","-0.08464741482922673","0.039955138744435084","0.0011522006144868457","-0.003979259401227182","0.001684441534516229","0.17002023388025642","0.324693882792475","0.5481036949999044"
"0.05011614461380295","-0.08457158845840905","0.04225376440609686","0.0019450249096173281","-0.0061775027463056185","-0.0014032824741566148","0.17316884614639694","0.3224775151342179","0.546256885507499"
"0.05025960469443883","-0.08464949226404365","0.041797343677231404","0.001749297916053239","-0.007387553737347162","0.002539189939652263","0.17358680352685804","0.32523478204240686","0.5472865226581319"
"0.05040402759440784","-0.08425997323587048","0.04026079606512326","0.0005581841116386276","-0.003393380282146942","-0.0009407184593385342","0.17160847192600895","0.3250632774021846","0.5461751682733218"
"0.05033181614442334","-0.08457158845840905","0.04133679244403232","0.001400204911299975","-0.009106898341706821","0.002528754340157416","0.17041032743535356","0.3245223781522527","0.5483161598087651"
"0.05040402759440784","-0.08480529987531293","0.041801474181565025","0.00045950227769706785","-0.005942959634909118","0.0003603338404724474","0.16879422556423707","0.32693663577999715","0.5478095129568664"
"0.05025960469443883","-0.0846484535466352","0.04117983327935461","0.0014201338280081732","-0.008318785621473476","-0.0009773644017506693","0.17138556132309613","0.32712133308485186","0.5478585432973727"
"0.050547487675043724","-0.08480322244049601","0.04026286131729007","0.004372405474659811","-0.007203030534401547","-0.00011339383892151552","0.17545367982625132","0.3263033878776379","0.5449330663138279"
"0.050691910575012745","-0.08488424239835604","0.041502012617377286","0.002537404738146515","-0.011712959504968564","0.0005246338604261937","0.17431126298632413","0.32662001182881756","0.5474826440201576"
"0.05141306225552468","-0.08527583886134617","0.041679624303723115","-0.008800223369619239","-0.0044509782507807585","-0.006168468429535949","0.17208215695719795","0.32574929596307367","0.5472538357644613"
"0.05184247967809921","-0.08557810562720856","0.0361406179923333","-0.021923078059607765","0.013879762553383376","-0.016504808385001256","0.1629149584124171","0.3265540485056551","0.5507186464935757"
"0.05112325363625353","-0.08527064527430388","0.0398188321014255","-0.022815546938279238","0.0064019059048285865","-0.014785361351955033","0.16232981807977137","0.3237572036035688","0.5542324875631969"
"0.04962414393457518","-0.08516261866382384","0.039019579512869246","0.058549309958335766","-0.009110129292731164","0.0014763823763086275","0.18584688668705185","0.30706848284347815","0.5547881647556021"
"0.050352998169752125","-0.0849341008339622","0.03821206591564575","0.012253569970552512","-0.005149318398478567","0.0027328552512077865","0.17520290539797453","0.3206041567564054","0.573713876191049"
"0.051095331875592856","-0.08630313037831495","0.040180251230617595","0.015558689345395192","-0.002775430982528813","-0.002041552861864669","0.18601406963923617","0.32462791946931263","0.55673303492902"
"0.05125419706555877","-0.08469000224297368","0.039120776869043035","0.013700582618495579","-0.004097727605452967","-0.0011921436006562315","0.201506356541663","0.3030974907891009","0.5821144078644686"
"0.0516296966054782","-0.08492267494246915","0.03789195182978988","0.00704316913843816","-0.009673391754641025","0.00043932890176483203","0.1569799636098686","0.3342981426449225","0.5625839888961099"
"0.048587187512797655","-0.0848426937020176","0.026544630324457964","0.002602486611067973","-0.004238214142585362","-0.0022665249719047323","0.15870752078244152","0.30714763883127305","0.5386571827290163"
"0.05064184396969015","-0.08468273122111447","0.038887403374193275","0.0049141446742589886","-0.009306595047981559","0.0015334044334553516","0.1511285602834126","0.3502612668502266","0.5541507703290197"
"0.050414618607072234","-0.08478971911418601","0.04677873190358198","0.0030118477407455454","-0.010914794937103936","0.001103268437346606","0.12362696464906936","0.30894184122129065","0.5399483150290167"
"0.049730054061219116","-0.08454354308838057","0.0390980590952081","-0.0020018633482052892","-0.00531065055296059","0.001165384523176977","0.1825868191194549","0.29028741343096015","0.5760673325353535"
"0.05557436741329851","-0.08746130028874992","0.04102493936684371","0.0014332657325443962","-0.009034261776085559","-0.00012625632201981475","0.19272925155197895","0.330050104633263","0.5683205387353517"
"0.04987929105785376","-0.0856425061065332","0.04002742257027351","0.0006458665314067012","-0.0019889935702340125","-9.64541913694158e-05","0.14820285862018456","0.3108679702576332","0.545161874569524"
"0.05040884169107348","-0.0820423115688044","0.021961422715868748","0.0032141214315857575","-0.008495841737607283","-0.00019105411423200124","0.19428962577236694","0.3298785999930408","0.5545756999467412"
"0.050922024395630046","-0.08516469609864075","0.04119015954018867","-0.0008293306110596735","-0.03742965435077293","0.0013066849672208024","0.19373234926508548","0.3195751289150717","0.5561119839492732"
"0.04993898585650763","-0.08476582861379141","0.03810673805513834","8.17578448647715e-05","-0.023954913271338415","-0.0012610670949942874","0.20654970893256044","0.32357250629871404","0.5265630320707859"
"0.05384610671033599","-0.08450614926167592","0.03764412156977244","0.0016226963437282137","-0.021613550762367012","-0.008801151762561415","0.16689948543947983","0.32845379221273263","0.5484632508302842"
"0.04942195187461856","-0.08849482411016947","0.038804793287520796","-0.0007045582629735649","-0.011379094565786809","-0.008320143432357095","0.22181908523207441","0.31449595303156586","0.5339339265935723"
"0.050239385488443165","-0.0849289072469199","0.038445439410495504","-0.00048649547870270376","-0.013064933011375542","0.0032416756675076757","0.17988402805913942","0.31585479748871165","0.5157927006062267"
"0.052591553119271835","-0.0848312678105245","0.0452008792481376","-0.0006971450910579552","-0.012326361540182067","0.005018736917299866","0.13591491163462682","0.3184801377505757","0.5466491282315498"
"0.0495567465812563","-0.08452484617502826","0.042222785623594675","-0.014093998317044217","0.02840276774293696","0.01659982547297605","0.17478494801751343","0.3406438143331467","0.559544107784717"
"0.05042617243906976","-0.0888749946816665","0.032237291397058596","-0.02311592481330135","0.0007403223913636447","-0.007890342346185625","0.22037016631314255","0.31994452352478125","0.5241115150454689"
"0.05045024292239793","-0.0857515714344217","0.04228267793643223","-0.019492135321047394","0.004621292895859229","-0.004751653781840276","0.14162699583426247","0.3298258293345108","0.5381995662176239"
"0.05007570620181162","-0.08453523334911285","0.039872528657762606","0.005311952808743402","0.000992815230673144","-0.0014729340335757064","0.2098655041508859","0.3222004691769358","0.5720141577201627"
"0.05018450478645495","-0.08453211719688748","0.04001916156160626","0.005597311790014411","-0.02305144363305087","-0.0006318975207991806","0.2075806704710312","0.2895618168761736","0.5485122811707905"
"0.05021050090844937","-0.0838257893591334","0.04223517713659555","0.014446713558053714","-0.07996811620752212","0.001420136921915008","0.14700471412952948","0.3389287679309239","0.5487737763201578"
"0.05031929949309269","-0.08499019157401916","0.041828322459733586","0.0077459763460219514","0.015229103433029781","-0.015346699529433638","0.21945066007612787","0.3313561784318788","0.5529740421568674"
"0.04873353605143292","-0.08469000224297368","0.03462885340622691","0.004723712803491763","-0.003908417808397219","0.004647666414331951","0.14725548855780596","0.3150104669522327","0.6061229312657395"
"0.05014406637446363","-0.08467961506888905","0.033536335009983355","0.0006832356571085709","-0.012377578097160488","-0.0030072098476784906","0.17213788460792617","0.34688394470431094","0.5557851150125641"
"0.0500063832098265","-0.084490568500549","0.038916316904528646","0.0006889447622331899","-0.005034775201423092","0.0019146799819757848","0.21081287421326422","0.33857256598584684","0.5842063690594056"
"0.05059562864170007","-0.0874644164409753","0.044195101442900155","0.0012749993258941229","-0.006090458532412857","0.0050197076707412455","0.13296134614603486","0.32508966273144957","0.5238827067897726"
"0.05065724907902018","-0.08559368638833549","0.039787853318923316","0.0029162467055221615","-0.014368083257859163","0.0016777918734427687","0.12872604469069504","0.30399459198410966","0.5521895567087659"
"0.050458908296396064","-0.08193428495832437","0.041683754808056736","0.0006400823318133267","-0.009240204987674017","-0.001765130819431409","0.10253404884846332","0.3004325725333393","0.5712950460594031"
"0.05034336997642086","-0.08506186307520304","0.03684899948554982","0.0012592006049674791","-0.012578615049786059","-0.00725110120503619","0.22597079521132177","0.3317519583708533","0.5563081053112986"
"0.050332778963756465","-0.08490190059429989","0.0381005422986379","0.0013686363519346703","-0.003109295921710568","-0.009789864142608037","0.17339175674930976","0.323216304353637","0.5587105919961092"
"0.05048586723772362","-0.0846515696988606","0.03786303829945452","-0.0006815485475471915","-0.005558356798159956","0.004380951906312501","0.16578493242491657","0.33421898665712757","0.5435602167796503"
"0.05046083393506232","-0.08842315260898562","0.03786097304728771","-0.0004251683292190222","-0.03731716938918482","0.006193348581370961","0.17562086277843564","0.31421890707428374","0.5325610770593947"
"0.04947201847994114","-0.08505666948816071","0.0400253573181067","0.001575329063436265","-0.015995525255304278","0.016749806879669427","0.20836085758122552","0.32164637726237155","0.525909294197368"
"0.050281749539100744","-0.08473155093931217","0.039331432590057856","-0.01472171105587248","-0.020665326469149727","-0.006431785300510566","0.2058531132984586","0.34202904411955737","0.5570762473125646"
"0.05084018475231426","-0.08442928417344978","0.038358698819489404","-0.022506504316862255","-0.013223847935831945","0.0037228538795642373","0.21875406444202605","0.3112241722027102","0.5443283587809162"
"0.051313891864212625","-0.0887534647448765","0.04034753665612937","-0.019903229400003938","-0.01740421990191633","-0.004200993892216864","0.14614093554324303","0.30817666667260674","0.576933535217632"
"0.051680726030133926","-0.08561446073650472","0.03962263314557835","0.00384924734232963","-0.014285993168870388","-0.0031817027787667384","0.19345371101144473","0.31245109001353105","0.5014758411783756"
"0.04852845553347693","-0.0844552521086613","0.03799314918596367","0.007673866401024656","0.024267150431782316","0.0020623801180819153","0.15831742722734438","0.3319234630110756","0.5331984714859772"
"0.05056866970037252","-0.0843056768018428","0.02669518720741856","0.014829887898626794","0.0010682040879077344","-0.01552920117641328","0.16252486485731993","0.3261186905727832","0.5482998163619298"
"0.050529194107714316","-0.08381332475023189","0.03874490097468325","0.007338733265463125","0.0034387648209509465","0.0047333354055338304","0.16400164760161606","0.33041949924297254","0.5141093255821756"
"0.04989758462518317","-0.08497461081289223","0.04664655576490601","0.005414870740922453","-0.0007923450427008414","0.007524736926225102","0.13410376298596205","0.3584671042516308","0.5655094658796548"
"0.05543764706799452","-0.08449783952240825","0.039025775269369685","-0.0005443567296284377","-0.025364086577361476","-0.00887274482886327","0.14104185550161705","0.31212127339771906","0.5549025688834502"
"0.04989373334785066","-0.08480737731012986","0.04102493936684371","0.003411773924348706","-0.07396333389636067","-0.0003784580660906171","0.17718123699882424","0.32313714836584206","0.532381299144205"
"0.050449280103064806","-0.08453938821874674","0.04016785971761672","0.002833739064851023","0.014636283752489846","-0.00204300899202674","0.12075699063656957","0.32158041393920916","0.5537748710518043"
"0.05078626686965917","-0.08466922789480445","0.021643167356963016","-0.028803849446732907","0.029991916987501005","0.001515156695640991","0.1801905301381444","0.3154458248851047","0.5508984244087657"
"0.050127698445800464","-0.08420699864803893","0.04119015954018867","0.009524174856168886","0.01893249129603944","0.00013235239476410272","0.17634532223790172","0.35783385634927156","0.5599036636150968"
"0.053777746537683996","-0.08464429867700135","0.03840619961932608","0.012563575341568925","-0.00848272646974552","0.0030653383048808037","0.25506062889141756","0.3222004691769358","0.5429064789062324"
"0.04951823380793123","-0.08474920913525602","0.038129455828973265","0.002529799016311019","0.0012536846096753754","-0.0012836371125063977","0.2473144854402043","0.3176753852079943","0.533263845273319"
"0.050295229009764526","-0.08457574332804288","0.038792401774519925","0.0013476580381630938","-0.0042942172936739145","0.005645600952071692","0.20766426194712367","0.32685747979220225","0.5460444206986381"
"0.05280433619189285","-0.08502135309627301","0.03885435933952429","-0.0008054544209938134","-0.005746517812629272","-0.0006330624249288377","0.17511931392188237","0.3240870202193809","0.541174073541675"
"0.04958466834191697","-0.08483334524534142","0.04575849733317684","0.002095117572168441","-0.010470838333389132","-0.002885380290785166","0.16107594593838806","0.3401029150832149","0.5365325346404083"
"0.05016621121912554","-0.08513561201120382","0.042152567049923075","0.001239618278115076","-0.0049157326059040924","-0.00160301499472077","0.17467349271605734","0.3205777714271405","0.5428411051188906"
"0.05057348379703816","-0.08550851156084163","0.03214642030171887","0.001343508587389551","-0.010664934724555012","0.0029641857962888958","0.18520601870367823","0.35060427613067113","0.5692030848644658"
"0.050257679055772574","-0.08538074931960084","0.04264203181345752","0.0005183137624774392","-0.007582152720894606","-0.004655063814422859","0.23321538980598178","0.3354986751264784","0.5750867257252266"
"0.050356849447084635","-0.0850930245974569","0.03969285171924996","0.002737752929787867","-0.009623132516484632","-0.013639144226044331","0.1269427598673942","0.32114505600633725","0.5405039922214218"
"0.05036936609841528","-0.08498499798697687","0.03971143898875127","-0.00032563927562996424","-0.004512485985095964","-0.014594122924002964","0.1319861122582923","0.3405514656807192","0.5169367418847078"
"0.050352035350418996","-0.0862719688560611","0.04254289970945054","-7.714397652112532e-05","-0.009437412665011484","0.0037332409413870157","0.2050729261882643","0.31617142143989124","0.5647740107720598"
"0.050355886627751506","-0.08463598893773368","0.04208234847625147","0.00489325300795136","-0.0023250124767653264","0.0010685470136320083","0.1696022764997953","0.3413166402294033","0.5258766073036971"
"0.05031929949309269","-0.08500161746551226","0.0403351451431285","0.002463273018990416","0.012551482687821556","-0.004189102162559946","0.19462399167673589","0.30656716158744385","0.5437890250353465"
"0.050710204142342154","-0.08504732103148457","0.04119842054885592","-0.008464127484458277","0.004569597679469794","-0.0007310599848362571","0.18423078481593566","0.31561732952532695","0.5131940925593906"
"0.050891214176969984","-0.08479491270122834","0.04176016913822879","-0.02241504310491642","-0.009163428018147488","0.0020517503678987923","0.1773205561256446","0.33449603261440974","0.5630742923011735"
"0.051313891864212625","-0.08478348680973526","0.04089276322816774","-0.023165025042872277","-0.002384605573436478","-0.0024703831945947574","0.1813886746287995","0.3063560789533241","0.5480710081062334"
"0.05175582593811781","-0.08476998348342524","0.04015133770028223","0.05901913176285753","-0.004557479969731211","-0.0015726789496776116","0.18935772868292558","0.3031898394415282","0.547172118530284"
"0.05108185240492908","-0.0875620558773707","0.04164658026905413","0.011011622987288005","-0.003363464068958613","9.733246436628056e-05","0.19702028065804636","0.2975697643080906","0.5501466258543352"
"0.04973775661588413","-0.08572040991216784","0.041820061451066336","0.015674219297326774","-0.0037468702571802404","0.0039642559915996755","0.20189645009675983","0.3632164635193246","0.5388859909847126"
"0.05037803147241342","-0.08208074411291749","0.03627279413100927","0.016137301854652533","-0.002363783889057401","0.000735918346942784","0.20256518190549772","0.28618449473025803","0.5443937325682581"
"0.05121472147290057","-0.08516157994641538","0.04001709630943945","0.005279219322362788","-0.006240805453412124","0.0053089921962728055","0.1613545841920288","0.28472010895605243","0.5829642670999117"
"0.0511328818295848","-0.08494552672545529","0.03904229728670418","0.002749498474900911","-0.012387869274497273","0.0031957832985663854","0.1122863877258899","0.3347071152485295","0.5642510204733255"
"0.05177123104744784","-0.08456535615395826","0.03840413436715927","0.004974123974303468","-0.008022782641702872","0.001805737177016794","0.20440419437952673","0.3266463971580825","0.5846803290176336"
"0.048782639837422384","-0.08838679749968946","0.03983948462309361","0.002034849447244133","-0.007480964121406401","-0.004338840880892976","0.2248841060221228","0.32915300343825427","0.5882105135340902"
"0.0506148850283626","-0.08487073907204602","0.03906914556487273","-0.0031023824153135517","-0.005449748977801046","-0.01023592534892264","0.17645677753935815","0.3297730586759809","0.5439361160568654"
"0.050357812266417765","-0.08492267494246915","0.037726731656444926","0.000870817789061483","-0.010799677348755247","-0.010214083396491566","0.2329088877269768","0.32454876348151773","0.5579587934416786"
