"AccX","AccY","AccZ","GyroX","GyroY","GyroZ","MagX","MagY","MagZ"
"0.05112614209425291","-0.08465572456849445","0.04275355543046536","0.00123942572819519","-0.007228878142596264","0.0003387345764017186","0.16999237005489246","0.33751715281524824","0.541974902436612"
"0.051131919010251665","-0.08374269196645645","0.053404060854714906","-0.0011557990002263362","0.0013857946071150385","-0.007050640619390998","0.166983076915572","0.3362770423397949","0.5441158939720555"
"0.051700945236129586","-0.08449576208759133","0.03876348824418455","-0.0008545546505647359","-0.006767211140673966","0.002981610820561686","0.16483756236253827","0.3371477582055387","0.5418931852024347"
"0.05083729629431488","-0.08465572456849445","0.04366846214036309","-0.0002528361509210789","-0.006973513346820685","0.0029871926528496277","0.16358369022115465","0.3367783635958292","0.5436092471201566"
"0.05083633347498175","-0.0849642236388076","0.0424334413446095","0.001918741845552893","-0.010822653000483884","0.002508611206248759","0.16979732327734387","0.3361187303642051","0.5430862568214223"
"0.05126863935555567","-0.0849642236388076","0.04152266513904541","-0.0003459340371859454","-0.008665335035047081","0.0042882449526606085","0.1658406600756451","0.33801847407128255","0.5412394473290169"
"0.05083633347498175","-0.0849642236388076","0.0424334413446095","0.0009016931687151983","-0.007050338182288314","-0.0014105631249669724","0.16826481288231954","0.33801847407128255","0.5430208830340805"
"0.051269602174888795","-0.08512210868489381","0.04275562068263218","9.423507967338233e-05","-0.009551094275127136","0.0027432908507026327","0.1643360135059847","0.3364617396446496","0.5406020529024345"
"0.051269602174888795","-0.08512210868489381","0.04275562068263218","3.367812986924478e-05","-0.006203589684205843","-0.0014042532275979956","0.16425242202989254","0.3364617396446496","0.5399646584758521"
"0.051269602174888795","-0.08481153217976373","0.04306747375982079","0.0012547334468261248","-0.005995851499826083","-0.002288609612696152","0.16592425155173726","0.33818997871150486","0.5418931852024347"
"0.05112614209425291","-0.08465572456849445","0.04275355543046536","1.56747123599066e-05","-0.011306577665018297","0.0007576146863576509","0.16623075363074194","0.3387044926321717","0.5416643769467385"
"0.05076604766366351","-0.08465572456849445","0.04397411946105127","0.0003774760118256445","-0.006836856084976396","-0.001185591014926909","0.16681589396338767","0.3385461806565819","0.5403895880935737"
"0.05083729629431488","-0.08465572456849445","0.04366846214036309","-0.0001539617670596331","-0.010680969814823957","-0.00011169502039909864","0.16528338356836364","0.3378469694310603","0.5397358502201558"
"0.05112614209425291","-0.08481153217976373","0.04306127800332036","-0.0010269831038226221","-0.00700869481353016","0.0016713363630575847","0.16263632015877635","0.3381635933822399","0.5420402762239538"
"0.05112517927491979","-0.08512106996748535","0.042904318838642645","-0.00015328784234003228","-0.009171996021604628","0.00033460887427584895","0.1658963877263733","0.33750396015061573","0.541468255584713"
"0.05126863935555567","-0.0849642236388076","0.04152266513904541","0.00018714041601836302","-0.00870458510675017","0.0020897310962928266","0.16283136693632494","0.33937731852842834","0.5411577300948397"
"0.05112517927491979","-0.08496630107362456","0.04306127800332036","0.0004597911025768967","-0.007892778745671668","-0.00031919356849430285","0.1643917411567129","0.33800528140665015","0.5414355686910423"
"0.05112517927491979","-0.08496630107362456","0.04306127800332036","0.00020071518537032393","-0.0035917846080119422","0.00037004137488625815","0.1658963877263733","0.337319262845761","0.5414845990315486"
"0.051269602174888795","-0.08496733979103302","0.04306540850765398","0.0015810092860729012","-0.009144233775765858","0.0009806452895149522","0.16508833679081475","0.33801847407128255","0.5410106390733206"
"0.050980756374950774","-0.08512106996748535","0.04305508224681992","0.002196591379948348","-0.004855206123381465","0.0005705019605314494","0.16246913720659173","0.33851979532731696","0.5409616087328143"
"0.051414025074857816","-0.08512314740230226","0.04306953901198761","-0.0005081573446898753","-0.00742608581993373","0.0021013801375893994","0.1674010342960331","0.3378469694310603","0.5419258720961057"
"0.05054941331370998","-0.08457678204545134","0.04365813587952903","0.000885133875605005","-0.005700518643230897","0.0016747340001024183","0.16712239604239235","0.3385461806565819","0.5397521936669911"
"0.05054941331370998","-0.0845778207628598","0.044275646277405815","0.0018540450724712071","-0.00789900131801484","-0.001419057217579057","0.16645366423365476","0.33906069457724874","0.5405857094555989"
"0.050693836213679","-0.08465468585108599","0.04350943772351856","0.002459422020592697","-0.009171996021604628","-0.0009941098986144927","0.16519979209227117","0.3387044926321717","0.5420729631176247"
"0.05112614209425291","-0.08488943598539837","0.043523894488686245","0.0011392034948945425","-0.007829595703417916","0.0025306958470401784","0.1670388045663002","0.33836148335172717","0.542121993458131"
"0.051269602174888795","-0.08496733979103302","0.043220302420164884","0.0014255252257649805","-0.004475150551036929","-0.0014010982789135072","0.1622462266036792","0.3400897224185824","0.5394089812834468"
"0.05148623652484231","-0.08496837850844148","0.04307366951632123","-0.0010154301086294638","-0.011363059475517865","-0.0014353173377221898","0.1676796725496741","0.33940370385769325","0.541468255584713"
"0.051269602174888795","-0.08496733979103302","0.04306540850765398","0.002111580590318692","-0.008312323719424797","-0.0005533878362274861","0.16575706859955294","0.33801847407128255","0.5406020529024345"
"0.051269602174888795","-0.08488943598539837","0.042757685934798985","-0.0005024771220532392","-0.006799041991506348","0.0012289154821481612","0.16754035342285345","0.33803166673591506","0.5401934667315483"
"0.05112517927491979","-0.08496630107362456","0.04306127800332036","-0.0008454085293701522","-0.01134558840701588","-0.0007735061790606445","0.16611929832928582","0.33733245551039354","0.5404059315404092"
"0.050981719194283896","-0.08481049346235527","0.04305508224681992","0.0014223481520868617","-0.007046987566411221","-0.001415416892173878","0.16664871101120335","0.33768865745547055","0.5386898696226873"
"0.050981719194283896","-0.08481049346235527","0.04336487007184173","0.0003528296220802403","-0.005664140527993889","0.0038686367776236408","0.16578493242491657","0.3387308779614367","0.5379871014087629"
"0.050981719194283896","-0.08488839726798991","0.04351769873218581","0.0008961092210385052","-0.00875939160931119","-0.0009846450525610275","0.1674567619467613","0.3401029150832149","0.5399319715821811"
"0.051269602174888795","-0.08512210868489381","0.04291051459514308","0.0009027521932745712","-0.00598125238779018","-0.00140813624136352","0.16762394489894591","0.33768865745547055","0.5406347397961054"
"0.05112614209425291","-0.08457885948026826","0.04306334325548717","0.0005381589199704867","-0.00419704943323822","0.0021195817646152944","0.1685434511359606","0.3387308779614367","0.5395560723049659"
"0.051269602174888795","-0.08496733979103302","0.04337519633267578","0.00036005024407596424","-0.005692620762949178","0.002548412097345383","0.169435093547611","0.3409736309489587","0.5412394473290169"
"0.05127056499422193","-0.08481257089717219","0.04337519633267578","0.0014703893570984113","-0.006040845484461331","0.006051133202208635","0.16634220893219837","0.33888918993702644","0.5395070419644594"
"0.05112614209425291","-0.08488943598539837","0.04367878840119714","0.00010617317470631257","-0.007445471526079768","0.0007835823409145946","0.16567347712346048","0.3402612270588047","0.5403242143062319"
"0.050981719194283896","-0.08465572456849445","0.04351976398435262","0.0012256584089233432","-0.006102831878187549","0.0029820961972823767","0.16611929832928582","0.3385461806565819","0.5405857094555989"
"0.05090950774429939","-0.08465572456849445","0.0436705273925299","0.0009079510411114924","-0.004495254246299487","-0.0022723494925530187","0.16898927234178562","0.33958840116254807","0.5401934667315483"
"0.05076604766366351","-0.08481153217976373","0.04412901337356217","0.00018059371874224007","-0.007398323574094961","0.002982581574003067","0.1689614085164217","0.3404591170282919","0.5401771232847128"
"0.05112614209425291","-0.08465676328590291","0.04337106582834216","0.0003705442147097496","-0.006593697104181656","0.00034844211081552936","0.16759608107358165","0.33820317137613737","0.5406347397961054"
"0.05083729629431488","-0.08465468585108599","0.0433607395675081","0.0012280652829219179","-0.006110490428763761","0.002544771771940204","0.16664871101120335","0.33958840116254807","0.5392782337087632"
"0.05112517927491979","-0.08496630107362456","0.04306127800332036","0.00021486760448194268","-0.004507220731574817","-0.002489798263422379","0.16742889812139733","0.3401029150832149","0.5397195067733204"
"0.051269602174888795","-0.08512314740230226","0.04352802499301987","-0.0004963155246168882","-0.008765374851948856","-0.0005400399764084966","0.16951868502370315","0.33941689652232576","0.5415009424783841"
"0.051414025074857816","-0.08496837850844148","0.0433793268370094","0.0012485718493897735","-0.005112724886506603","-0.0009669288022558228","0.16926791059542637","0.340788933644104","0.5427593878847135"
"0.051269602174888795","-0.08512210868489381","0.04306540850765398","0.0005267021997372714","-0.006093258689967284","0.0038615988151736278","0.16976945945197963","0.3399446031076251","0.5406347397961054"
"0.050981719194283896","-0.08465572456849445","0.04336487007184173","0.00019609398729306064","-0.007023293925566065","0.00034819942245518405","0.16238554573049957","0.33973352047350536","0.5405039922214218"
"0.05119739072490429","-0.08512314740230226","0.04352595974085306","0.0007922285392600244","-0.009343595420452884","0.0020829358222031595","0.16603570685319366","0.33767546479083804","0.5397521936669911"
"0.050981719194283896","-0.08481049346235527","0.04336487007184173","-0.0002554355748395394","-0.0056696451112205415","0.0038725197913891648","0.16592425155173726","0.33975990580277027","0.5392618902619278"
"0.05128885856155134","-0.08453315591429593","0.04334834805450722","-0.0017983380828858187","-0.008402814281076856","-0.00385856061576969","0.19272925155197895","0.3390475019126163","0.5433967823112958"
"0.051157915132246094","-0.08493929442100454","0.043102583046656595","0.002757296746656293","-0.01859081658181822","-0.0027987405461419052","0.15307902805889803","0.3401424930771123","0.5351923719999017"
"0.05139380586886215","-0.08510652792376687","0.04293116711681119","-0.001111319968732677","-0.00533264495289665","0.0039060107851168115","0.23240733887042353","0.34654093542386644","0.5664083554556044"
"0.05049742106972114","-0.08499746259587837","0.04303649497731861","0.0012000107595945319","-0.012457274889094197","0.0005692399810576541","0.19147537941059534","0.3238099742620988","0.5621754027252238"
"0.050578297893703786","-0.0850140820744138","0.043007581446983245","0.0009316057987694839","-0.008269196506492502","0.0014732783921798116","0.13624927753899577","0.337292877516496","0.5379380710682566"
"0.050714055419674664","-0.0850379725748084","0.04353422074952031","0.0012794664840354777","-0.008211924907964763","0.0031899102402460295","0.148314313921641","0.33361212408403335","0.5527125470075004"
"0.05112903055225229","-0.08475959630934062","0.044104230347560426","0.00030010945401546174","-0.013396404653502229","-0.0007837233590311803","0.16545056652054796","0.362543637623068","0.5555563067568681"
"0.0513273713348764","-0.08512937970675305","0.043600308818858284","-0.0004499109939243694","-0.0093423748389548","0.0008987622367344587","0.19331439188462438","0.3680317861101807","0.5292597007986345"
"0.05156903898749122","-0.08521351581683846","0.04332149977633867","-0.001000603764798244","-0.0017968118167121846","-0.0028489770367333763","0.14530502078232052","0.3543641855509287","0.5399646584758521"
"0.051336036708874544","-0.08451445900094363","0.04309432203798935","-0.000189660522206492","-0.008383835435430179","0.0017831914283407185","0.16611929832928582","0.35011614753926923","0.5536768103707917"
"0.05130618930954761","-0.08443759391271745","0.043123235568324716","-0.0008086314946719318","-0.007946125337029096","-0.0009951049208919086","0.15845674635416473","0.34606599949709704","0.5257622031758491"
"0.05102793452227398","-0.08454769795801441","0.04306127800332036","-0.0011619605976626874","-0.00641273991384809","0.0015803282279281093","0.1877416268118091","0.3456174488995926","0.5341627348492685"
"0.05107222421159781","-0.08486139061536989","0.04275149017829855","4.8042353892738104e-05","-0.006609827926332803","-0.0016639297731674322","0.11563004676957933","0.3416728421744803","0.5449657532074986"
"0.051000975580946434","-0.08506913409706227","0.043414436123845206","0.000400485727252018","-0.007476105728384617","0.005149060566805274","0.15137933471168938","0.33975990580277027","0.5235068075125574"
"0.05110977416558976","-0.08508055998855535","0.042757685934798985","-0.00024739661568430013","-0.010712800665656339","0.0004705386249052335","0.12384987525198189","0.34168603483911286","0.5403405577530672"
"0.0511222908169204","-0.08492059750765223","0.04372009344453339","0.0007379679718361578","-0.009497723750799157","-0.002412866053192929","0.1554195893894803","0.333875977376683","0.5197968450809111"
"0.05104719090893652","-0.08484684857165142","0.0437056366793657","0.00363185848277837","-0.0031416054319539626","0.009295391203304177","0.18902336277855664","0.3529921484291505","0.5356336450644587"
"0.0511473241195817","-0.08498811413920224","0.04277833845646711","-9.04106660012687e-05","-0.014105538570918388","0.0021980671803509544","0.1475898544621749","0.3300632972978955","0.5265303451771151"
"0.051316780322212006","-0.08487593265908837","0.04292084085597714","0.00011671528282006938","-0.007776273045031037","-0.0038439993141489745","0.2002246205749151","0.3273456083836041","0.5444427629087644"
"0.051026008883607726","-0.08483334524534142","0.043273998976502","0.0009847688316500002","-0.005436250782410471","0.0015494339996561565","0.17255584198838728","0.3464353941068066","0.5413701949037004"
"0.05115117539691421","-0.08488424239835604","0.04360856982752554","0.002708292792045313","-0.010741759560022641","-0.00032043127913206374","0.10718730768426424","0.31329542055001","0.5405203356682573"
"0.05103467425760587","-0.08511379894562612","0.04365813587952903","0.0019250959929091298","-0.009583882444781545","-0.0013013533628116023","0.16174467774712564","0.3495488629600725","0.5221829883188863"
"0.05078241559232666","-0.08485723574573606","0.04371596294019976","0.0022267254424105025","-0.002057681195714416","-0.0038517653416800224","0.12134213096921498","0.33789974008959023","0.5597565725935777"
"0.05119739072490429","-0.08494968159508913","0.04367878840119714","-0.0011454013045524938","-0.0099105674927981","0.002186952053447141","0.16355582639579072","0.3230447997134147","0.5146650027745808"
"0.05087966034497246","-0.08500265618292072","0.044162057408231155","0.0016661163506625","-0.007728598567694115","-0.0008448322881661183","0.18643202701969758","0.3329656835170417","0.52396442402395"
"0.05135914437286959","-0.08498707542179378","0.04119015954018867","0.00026228302225386285","-0.009437891324422498","-0.004113626082492567","0.13697373699846185","0.3313693710965113","0.530338368289774"
"0.05123879195622874","-0.08509925690190766","0.042144306041255825","0.0008854804654607997","-0.010566809545297292","0.003512831372521443","0.2058531132984586","0.3382295567054023","0.5311718840783818"
"0.05094994615629071","-0.08519793505571152","0.04285268753447235","-0.0009005740814174827","-0.007382192751943813","0.00606472375038797","0.1440511486409372","0.32702898443242445","0.5293741049264826"
"0.05067457982701646","-0.08457678204545134","0.043092256785822534","-0.0002177728105098437","-0.007928797866350416","-3.876716811534573e-05","0.16464251558498968","0.336936675571419","0.5505552120252213"
"0.05087966034497246","-0.08481049346235527","0.042980733168814685","-0.0007858143291654442","-0.008599112505533397","0.00025393926329708206","0.13176320165537947","0.36698956560421464","0.5415172859252195"
"0.05101541787094333","-0.0846245630462406","0.04286094854313959","-0.0026027153732094592","-0.001449305084316551","0.0022292526346553215","0.1609923544622956","0.34675201805798617","0.5381178489834465"
"0.05114251002291607","-0.08487593265908837","0.043895639878712416","0.000621571545265089","-0.015396004343010158","-0.00394422960697157","0.16681589396338767","0.3390343092479837","0.5343751996581294"
"0.05124168041422812","-0.08497045594325839","0.04364780961869497","-0.002555540642837397","-0.0021541310670335897","0.0014753412432427463","0.18189022348535308","0.33041949924297254","0.5410433259669916"
"0.05117043178357674","-0.08504212744444224","0.04319138888982952","0.0028501058080413304","-0.007464498237667545","0.0018060284030492083","0.23775719334032597","0.32712133308485186","0.5592008954011725"
"0.05119257662823865","-0.08494448800804684","0.04284855703013871","0.0006728764714187057","-0.008689387670450499","0.0027503530819886803","0.12376628377588973","0.3282559022432454","0.5340483307214203"
"0.051338925166873925","-0.08505355333593534","0.041462772826207854","-0.0005195177899631476","-0.008024386150729765","0.0015400613751796225","0.15115642410877653","0.3460000361739346","0.5695626406948456"
"0.05095283461429009","-0.08491332648579297","0.04294149337764526","0.00046149516936788763","-0.0047178548053912065","-0.0003337548701150188","0.12437928793389941","0.35551194737395464","0.546845249593575"
"0.05141306225552468","-0.08471700889559369","0.0433607395675081","0.0022293248663289625","-0.006647330891185693","0.0039030985247926688","0.19403885134409046","0.3227941390853975","0.5535624062429435"
"0.05079011814699168","-0.08490086187689143","0.043096387290156156","0.00308713475942096","-0.00340845805359386","-0.00254003475401385","0.20309459458741522","0.36313730753152973","0.5367286560024337"
"0.050600442738365704","-0.08473051222190371","0.04306747375982079","0.0024120547403007485","-0.01391910073032872","-0.0029608563708525444","0.1877416268118091","0.33101316915143425","0.5358951402138259"
"0.050757382289665365","-0.08516365738123229","0.04329465149817011","0.0035776556803304694","-0.004996219185865973","0.004604467886190493","0.1533298024871745","0.32866487484685236","0.5377909800467376"
"0.05118968817023927","-0.08458613050212747","0.043523894488686245","-0.0019204147320935237","-0.000846194226439834","-0.0010084770495469326","0.22906367982673442","0.3638233260924188","0.5272494568378747"
"0.05112710491358603","-0.0848551583109191","0.04450488926792195","0.0026461954428820883","-0.012356995742486917","-0.0008757750541101402","0.17729269230028036","0.34669924739945623","0.5563081053112986"
"0.05151319546616987","-0.0847710222008337","0.04326573796783474","-0.00013852889098077273","-0.01033298442301731","0.005150759385327691","0.228952224525278","0.33957520849791556","0.5324466729315466"
"0.051225312485564965","-0.08497772696511761","0.04347019793234913","-0.0012700773776786595","-0.007047794107518779","0.0049704419335911566","0.2619151299309804","0.3365145103031796","0.5272331133910393"
"0.051361070011535837","-0.08467857635148059","0.042988994177481935","6.686410856159173e-05","-0.005737303618967267","0.005879309843084185","0.21265188668729354","0.346092384826362","0.5310574799505338"
"0.05121472147290057","-0.08478037065750987","0.043214106663664445","0.0009844992617621597","-0.00550223398221865","0.0027094115555984337","0.15394280664518417","0.34639581611290915","0.561341886936616"
"0.05104237681227088","-0.08477829322269295","0.043088126281488906","0.0007172688554484161","-0.006171232308021345","0.0029879935244387667","0.14432978689457795","0.32694982844462955","0.53476744238218"
"0.05093068976962818","-0.08485308087610219","0.042565617483285474","0.00030033088642333054","-0.007853289344263072","-0.0027853926863229154","0.17328030144785336","0.3041265186304345","0.5541344268821841"
"0.05112710491358603","-0.08461936945919829","0.04290018833430902","0.0013634375040977493","-0.007053406389112909","0.004715861843588971","0.15569822764312105","0.33979948379666775","0.570853772994846"
"0.051269602174888795","-0.0849590300517653","0.04355693852335524","0.0023115436821202723","-0.006616840286704147","0.0023602800804057313","0.1516022453146019","0.3264089291946978","0.523310686150532"
"0.0512118330149012","-0.08521767068647229","0.04342682763684608","0.0007647131557083192","-0.002901318407625302","0.0017059679920788545","0.1765403690154503","0.34675201805798617","0.5624532413214265"
"0.05139958278486091","-0.08515638635937307","0.04389977038304604","-0.0013414171229964114","-0.004551018067682532","-0.0004871096450171937","0.14157126818353458","0.3280184342798607","0.5449820966543342"
"0.05128019318755319","-0.08509717946709074","0.04316867111599458","0.004090416116986808","-0.009753088546574735","0.002482012561954917","0.20880667878705086","0.34551190758253275","0.555703397778387"
"0.05127923036822007","-0.08456016256691595","0.042999320438315995","0.0023354198721861324","-0.0028101337898272746","-0.006359706857488021","0.08419965175890128","0.32991817798693823","0.5319400260796479"
"0.05101830632894272","-0.08504628231407611","0.043435088645513334","-0.00029522601578397514","-0.00648994767684453","0.004453758414416082","0.24881913200986439","0.3473456879664479","0.5282954374353432"
"0.05070346440701026","-0.08480737731012986","0.04318312788116226","-0.0006268643702995759","-0.0012951767539702789","0.0008961169336066954","0.23001104988911272","0.3184273670920458","0.5507840202809176"
"0.050534971023713085","-0.08451342028353517","0.04347639368884957","0.0010664388801696343","-0.008283221227235191","0.0018624534468294832","0.1312616527988262","0.3374775748213508","0.5533499414340828"
"0.05110207161092475","-0.08477725450528449","0.04336487007184173","0.00038058569303180297","-0.008890400690105521","0.0039166890729720035","0.08386528585453203","0.3639420600741111","0.5598709767214258"
"0.05088158598363872","-0.08504420487925919","0.043829551809374416","-0.0009806748480900463","-0.002815638373053927","-0.0040090273991837564","0.14536074843304903","0.33956201583328305","0.5511926064518037"
"0.051099183152925366","-0.08497876568252608","0.043963793200217205","0.001562717043683734","-0.004550778737977025","-0.0038648705131386673","0.1930078898056197","0.36245128897064055","0.5304037420771158"
"0.05133988798620705","-0.08510029561931612","0.04336693532400853","0.0016639020265838114","-0.009432626070901352","0.0043113003468934095","0.11526781703984644","0.34493143033870355","0.5256641424948363"
"0.05141209943619156","-0.08503901129221686","0.043433023393346516","0.0003339308474434324","-0.008136799313406232","0.0014907179777542225","0.11791488044943371","0.3115803741477872","0.5776199599847207"
"0.05119161380890553","-0.08471804761300215","0.043205845654997195","-0.00012014037363166247","-0.009059128132487698","0.0023247747732872185","0.1536363045661795","0.3661320424031032","0.562910857832819"
"0.05101445505161021","-0.08506705666224534","0.043439219149846955","0.0012560235312893608","-0.020179008507560246","0.006103796576403558","0.2048500155853521","0.3255250206643215","0.5496399790024363"
"0.0511473241195817","-0.0852374063172331","0.04285681803880597","-0.003176610409429593","-0.003464700534387919","0.0026482055511193574","0.14499851870331584","0.3428601819914037","0.5373823938758515"
"0.05091047056363252","-0.08437527086820973","0.04295595014281295","0.0045146035904956","-0.008442543012190957","0.002272184205600399","0.1428808679756461","0.3231239557012096","0.5313680054404072"
"0.05120798173756868","-0.08417375969096812","0.043769659496536883","-0.002124999021972367","-0.005508600152385127","-0.00524843685546704","0.12267959458669074","0.36487873926301734","0.5506205858125631"
"0.05121375865356745","-0.08465780200331137","0.04347639368884957","-0.0005160518914052","-0.007787736937924805","-0.0006097643423356922","0.10264550414991973","0.33737203350429096","0.5262688500277478"
"0.05134277644420643","-0.08484892600646834","0.043542481758187555","0.0027296658331526563","-0.01075396537500348","-0.0021325609969941443","0.18866113304882345","0.33457518860220464","0.5432496912897767"
"0.05051571463705055","-0.08507017281447073","0.04320997615933082","0.0019586959539292315","-0.01255157079306381","0.004143845378255175","0.13588704780926286","0.3549974334532878","0.5900409795796602"
"0.05061199657036322","-0.08524675477390924","0.04320791090716401","0.0004993023461374979","0.000917665703144062","-0.0005039764860611896","0.2383423336729717","0.3303271505905451","0.5822288119923167"
"0.05092683849229567","-0.08482191935384832","0.04280518673463566","-0.0025280060042937027","-0.007392579661162801","0.00865202436002887","0.16609143450392158","0.3580977096419213","0.5595604512315525"
"0.051064521656932794","-0.08486346805018681","0.042893992577808585","-0.0008813190894288857","-0.011317347501766098","0.00014572452341912693","0.10328637213329367","0.3386912999675392","0.5363854436188893"
"0.051318705960878265","-0.08504420487925919","0.043315304019838234","7.607762222813537e-05","-0.005667084283371621","0.00048432332377284484","0.11103251558450661","0.34051188768682183","0.5539873358606651"
