"AccX","AccY","AccZ","GyroX","GyroY","GyroZ","MagX","MagY","MagZ"
"0.05139573150752841","-0.08485100344128527","0.0447713067974407","0.0015418253773761064","-0.010159949045936013","0.0007818835223921777","0.16832054053304774","0.3439287878266349","0.5333782494011672"
"0.051252271426892516","-0.08469519583001597","0.04507489886596207","-1.8695448339739134e-05","-0.0048020749287589915","0.0012682309965240948","0.17015955300707708","0.34204223678418977","0.5328062287619264"
"0.0511078485269235","-0.0848499647238768","0.04506870310946163","-5.024404027835188e-06","-0.005068448890987876","-0.0013659084666634432","0.16840413200914023","0.34204223678418977","0.5306162068859765"
"0.05125130860755939","-0.08500577233514608","0.04507283361379526","-0.0007158224332868943","-0.010403108026730754","0.0003569362034276136","0.1656456132980962","0.34305807196089094","0.5324793598252175"
"0.05110688570759038","-0.08492682981210299","0.04475891528443983","0.00048771084096036247","-0.0077549248352998465","0.003441990640136659","0.16762394489894591","0.34288656732066874","0.5333945928480025"
"0.0511078485269235","-0.08500577233514608","0.045376425682316625","-1.6769949140879425e-05","-0.00480997280904071","0.0008311492595422672","0.16650939188438268","0.3439419804912674","0.5305344896517994"
"0.05139669432686153","-0.08485204215869373","0.045696539768172485","0.0008380554201928851","-0.00669086496461735","0.003004908903154832","0.16280350311096067","0.34357258588155776","0.5304854593112931"
"0.05118005997690801","-0.08500577233514608","0.045688278759505235","0.00016605619979084924","-0.004844436286633665","-0.0009268852227988536","0.1666765748365673","0.34358577854619027","0.5318419653986352"
"0.05118005997690801","-0.08453938821874674","0.04507283361379526","0.0006754470128491834","-0.009531947898686607","0.000354509319824161","0.16907286381787778","0.3430712646255235","0.5331984714859772"
"0.05096342562695449","-0.08469415711260751","0.045372295177983","0.0008432542680298065","-0.010154923122120374","0.0012301289239498878","0.1708004209904504","0.3441134851314896","0.5325610770593947"
"0.05096342562695449","-0.08469519583001597","0.045682083003004796","0.0006624498932568804","-0.006899560467819134","0.003228910259753514","0.16820908523159164","0.34341427390596807","0.5323159253568631"
"0.0511078485269235","-0.08469519583001597","0.04537849093448343","-3.28478674513579e-05","-0.008412602866032078","0.0030017539544703433","0.1688220893896013","0.34288656732066874","0.5340646741682559"
"0.051467942957512905","-0.08516157994641538","0.0447713067974407","0.0006723662141310079","-0.004779338606735861","0.002140210275244642","0.16550629417127585","0.3425435580402242","0.5312045709720526"
"0.05139573150752841","-0.0848499647238768","0.0444615189724189","0.0008508599898653022","-0.006948623057447994","0.0008078511769491214","0.16843199583450386","0.3444564944119342","0.531433379227749"
"0.05139573150752841","-0.08485100344128527","0.04492413545778479","0.000335981504090218","-0.003101398041428848","0.00039819322468630914","0.16843199583450386","0.3442717971070794","0.5342444520834457"
"0.05139669432686153","-0.08469519583001597","0.0449262007099516","0.0011099359070718751","-0.007804705414045226","0.0008003278377784182","0.1678747193272224","0.34358577854619027","0.5327245115277492"
"0.051252271426892516","-0.08469623454742443","0.04553751535132796","-2.4086846096546262e-05","-0.010817387746962738","0.0007886787964818452","0.16556202182200436","0.3442717971070794","0.5320217433138251"
"0.051252271426892516","-0.08469415711260751","0.04476717629310708","0.0004257097667570801","-0.007635020652841022","-0.0011683601413423955","0.17021528065780497","0.3423720534000019","0.5334436231885088"
"0.051252271426892516","-0.08485100344128527","0.04538262143881706","-0.000368366102852661","-0.008246268720704965","0.0008083365536698119","0.17197070165574185","0.3422137414244121","0.5326264508467367"
"0.0511078485269235","-0.08469519583001597","0.04568621350733843","0.0008596210112201139","-0.006124610881388653","-0.0009395050175368075","0.16558988564736832","0.34322957660111325","0.5320544302074959"
"0.051252271426892516","-0.0849289072469199","0.04538262143881706","-1.840662345991014e-05","-0.008252012633637125","0.00036712911456211495","0.1706889656889943","0.3441002924668571","0.5347184120416737"
"0.051467942957512905","-0.08485100344128527","0.04477337204960752","-0.0008865179372658068","-0.008261107162446378","0.00036979868652591285","0.1687106340881449","0.3446411917167889","0.530779641354331"
"0.051252271426892516","-0.0848499647238768","0.04492000495345117","8.191188480068036e-05","-0.005283127636827326","-0.0013695487920686224","0.16656511953511088","0.3425567507048567","0.5307959848011666"
"0.05125130860755939","-0.08500577233514608","0.04538262143881706","-0.00026718111995258363","-0.006144475246945703","-0.0013729464291134562","0.16531124739372757","0.34340108124133556","0.5326918246340785"
"0.05118005997690801","-0.08485100344128527","0.045380556186650246","-3.178884289198509e-05","-0.007555084531201806","0.0030068504100375943","0.16779112785113054","0.3428997599853012","0.5318909957391414"
"0.05118005997690801","-0.08500577233514608","0.04537849093448343","6.26568928120833e-05","-0.005212286043997363","0.002144335977370512","0.16887781704032923","0.3440870998022247","0.5348981899568637"
"0.051252271426892516","-0.0848499647238768","0.04492000495345117","-0.00054185358066992","-0.010401432718792208","0.0003557227616258873","0.1703267359592611","0.34512932030819077","0.5348981899568637"
"0.051252271426892516","-0.0848499647238768","0.04507489886596207","0.00041579344588295265","-0.004798006323765379","0.001265804112920642","0.16311000518996566","0.3451161276435583","0.5332475018264836"
"0.051252271426892516","-0.08485100344128527","0.04553751535132796","0.000839980919391745","-0.009066930280887215","0.0021123011138049364","0.16455892410889753","0.34357258588155776","0.532675481187243"
"0.0511078485269235","-0.08500577233514608","0.045684148255171614","0.0012905477319249152","-0.007184362817372029","-0.0005099466197256835","0.17018741683244074","0.34341427390596807","0.5334272797416735"
"0.05139573150752841","-0.08485100344128527","0.04507902937029569","0.00014776395740168213","-0.009082726041450653","0.0016757047535437995","0.16706666839166445","0.34271506268044644","0.531874652292306"
"0.05139669432686153","-0.08469519583001597","0.0447713067974407","-0.0012303158192222066","-0.006985479832096016","-5.757551604210386e-05","0.16921218294469817","0.34288656732066874","0.5342771389771166"
"0.051252271426892516","-0.08485100344128527","0.04538262143881706","0.0006635089178162533","-0.007549340618269646","0.0030017539544703433","0.16623075363074194","0.3425435580402242","0.5309921061631919"
"0.05118005997690801","-0.08469519583001597","0.04522566227413935","0.0011898441238245526","-0.00734710701711654","0.002122494024939438","0.16592425155173726","0.34461480638752395","0.5320217433138251"
"0.051540154407497416","-0.08500681105255455","0.04508315987462931","0.00015171123075934456","-0.00392684619572123","0.002148218991136036","0.16859917878668848","0.3442717971070794","0.5327245115277492"
"0.05139573150752841","-0.0848499647238768","0.0444615189724189","0.0003220216348984851","-0.007355962216220286","0.002125406285263581","0.17004809770562035","0.3432559619303783","0.5321361474416733"
"0.051252271426892516","-0.0849289072469199","0.04538262143881706","0.00015200005563917345","-0.009099718450541625","0.000799357084337037","0.1699645062295282","0.34532721027767804","0.5320871171011667"
"0.0511078485269235","-0.08485100344128527","0.04568621350733843","0.0008557700128223945","-0.007402870838499586","-0.0005089758662843023","0.1662586174561062","0.3442717971070794","0.531613157142939"
"0.051252271426892516","-0.08469623454742443","0.04569240926383886","0.0007499638318450539","-0.009488150562578892","0.0025488974740660733","0.17269516111520763","0.3441266777961221","0.5330186935707873"
"0.0511078485269235","-0.0848499647238768","0.04506870310946163","0.0011990865199790794","-0.009535537844269205","-8.645543092319079e-05","0.16639793658292656","0.34305807196089094","0.5324957032720529"
"0.051252271426892516","-0.08469519583001597","0.04507489886596207","0.001376039896354286","-0.005021540268708576","0.00038023428602075945","0.1712183783709115","0.3446279990521564","0.5329860066771164"
"0.0511078485269235","-0.08469519583001597","0.04522359702197253","-0.0015772907748567249","-0.007853768003674086","-0.0004970841366273843","0.16809762993013522","0.34374409052178007","0.5344569168923067"
"0.05125130860755939","-0.08500577233514608","0.04538262143881706","-0.000904136254935373","-0.005611009333371416","0.004122246114184446","0.16801403845404275","0.3454723295886354","0.5341954217429394"
"0.051252271426892516","-0.08469519583001597","0.04507489886596207","-0.0006484299613268046","-0.009036056748876859","0.004316639490821005","0.1672059875184848","0.3447863110277462","0.533558027316357"
"0.05125130860755939","-0.08500577233514608","0.04507283361379526","-1.397797530253282e-05","-0.004819785326966483","0.0003904271971552605","0.17088401246654286","0.34305807196089094","0.536042231235345"
"0.0513235200575439","-0.08485100344128527","0.045076964118128886","-0.0002572647990784561","-0.004026168023506483","-0.0026766683008882354","0.16848772348523236","0.3453008249484131","0.5348655030631927"
"0.0511078485269235","-0.08477309963565062","0.04568621350733843","0.000503211109511183","-0.007602950472303133","0.00036979868652591285","0.169128591468606","0.34461480638752395","0.534031987274585"
"0.051252271426892516","-0.08461729202438134","0.044922070205617975","0.001206884791734461","-0.007194414665003308","-0.00095066868211269","0.17049391891144572","0.34322957660111325","0.5358134229796487"
"0.05096342562695449","-0.08469415711260751","0.045064572605128014","0.0006695742402926612","-0.006491981979341336","0.002133900377875665","0.16926791059542637","0.3446279990521564","0.5322995819100277"
"0.05118005997690801","-0.08485100344128527","0.045380556186650246","-2.4249801093746632e-06","-0.006588192520955003","-0.0022548759306081595","0.16756821724821772","0.3461715408141569","0.533737805231547"
"0.05141306225552468","-0.08545242082078468","0.04561806018583363","-0.00020637385525259431","-0.011363777464634383","-0.0011399656031819989","0.18581902286168792","0.34051188768682183","0.5239480805771145"
"0.051225312485564965","-0.08465468585108599","0.04464119591093155","-0.0004131339592261491","-0.006675332466729969","-0.0008061720323631177","0.17667968814227067","0.3351160878521364","0.5376275455783831"
"0.05126863935555567","-0.08482503550607375","0.04520914025680484","-0.0013513334438705388","-0.00736943647864031","0.004245531801239841","0.17063323803826608","0.33374405073035823","0.5132104360062262"
"0.05141980199085657","-0.0848011450056791","0.04543012223865373","-0.0002629065117311151","-0.003912725743096338","0.002371225325457303","0.15341339396326698","0.34111875025991606","0.5331167542517999"
"0.05122434966623184","-0.08466715045998753","0.04526490206530877","-0.0007903392522827647","-0.002258718148339989","0.000663087570003169","0.14970750518984466","0.3367915562604617","0.5399483150290167"
"0.05114058438424981","-0.08459651767621211","0.044591629858928054","0.0015328718061014086","-0.00353219151134079","0.0017232474033354375","0.12828022348486998","0.3528074511242957","0.5385100917074972"
"0.051076075488930325","-0.08511276022821766","0.04479608982344244","0.0001539062998460446","-0.008479567317632834","0.0026564569553710962","0.19002646049166316","0.35786024167853664","0.5221993317657216"
"0.051274416271554435","-0.08461729202438134","0.045145117439633675","0.0007597742502632441","-0.009651612751439923","0.003051529337177158","0.15976634614627624","0.3529129924413556","0.5205813305290126"
"0.05110399724959099","-0.08486554548500373","0.0454239264821533","0.0008397306044958932","-0.0037100134825322193","0.0005924895259787306","0.2013113097641141","0.3495884409539699","0.5244874143226843"
"0.05129174701955071","-0.08481464833198911","0.04509968189196381","0.0008746013949872424","-0.0025413665305433243","-0.003882101386723181","0.207051257789114","0.3695621352075487","0.5275599823277483"
"0.051338925166873925","-0.08485308087610219","0.044913809196950726","0.0003552268685828207","-0.008660763837671904","-0.0025851747890380697","0.16007284822528092","0.3621874356779909","0.5113309396201499"
"0.05128693292288508","-0.08511379894562612","0.04528348933481008","0.0009820249952916251","-0.008734956046378963","-0.003580197066453668","0.20685621101156543","0.36449615198867535","0.5080132199125542"
"0.05145350066751601","-0.08487489394167991","0.04572132279417422","0.0007864231591754623","-0.009132841681783741","0.00022418567031875212","0.2097540488494295","0.34093405295506124","0.4981417780239445"
"0.05136203283086896","-0.08504212744444224","0.04559947291633232","0.0004567584413386928","-0.006538842735679535","0.0003713033543600536","0.1692957744207903","0.34685755937504603","0.5245527881100259"
"0.051228200943564346","-0.0851169150978515","0.0448394601189455","-0.0009231986970040841","-0.004094855648986887","-0.0018753113350281605","0.15497376818365527","0.32834825089567277","0.5449820966543342"
"0.05112903055225229","-0.08496526235621606","0.04466391368476648","-0.00012625383358804204","-0.007312787137346889","-0.004783203268685161","0.17155274427528075","0.33759630880304314","0.5534806890087663"
"0.05153822876883116","-0.08473778324376292","0.04565729997700305","0.0020059669592612374","-0.0052706585591704306","0.0021541891248005296","0.16377873699870324","0.34090766762579633","0.5369574642581298"
"0.05148334806684294","-0.08498084311734298","0.04535370790848169","0.0005260725614992443","-0.009583403785370532","0.0034668661970720495","0.20158994801775482","0.35398159827658665","0.5368920904707881"
"0.05116080359024547","-0.08491436520320143","0.04510174714413062","-0.002092265535591752","-0.007661753780946113","0.005102949778339673","0.15603259354749","0.35167288196590224","0.5531374766252218"
"0.0511762086995755","-0.08472635735226984","0.044548259563425","0.0008955989637508073","-0.011077778466553955","-0.0030392447112440662","0.13605423076144718","0.3492454316735254","0.5076863509758451"
"0.05132929697354266","-0.08502343053108993","0.04551479757749303","-0.0011397210819158576","-0.01322839520023657","0.0026496374124453945","0.1538034875183638","0.32156722127457665","0.5350943113188891"
"0.051024083244941475","-0.08468480865593138","0.04577295409834453","0.0004626312138952148","-0.009929474539533125","0.0026869143445944275","0.19780046776824067","0.32308437770731224","0.5104974238315421"
"0.05112132799758728","-0.08502862411813224","0.045556102620829264","-0.0012569839831264135","-0.009542717735434404","0.0025240704548027525","0.19894288460816756","0.3303799212490751","0.5310411365036982"
"0.051111699804256006","-0.08486970035463758","0.045256641056641525","0.00014949690668065584","-0.010595289780252582","-0.003072007639890677","0.12435142410853514","0.35020849619169664","0.5439361160568654"
"0.05124168041422812","-0.08496006876917377","0.045060442100794386","-0.0002853000674138536","-0.009384257537418462","0.0038455813833908397","0.14140408523134995","0.3439683658205323","0.563172352982186"
"0.05140535970085967","-0.08475544143970677","0.04527109782180921","0.0009453442355533477","-0.00026558036088073807","0.003249805727579242","0.13647218814190828","0.3497599455941922","0.5058068545897688"
"0.05096342562695449","-0.0846868860907483","0.045789476115679024","-0.0025462982466828697","-0.009418026958865447","-0.0020238366115594643","0.15182515591751472","0.33307122483410156","0.5348655030631927"
"0.050912396202298774","-0.08472947350449525","0.046060024149531406","-0.00016525481986094532","-0.004347348488296387","0.0020900223223252407","0.18799240124008587","0.32710814042021946","0.5316621874834453"
"0.05108859214026097","-0.08483334524534142","0.04501500655312452","0.0002220882264776666","-0.00640479416762527","-0.0016204885566656292","0.1344381288903307","0.35421906623997135","0.5346693817011674"
"0.05141980199085657","-0.0848312678105245","0.04548794929932447","0.00019975243577089401","-0.016759465675281457","0.0004896139300283717","0.14176631496108283","0.36258321561696544","0.5510618588771202"
"0.05149008780217482","-0.08515846379419","0.0455271890904939","0.0006950678496855637","-0.002353971371131629","0.002996778843083265","0.14984682431666502","0.34138260355256567","0.5216273111264811"
"0.05128693292288508","-0.08511068279340075","0.04507076836162844","0.00041537946355519776","-0.006211056771017649","-0.003057931714990652","0.1928128430280708","0.340736162985574","0.5064442490163512"
"0.051489124982841694","-0.08500992720477993","0.04452347653742326","-0.00025231626613738686","-0.004768616635929164","-0.0019456909595282881","0.1528561174559855","0.3465805134177639","0.5594623905505397"
"0.05110207161092475","-0.08486866163722911","0.04444912745941803","-0.001395523650484369","-0.011853446042100957","0.002061142407444154","0.12772294697758851","0.33958840116254807","0.5543795785847158"
"0.051369735385533986","-0.0847824480923268","0.04497576676195509","0.0016746848220974258","-0.00536406894322967","0.000911940214701207","0.17127410602164","0.3376226941323081","0.5153841144353405"
"0.051297523935549476","-0.08482088063643986","0.04505424634429395","0.0017565185380489631","-0.005361077321910838","0.00018817071764351437","0.12669198543911775","0.35713464512375004","0.5489045238948412"
"0.051172357422243","-0.08487593265908837","0.04521533601330529","-0.0007631897135788428","-0.0059765375925916985","0.00219906220262837","0.19487476610501267","0.3512902946915602","0.5338848962530659"
"0.05128500728421882","-0.08477725450528449","0.04472174074543721","8.08624877373018e-05","-0.009685836899327371","0.0013529848099191122","0.15229884094870372","0.34407390713759217","0.5229511303201522"
"0.05163836197947635","-0.08475440272229831","0.045886542967519185","-0.0009792307236909012","-0.005135078281000923","-0.002517707424862085","0.23444139812200113","0.3338232067181531","0.5549842861176274"
"0.05126671371688942","-0.08491124905097605","0.045682083003004796","0.00023643319550917136","-0.010651292931341134","-0.0009746948297868712","0.15463940227928633","0.34466757704605394","0.531400692334078"
"0.05110592288825725","-0.08461936945919829","0.04541979597781968","0.0004112877777576209","-0.005480000252577084","0.004720715610795876","0.20237013512794913","0.3574776544041946","0.5337214617847115"
"0.051179097157574883","-0.08514184431565461","0.04479402457127564","0.00039703908368605913","-0.0077415702377325755","0.0012417658308284433","0.17369825882831447","0.35292618510598806","0.5359114836606613"
"0.05127634191022069","-0.0848499647238768","0.04448423674625383","-0.00034310355336362173","-0.005734599193295041","-0.000860752644604768","0.1776270582046493","0.34449607240583163","0.536744999449269"
"0.05128308164555257","-0.08491436520320143","0.04521327076113847","0.00028691978450327274","-0.010301871561301449","0.004702513983769981","0.1304814656886319","0.3448786596801736","0.5217090283606584"
"0.051376475120865864","-0.08472947350449525","0.04521740126547209","0.00036790628080731185","-0.007144263125214393","-0.0005514220605086895","0.1842586486412993","0.36189719705607626","0.5348818465100283"
"0.05106259601826655","-0.08475232528748139","0.04555197211649564","-0.0015773870498166677","-0.00954941896718859","0.0045505910701938435","0.18219672556435776","0.36163334376342665","0.49796200010875447"
"0.05125804834289128","-0.08479179654900293","0.04486837364928087","0.000222357796365507","-0.004840391614610604","-0.0022752617528771623","0.18194595113608097","0.3564618192274935","0.5160868826492647"
"0.05141498789419094","-0.08472947350449525","0.04479815507560926","0.000982824077459152","-0.0054601358870200335","0.0033253546141547236","0.18161158523171203","0.32981263666987837","0.5230818778948357"
"0.05121472147290057","-0.08479491270122834","0.045456970516822286","0.0005377016139107575","-0.010326043861557617","-0.00029312883859322115","0.18052489604251334","0.3771215320419614","0.5400790626037002"
"0.0513812892175315","-0.08495799133435684","0.04555403736866245","-0.0003453948974102647","-0.007832706989589502","-0.0010649263621632418","0.1251037473933652","0.35923227880031483","0.5188979555049614"
"0.05126189962022378","-0.08460898228511365","0.045037724326959454","-0.0009067356788538335","-0.011456876720076465","0.0006916519900158071","0.15695209978450467","0.3545224975265185","0.5451945614631949"
"0.0516152543154813","-0.08492475237728607","0.044527607041756886","-6.374250209706189e-05","-0.012131786489605174","0.005782477187306422","0.16280350311096067","0.3444828797411991","0.5201073705707846"
"0.051358181553536456","-0.0848011450056791","0.04531240286514546","0.0020638282101869713","-0.009442199259121618","-0.0017578501686210514","0.14271368502346177","0.3387176852968042","0.5450965007821823"
"0.051343739263539565","-0.08470246685187523","0.045376425682316625","0.00014716705265003559","-0.0024681316406582944","-0.0009518093174063128","0.20563020269554608","0.3497599455941922","0.5508657375150948"
"0.0511762086995755","-0.08450718797908441","0.04475271952793939","0.0006932771354306242","-0.006905328313721845","-0.0027351561957314452","0.18626484406751295","0.330485462566135","0.5491496755973729"
"0.05128115600688631","-0.08475024785266448","0.04479608982344244","0.0025503055827788747","-0.006693473658407371","-0.0007290942091174602","0.2047106964585317","0.354100332258279","0.5078661288910352"
"0.051044302450937135","-0.08464118252477598","0.045227727526306154","-0.001802670456083253","-0.009257053798941685","0.0011666659177196","0.13404803533523385","0.3453931736008405","0.5477441391695246"
"0.05132255723821077","-0.0856019961276032","0.04545490526465548","-0.00110044089825912","-0.010039805533771684","0.0028223101808310526","0.12783440227904463","0.3408417043026339","0.5736811892973781"
"0.051179097157574883","-0.08470662172150907","0.04583078115901526","-0.001513364201454583","-0.0026064642104411287","-0.0022883669243358063","0.10871981807928859","0.3412242915769759","0.5338031790188886"
"0.05119931636357054","-0.08489462957244066","0.04546936202982316","0.0001533575325743696","-0.006495021466601271","-0.00235486353507041","0.14290873180101002","0.32545905734115904","0.5696933882695293"
"0.05116369204824485","-0.08472116376522754","0.04488489566661536","0.00044112338784395197","-0.0050055051784396315","0.0009181044990539765","0.16801403845404275","0.34362535654008775","0.5470577144024359"
"0.051250345788226265","-0.08447187158719668","0.045471427281989975","0.002079328478737792","-0.004527085097131869","0.004622184136495697","0.2018407224460316","0.3132558425561126","0.5283444677758496"
"0.05132929697354266","-0.08449783952240825","0.045886542967519185","0.002205833776102874","-0.009524768007521407","0.0029227103555058897","0.2077199895978516","0.33081527918194703","0.5433967823112958"
"0.05130907776754699","-0.08521455453424691","0.04506870310946163","0.0005611407156584766","-0.012206218028017737","-0.001740619295036537","0.1972431912609592","0.3282031315847154","0.5467471889125624"
"0.05141498789419094","-0.08468065378629755","0.04540946971698561","-8.989078121757659e-05","-0.004992533508401171","-0.0029756603608336054","0.20696766631302185","0.3302216092734853","0.5582856623783875"
"0.05102986016094024","-0.08478140937491833","0.04490554818828348","-0.001848497337016114","-0.00618980429316866","0.0009601381230657772","0.20415341995125025","0.35659374587381826","0.5193392285695184"
"0.05123686631756248","-0.08479906757086218","0.04580393288084671","0.00037164174925309964","-0.0016845661848295728","0.0024184524803804917","0.2090853170406916","0.36421910603139324","0.5430208830340805"
"0.051472757054178545","-0.08487904881131374","0.04490348293611667","-0.0018635162307672195","1.3956735151011342e-05","0.0020526968525041386","0.1236548284744333","0.36545921650684665","0.532610107399901"
"0.051099183152925366","-0.0849154039206099","0.04493239646645204","0.0004588187254814727","-0.0052042206329217895","-0.005492581345974379","0.17503572244579021","0.35346708435591984","0.5188652686112907"
"0.05129270983888384","-0.08488839726798991","0.04496957100545465","-0.0023092692953032403","-0.011727319287298962","-0.002225753327366727","0.16076944385938308","0.33070973786488717","0.5515848491758545"
"0.051564224890825586","-0.08510860535858379","0.04587002095018469","0.003064510143834359","-0.007347705341380308","-0.0034809375270724533","0.2673485758769753","0.37702918338953395","0.5299134386720525"
"0.05125708552355815","-0.08499850131328687","0.044709349232436336","-0.0014581023744473095","-0.007042052587883675","0.0016175566224050733","0.15873538460780548","0.37068351170130975","0.5395070419644594"
"0.05099808712294705","-0.08496941722584993","0.04533718589114719","0.0006741280458979645","-0.002729719008777045","-0.0010315809814518018","0.13725237525210257","0.36631673970795803","0.5327571984214201"
"0.05089217699630311","-0.08475648015711523","0.0457171922898406","0.0018035969934610825","-0.010704184796258101","-0.0018296859232832506","0.18044130456642088","0.3510132487342781","0.5403569011999028"
"0.051111699804256006","-0.08485204215869373","0.04506663785729482","0.0017428474937370593","-0.011729473254648522","-0.0016665993451312302","0.19462399167673589","0.3460000361739346","0.5115434044290106"
