"AccX","AccY","AccZ","GyroX","GyroY","GyroZ","MagX","MagY","MagZ"
"0.0474298786743793","0.08902405843077936","0.04984563137129781","0.0007908806898208226","-0.004379418668834275","0.0009386602031752209","-0.07504211019679544","-0.20378579265429686","-0.8575471369763425"
"0.04728545577441028","0.08917882732464019","0.05014922343981919","0.00012148089333724723","-0.007536416814172288","-0.0012241784642218069","-0.07807926716147987","-0.20411692853657218","-0.857203924592798"
"0.047575264393681434","0.08886721210210162","0.050316508865330956","0.0006102688649677825","-0.0069076976778063605","0.0017766631114474309","-0.08114428795152824","-0.2067660155947747","-0.8585604306801401"
"0.0474298786743793","0.08917882732464019","0.05031031310883052","0.0004808753188044105","-0.003958916376259119","-0.002912076010423145","-0.07813499481220808","-0.2034256329098301","-0.8576288542105197"
"0.04757333875501519","0.08917986604204865","0.05016161495282006","0.0007905918649409935","-0.0035381747539784555","0.0009454554772648883","-0.076017344084538","-0.20502326459682374","-0.8556349536965953"
"0.0475020901243638","0.08910092351900555","0.050624231438185945","0.00012253991789662003","-0.0001653012142734585","-0.0007441408874588668","-0.07587802495771764","-0.20542300233518795","-0.8537064269700126"
"0.04728641859374341","0.08902301971337091","0.05014922343981919","0.0008084990074903888","-0.004800160291114939","-0.001205491460475221","-0.07615666321135837","-0.2037976660524661","-0.8569260859965955"
"0.047284492955077154","0.08933359621850098","0.050304117352330084","0.0006188373364027082","-0.003534106148984843","0.0009464262307062694","-0.07972323285796032","-0.20489265721696218","-0.8591651382130516"
"0.04757430157434831","0.08902405843077936","0.05016161495282006","0.00011349007166197941","-0.009014277745675755","-0.000379137593499584","-0.07888731809703811","-0.2032501704702181","-0.8576615411041907"
"0.0474298786743793","0.08902301971337091","0.050000525283808724","0.0009544518467639541","-0.004379179339128769","0.0017953501151940165","-0.07802353951075167","-0.2051393600455896","-0.8569751163371019"
"0.0474298786743793","0.08902301971337091","0.050000525283808724","-0.0007394097984729255","-0.007745830306490594","-0.0005844519463516803","-0.0804476923174264","-0.20491376548037413","-0.8583316224244439"
"0.0474298786743793","0.08902301971337091","0.050000525283808724","-0.0004079351113892278","-0.004796809675237846","0.0009355052544907324","-0.08041982849206215","-0.20559186844248373","-0.8583316224244439"
"0.04757430157434831","0.08902301971337091","0.05062629669035276","0.00044255788474710246","-0.006064539125306487","0.001355356117888046","-0.08103283265007183","-0.2031499062190112","-0.8605053008535585"
"0.0475020901243638","0.08902301971337091","0.05031444361316414","0.0012828457351294763","-0.007750856230306233","0.0030566015239083737","-0.079556049905776","-0.20396917069268838","-0.8561742874421651"
"0.0474298786743793","0.08902301971337091","0.05031031310883052","0.0019257699176287307","-0.003120305088163873","-0.0016217019984673558","-0.07888731809703811","-0.2034269521762933","-0.8574327328484943"
"0.04750112730503068","0.089101962236414","0.05000259053597553","0.0005891846487402687","-0.005219944594573575","0.004359352642241772","-0.0787758627955817","-0.20447049194872272","-0.8565828736130512"
"0.04757430157434831","0.08902405843077936","0.05016161495282006","0.000980638635868446","-0.006068129070889087","-0.0014287647519928676","-0.0759058887830819","-0.20374093759454642","-0.8588546127231783"
"0.04728545577441028","0.08917778860723173","0.050304117352330084","0.001639063086918521","-0.003326128634899578","0.0018040868961664463","-0.07950032225504748","-0.20549424272420336","-0.8561579439953295"
"0.047428915855046175","0.08917986604204865","0.04969073745878692","0.0013214519940666133","-0.006067650411478075","-0.0012139855530873054","-0.07950032225504748","-0.20432141483837565","-0.8557330143776078"
"0.0474298786743793","0.08902405843077936","0.04969073745878692","0.0020297468743671544","-0.0043861199005884605","-0.0037724062478471203","-0.07442910603878576","-0.20589529972903084","-0.8551609937383673"
"0.04728641859374341","0.08902301971337091","0.04999432952730828","0.000626539333198147","-0.004798724312881899","7.93007191926271e-05","-0.07685325884546021","-0.20582537860647873","-0.856942429443431"
"0.0474298786743793","0.08902301971337091","0.050000525283808724","0.0009661011169170553","-0.003537456764861936","0.0005163824561744548","-0.07688112267082446","-0.206151237422901","-0.8573673590611525"
"0.04757333875501519","0.08902509714818782","0.049696933215287356","0.0015072626667565745","-0.0014361419505136872","-0.002466985557549924","-0.07501424637143149","-0.207298999245927","-0.853461275267481"
"0.04728545577441028","0.08917882732464019","0.04999432952730828","0.00028620734979969465","-0.0014270474217044351","0.00010381224358749925","-0.0751257016728876","-0.20658131828991996","-0.8547524075674812"
"0.047428915855046175","0.08902509714818782","0.04938094963376511","0.0011329456224982485","-0.005644515492142344","0.0009294380454821007","-0.07746626300347019","-0.2053847436077538","-0.8546053165459621"
"0.0474298786743793","0.08902405843077936","0.04984563137129781","0.0003013225185107433","-0.006907458348100854","-0.0020772280508354235","-0.07490279106997508","-0.20685044864842259","-0.8515327485408981"
"0.04750112730503068","0.08902509714818782","0.04938301488593193","0.000806477233331586","-0.003960113024786652","-0.0007718073605382272","-0.07264582121548495","-0.2063451695929985","-0.8518923043712779"
"0.047428915855046175","0.08902509714818782","0.04907116180874332","0.00011637832046026901","-0.0018501823410401641","9.944385310128448e-05","-0.07197708940674706","-0.2069678633636517","-0.8538044876510252"
"0.047427953035713045","0.08918090475945711","0.04907116180874332","0.002183016610596387","-0.004385641241177448","-0.0016304387794397854","-0.07348173597640716","-0.2069770982288944","-0.8531997801181137"
"0.047428915855046175","0.08902509714818782","0.049226055721254214","0.0007948279631784849","-0.005222577221334148","0.0005040053497968459","-0.07275727651694106","-0.2068003165228192","-0.8536083662889998"
"0.047284492955077154","0.08918090475945711","0.04906496605224288","0.000807728807810845","-0.0022723599415538677","-0.0007591875658002737","-0.07197708940674706","-0.207144645069727","-0.8535920228421645"
"0.047428915855046175","0.08902509714818782","0.04938094963376511","0.00029785661995279585","-0.0022725992712593736","-0.001188260586890707","-0.07724335240055767","-0.20615651448875405","-0.8515981223282401"
"0.047428915855046175","0.08918090475945711","0.04938094963376511","0.00029621994563376516","-0.009224648556816087","-0.0016649005266088134","-0.07061176196390735","-0.206905857839879","-0.8561252571016585"
"0.047428915855046175","0.08918090475945711","0.04938094963376511","0.0011537410138459333","-0.006910090974861427","-0.001648397718105335","-0.07286873181839748","-0.20858396478113084","-0.8561906308890005"
"0.04721324432442578","0.08902405843077936","0.049370623372931056","0.00026011683565514574","-0.0035312341925187634","0.003085966815510151","-0.07047244283708698","-0.20596917865097275","-0.8535593359484935"
"0.047284492955077154","0.08918090475945711","0.04906496605224288","0.0011308275733795028","-0.006064060465895475","0.0011413049840635196","-0.07186563410529065","-0.20835705094945212","-0.8527258201598857"
"0.04757333875501519","0.08902509714818782","0.049696933215287356","0.00031807436154082273","-0.006910569634272439","-0.004004901697057886","-0.07203281705747527","-0.20728712584775777","-0.8544418820776076"
"0.047427953035713045","0.08918090475945711","0.04907116180874332","0.0011354487714567661","-0.007330353937731076","0.0004899294248968204","-0.07119690229655308","-0.20614596035704805","-0.8531507497776074"
"0.047140070055108146","0.0892577698476833","0.049058770295742446","-0.0019239769056114142","-0.010268126072825012","-0.002314819955613441","-0.06933002599715979","-0.20630295306617455","-0.8539515786725443"
"0.04714103287444127","0.08917882732464019","0.04952345203327515","0.0006178745868032783","-0.004375350063840663","0.0011536820904411282","-0.07359319127786357","-0.20609714749790783","-0.8542784476092532"
"0.0471419956937744","0.08909988480159708","0.05014302768331875","-0.00039281994267817926","-0.009007815843627077","-0.0012348567520769984","-0.0714198128994653","-0.20504305359377248","-0.8559454791864688"
"0.04757333875501519","0.08902405843077936","0.05000672104030915","0.0013929842893042512","-0.007543357375631981","0.0002739367841895321","-0.07180990645456276","-0.2053794665419008","-0.8559454791864688"
"0.04750112730503068","0.08910300095382247","0.04922812097342103","0.0016431066352361266","-0.005225449177800228","0.0013611806385363323","-0.07518142932361581","-0.20706285054900558","-0.8556022668029245"
"0.047428915855046175","0.08918090475945711","0.04938094963376511","-5.903465655584981e-05","-0.006694694239905456","6.595285937363749e-05","-0.07214427235893138","-0.20606812363571636","-0.8555205495687471"
"0.04757430157434831","0.08894511590773627","0.050316508865330956","0.00036515281695294246","-0.008382447323138241","0.00026762688682055517","-0.07523715697434402","-0.20654042102955927","-0.8560435398674814"
"0.0474298786743793","0.08902301971337091","0.050000525283808724","0.00046123522697604153","-0.006907219018395347","-0.0007924358711675754","-0.07649102911572762","-0.20647973477224982","-0.8577922886788741"
"0.04721228150509266","0.08933463493590944","0.04983530511046376","9.625685383218504e-05","-0.006901953764874201","0.0017788473066905385","-0.07144767672482955","-0.20704306155205685","-0.8570078032307726"
"0.0474298786743793","0.08902405843077936","0.04984563137129781","0.00021043895632456538","-0.009224409227110581","-0.001665385903329504","-0.07844149689121276","-0.20562485010406492","-0.8576288542105197"
"0.047428915855046175","0.08917986604204865","0.04984563137129781","-0.0005842145630448335","-0.0014251327840603817","0.0018167066909044003","-0.07950032225504748","-0.20531878028459136","-0.8563704088041905"
"0.047430841493712426","0.08886721210210162","0.05015541919631962","0.0006233622595200285","-0.009435258697661925","4.580972546498031e-05","-0.07568297818016907","-0.20617894201862924","-0.8566972777408993"
"0.04760703743167462","0.08945512615529103","0.04992824145797029","0.0023583333126525625","-0.005381970805201567","-0.00040277543979721294","-0.06044146570601935","-0.2192528726694196","-0.8871941495358423"
"0.04759740923834335","0.08917467245500632","0.0503412918913327","0.0015278366256963906","-0.005223103746686263","-0.007335799442796689","-0.049017297306748045","-0.21066972505952636","-0.8648363142649517"
"0.0476243681796709","0.08920687269466863","0.05034542239566632","0.0012145097685619455","-0.007709260727489179","0.003366587366577385","-0.006942921006992676","-0.21411037199567784","-0.8617637462598877"
"0.047579115671013944","0.08894511590773627","0.05026487756116066","0.0021921627317909704","-0.002635423104807431","0.0033514678817278746","-0.021014152815851256","-0.21492304013703875","-0.8647872839244454"
"0.04718243410576572","0.08892953514660934","0.05012857091815106","0.000620595317171267","-0.005862353390094483","-0.002353164716547993","-0.0494631185125734","-0.18654825704549496","-0.8504540810497587"
"0.047402919733051746","0.08896589025590548","0.050615970429518695","0.0015415365524962773","-0.005325656525495856","-0.0043291333464791654","-0.07610093556063048","-0.18568281824560412","-0.826412870754817"
"0.04758970668367834","0.0891725950201894","0.05066347122935537","0.001423609354062115","-0.0006415673282316613","-0.0003533155519588474","-0.07139194907410165","-0.21275284680499537","-0.8287336402054503"
"0.047421213300381154","0.08911754299754093","0.05033716138699907","-0.0005332851092349945","-0.0025425631790708574","-0.0004224817346572489","-0.09318146050880922","-0.18585432288582637","-0.8498493735168472"
"0.04746550298970499","0.0890282133004132","0.05048379429084273","0.0018925550564484008","-0.00612018328183678","0.0022141088809697765","-0.016054391901045646","-0.1998240354651623","-0.8775842027966"
"0.04747898246036876","0.08890356721139778","0.049893132171134495","0.0009053997546730033","-0.005904738680939708","0.0032374771588737023","-0.05208231809679642","-0.19309049943674314","-0.839373224095326"
"0.04743372995171181","0.0889793935822155","0.05015954970065324","0.001803211893621311","-0.0019858822840624264","0.0009818101936446095","-0.05077271830468491","-0.21674626638924788","-0.8768487476890048"
"0.047379812069056705","0.08921622115134481","0.04970312897178779","-0.0008881546115848375","-0.004876003874789991","-0.0005485098001845466","-0.024302084208812465","-0.20345993383787456","-0.8327868150206411"
"0.04741158510704989","0.08905625867044169","0.05054575185584709","0.0022825649191774333","-0.008629459512191637","-0.003050651064180293","-0.07501424637143149","-0.18186486110096362","-0.8353527361738061"
"0.04738077488838983","0.08933775108813485","0.050202919996156295","0.0006050305443972846","-0.006043956770632917","0.005900181042073877","-0.04859933992628694","-0.18759443535085082","-0.8429197520586179"
"0.04734803903106353","0.08902509714818782","0.05064694921202088","0.0004966547847390657","-0.0025193481976367137","0.000874444863027863","-0.0881659719432754","-0.2207832217667876","-0.8736127452155864"
"0.047360555682394175","0.08909988480159708","0.05018020222232137","-3.0787583308578145e-05","0.0011297118222229395","-0.00693366482970458","-0.08083778587252326","-0.19392427584151606","-0.8685299332497625"
"0.047336485199066","0.0890635296923009","0.050114114152983384","0.0015145699362162472","-0.007932866471344028","0.0019095592575724997","-0.09627434512422185","-0.2035298549604267","-0.8452078346155805"
"0.047246943001085215","0.08890876079844011","0.05025042079599297","-0.00015966124468825787","-0.004826630156543973","-0.003930639058792235","-0.07537647610116438","-0.20674358806489948","-0.8228990296851959"
"0.04733455956039975","0.08916428528092173","0.049670084937118796","0.0005104336570061058","-0.01001730854145406","-0.0012304883615907839","-0.03182531705711288","-0.2179731842000688","-0.8702133082738136"
"0.04739136590105422","0.08913208504125941","0.04943671144226904","-0.0001404447626836381","0.0018618213913677336","0.001440449937675907","-0.08170156445880972","-0.21127131056676754","-0.8493263832181129"
"0.04732011727040285","0.08930866700069792","0.049884871162467245","0.001130221041131862","-0.0027349842622981907","-0.0012884908797133028","-0.06632073285783963","-0.2179731842000688","-0.870491146870016"
"0.047155475164438174","0.08911754299754093","0.049967481249139724","0.0014572574525621882","-0.0030446769012237767","0.004143360001534484","-0.056484802504320565","-0.19257730478253957","-0.8823564892725503"
"0.04724116608508645","0.08914662708497788","0.049248773495089146","-0.001674143384559368","-0.0018071029940489702","-0.0030589024684320324","-0.0352247037515302","-0.2024638876581221","-0.8545072558649494"
"0.047608963070340876","0.08903652303968092","0.049992264275141474","0.00040771597674373614","0.0037814849592364475","-0.0012469911700942616","-0.08660559772288712","-0.21468161437426433","-0.8855107745117914"
"0.047358630043727916","0.08903548432227246","0.049217794712586964","-0.0003309729084108057","-0.010333223752722817","0.0015205176815210179","-0.05049408005104418","-0.1980799652007481","-0.8469729268738087"
"0.047335522379732875","0.08901782612632857","0.049339644590428874","0.00010218739136467303","-0.0037748718327245173","0.000677867291148196","-0.08072633057106714","-0.20767894798734254","-0.8594920071497605"
"0.04748475937636752","0.0888952574721301","0.049781608554126645","0.001841336777758733","-0.0021246935132562734","-0.004089599934818385","-0.05322473493672361","-0.2081433297824059","-0.857203924592798"
"0.0475020901243638","0.08889941234176393","0.049143445634581735","0.00208635655081363","-0.002362826570235375","0.0003751378304535088","-0.045255680882597835","-0.20333988058971894","-0.8819642465484995"
"0.047427953035713045","0.08916428528092173","0.0500500913358122","0.0026386859960065355","-0.005513530344318563","0.002276892359791097","-0.11020625780626006","-0.1998042464682136","-0.8685953070371043"
"0.04744143250637682","0.08908014917083629","0.049378884381598306","0.0023038416853248334","-0.004262865102252544","-0.002279872831723723","-0.08058701144424678","-0.21843492746220564","-0.8743482003231816"
"0.04747416836370313","0.0892816603480779","0.0489658339482359","-0.00024317014494280314","-0.010869561622763185","0.001296390126974956","-0.09638580042567796","-0.2110351618698461","-0.8746260389193841"
"0.04759452078034398","0.08893265129883471","0.04875311297505427","0.0007122914400193638","-0.008956862549324715","-0.000726351830645559","-0.0686612941884219","-0.21244941551844826","-0.8687423980586234"
"0.04756371056168392","0.08917363373759786","0.04907529231307694","0.0028893859916980682","-0.01167538474120402","-0.005052587348668409","-0.07144767672482955","-0.20308262362938553","-0.8761132925814098"
"0.047417362023048644","0.08922660832542943","0.04927355652109089","0.0011080104078730153","-0.007124606976501133","-0.0012848505543081238","-0.07239504678720816","-0.19443351269632989","-0.8811797611003982"
"0.04740869664905051","0.08898354845184933","0.04949453850293977","0.0023422553943420843","-0.006593242377741193","-0.0035190395996466607","-0.06955293660007232","-0.22406819526027574","-0.8519413347117842"
"0.0476927283523229","0.08917882732464019","0.04933551408609525","0.0003150898377825902","-0.007756576210267842","0.000484930044673708","-0.05946623181827678","-0.20085570183942245","-0.8411546598003897"
"0.04709770600445057","0.08889421875472164","0.0491042058434123","0.0004543323123481295","-0.007065533225290931","0.0007495088951221191","-0.04887797817992768","-0.208064173794611","-0.8545399427586204"
"0.04729219550974217","0.08928373778289482","0.04937268862509787","-0.000897782107579136","-0.004615565289257672","-0.003831136831050675","-0.055258794188301215","-0.19190052108689318","-0.8687097111649524"
"0.047468391447704365","0.0892349180646971","0.049013334748072575","0.0012440180437844704","-0.007258746489843491","-0.001025659385459378","-0.0047138149778665","-0.2113188041594445","-0.8339471997459578"
"0.04734707621173039","0.08897212256035629","0.04980226107579476","0.0006567234586394717","0.0003937729777900387","-0.002961341747573235","-0.016472349281506746","-0.21189136580449427","-0.8830265705928034"
"0.04734515057306415","0.08909157506232938","0.04866430713188134","-6.067133087488061e-05","-0.011781168471037955","0.001577614972059449","-0.07883159044630991","-0.1797012641012364","-0.8443252884864664"
"0.04768117452032538","0.08886305723246779","0.049027791513240264","-0.0005639968214568068","-0.005917590686125414","-0.003529232510781162","-0.11179449585201232","-0.2014586066131269","-0.8363823733244392"
"0.04725657119441649","0.08922245345579556","0.049226055721254214","0.0005374253047757212","-0.005461547932282522","-0.0018852615578023163","-0.03959932433369039","-0.2032501704702181","-0.8253505467105128"
"0.047382700527056086","0.08909988480159708","0.05029998684799646","0.0019339532892238848","-0.00665046611032783","0.004278052041526108","-0.0979183108207023","-0.21677265171851284","-0.8552753978662154"
"0.04738462616572234","0.08907807173601937","0.049872479649466374","0.0011171757840595874","0.0030395628721658816","-0.0009985025579367424","-0.006413508325075468","-0.19337282245987825","-0.871880339851029"
"0.0475560080070189","0.08922245345579556","0.04920953370391972","0.0008386908349285089","-0.0015464729447522455","-0.002289094989416843","-0.01753117464534178","-0.22016316652906093","-0.8402721136712756"
"0.04732396854773536","0.08880800520981928","0.049126923617247235","-0.000530589410356591","-0.001967693226443922","-0.006081585996532344","-0.05456219855419907","-0.21975419392545395","-0.848345776407986"
"0.047421213300381154","0.08902198099596245","0.050322704621831395","0.0005669610183618298","-0.009799039850032009","0.00021192990812131604","-0.08822169959400361","-0.2115536335899027","-0.8609465739181154"
"0.04733167110240037","0.08925465369545788","0.05026074705682703","-0.000889598735983982","-0.004971376762434384","-0.0022391011871857173","-0.024608586287817147","-0.23227403266168","-0.8501435555598852"
"0.04718821102176448","0.08886097979765087","0.05001085154464278","0.0005249085972335336","-0.00010187884231420092","-0.0024359214474257295","-0.10374185032179406","-0.22041382715707808","-0.8589363299573555"
"0.047461651712372474","0.08902613586559628","0.04979606531929433","-0.0003089837075598277","-0.0038610305267069056","-0.0016750934377433144","-0.05082844595541312","-0.206746226597826","-0.8493263832181129"
"0.047430841493712426","0.08941980976340333","0.049670084937118796","0.0012760487229575017","0.0006754640411713483","0.0005628572771805735","-0.11157158524909978","-0.21121590137531113","-0.8587892389358364"
"0.04752519778835885","0.08910923325827322","0.04998193801430741","0.0017745219555583014","-0.0035099338487286735","-0.006618655337976422","-0.12589359148623483","-0.21726078030991472","-0.8614532207700142"
"0.047219021240424534","0.0890832653230617","0.050109983648649756","0.00012808535558933595","-0.0023750323852162135","0.004636745438116413","-0.06726810292021825","-0.20272378315138198","-0.8211666243206385"
"0.0472247981564233","0.08898770332148322","0.05051890357767854","-0.00028275840847135866","-0.009028637528006152","-0.00014171557057380827","-0.08136719855444077","-0.2088781612024352","-0.8212973718953223"
"0.04737210951439169","0.08960366274470107","0.05031444361316414","-0.0013883030284886453","-0.006638403893170296","-0.005164952059508268","-0.11600193348198756","-0.226944196150157","-0.8672551443965977"
"0.04751171831769507","0.08920583397726017","0.050215311509157166","-0.0007304562271982278","-0.0025267674185074193","-0.0027220510242728013","-0.04051883057070475","-0.18097699477119752","-0.8680396298446991"
"0.047219021240424534","0.08920064039021788","0.050091396379148445","-0.0007082167114513982","-9.326297291596177e-05","-0.002365299134565257","-0.030153487535268482","-0.1852778034413869","-0.8437532678472256"
"0.04719302511843011","0.08909053634492092","0.05078119060286366","-0.0008969156329396492","-0.012139445040181386","-0.0001177864982437651","-0.0005899688239833999","-0.1852685685761441","-0.8579066928067223"
"0.04720843022776014","0.08885786364542544","0.05057466538618246","-0.00021965017222873176","-0.007615946075312143","0.0013061122226903875","-0.03667362267046207","-0.21906817536456485","-0.8738578969181181"
"0.047560822103684536","0.08897212256035629","0.05015335394415281","0.0034694426253545534","-0.010034300950545031","0.0055101808469990325","-0.045339272358689994","-0.22455632385167767","-0.8581191576155831"
"0.047643624566333434","0.08906664584452631","0.050725428794359734","0.0015767731878354098","-0.006177454880364518","0.00045422996709003165","-0.06431453743162598","-0.20281217400441967","-0.8295671559940581"
"0.047339373657065385","0.08904275534413167","0.049984003266474224","0.0020118397318177597","-0.00604836043721424","0.00040197916310769527","-0.08727432953162499","-0.23687827261841649","-0.8279001244168427"
"0.0476494014823322","0.08914766580238634","0.05012857091815106","0.0003622934506426358","-0.010037412236716618","-0.0020837806365647457","-0.0999523700722799","-0.20557867577785127","-0.8640191419231794"
"0.04745394915770747","0.08884332160170698","0.049806391580128395","0.0006144847454636858","-0.009563300090107973","0.0011868478817659127","0.035131455292762695","-0.17952580166162438","-0.8489831708345686"
"0.04723153789175519","0.08894199975551088","0.050770864342029605","0.0014601071913765006","-0.0019858822840624264","-0.000287741156993556","-0.031184449073739257","-0.22004443254736852","-0.8694941966130539"
"0.04757430157434831","0.08911546556272402","0.05003563457064453","-0.00016361814554191452","-0.005292030701872174","-0.004090327999899421","-0.08228670479145513","-0.17879756657391135","-0.8514837182003918"
"0.047427953035713045","0.08889941234176393","0.050215311509157166","-0.0006724024263526078","-0.006739927554246209","0.0035763914540958685","-0.03508538462470983","-0.18532925483345355","-0.8716351881484973"
"0.047470317086370624","0.08924738267359866","0.050541621351513466","0.003148943283704357","-0.002672040549749946","-0.006250739783692997","-0.07833004158975634","-0.17519596912924357","-0.8486236150041887"
"0.04760800025100775","0.0889544643644124","0.050207050500489916","-0.00015270056508438006","-0.010870279611879705","-0.0023436998704945283","-0.09162108628842093","-0.2041037358719397","-0.870670924785206"
"0.047568524658349556","0.08888590901545393","0.05044868500400693","0.0017478537916540942","-0.000865101273174857","0.0028516269347607604","-0.14185956341985065","-0.22018955185832587","-0.8412200335877316"
"0.04746742862837124","0.08924530523878174","0.049537908798442824","-0.0015578432329482418","-0.008545909511999272","-0.002370638278492852","-0.06503899689109206","-0.17121838074255002","-0.8095137467269654"
"0.04777071671830617","0.08900016793038472","0.049275621773257706","0.003373456490291398","-0.0007921057129953337","0.006586503725130296","-0.1291536590538321","-0.1871142223582285","-0.8364967774522875"
"0.04721613278242516","0.0891487045197948","0.049922045701469867","0.0004676952767882159","-0.005111121377479709","-0.003900545702109422","-0.05835167880371385","-0.21719481698675228","-0.839373224095326"
"0.047379812069056705","0.08896900640813087","0.04983530511046376","0.0016778618957755441","-0.007165013010681818","0.0023021562181030396","-0.02981912163089954","-0.19084774644922106","-0.8700498738054592"
