"AccX","AccY","AccZ","GyroX","GyroY","GyroZ","MagX","MagY","MagZ"
"0.047672509146327244","0.08946343589455874","0.048490825949869136","0.0006094986652882387","-0.004930116321205042","-0.0010766239411318837","-0.08301116425092121","-0.21444018861148992","-0.85507927650419"
"0.04781596922696313","0.0894644746119672","0.04818723388134777","0.0011159049545883403","-0.010410766577306966","-0.000687109122777729","-0.08072633057106714","-0.2147818786254712","-0.8554551757814053"
"0.047672509146327244","0.08946343589455874","0.04864778511454685","0.0002599242857352597","-0.007035260410841396","-0.0004490318412790212","-0.08002973493696532","-0.21341116077015626","-0.8560762267611522"
"0.04781693204629625","0.08938657080633255","0.048189299133514586","0.00044149886018772966","-0.006617151415321307","-0.0015173460035188902","-0.08225884096609118","-0.21477132449376524","-0.8554878626750761"
"0.04781596922696313","0.08961820478841953","0.049116597356413175","0.0002702257064491591","-0.004087915087527195","-0.0014979309346912692","-0.08053128379351857","-0.21486895021204558","-0.8526604463725441"
"0.048031640757583524","0.08962132094064494","0.04850734796720363","0.00042956076515479944","-0.0011410484236240067","0.00023559202325497975","-0.08186874741099402","-0.2141090527292146","-0.8550465896105192"
"0.04781789486562939","0.08915285938942863","0.048499086958536386","0.0018932289811680017","-0.006199999738623243","-0.001086816852266385","-0.08287184512410085","-0.21516578516627646","-0.853575679395329"
"0.047672509146327244","0.0894644746119672","0.04818103812484733","0.00041406049660397886","-0.003453212708523601","0.0019317409737080568","-0.08133933472907681","-0.21752463360256438","-0.8546053165459621"
"0.047673471965660366","0.08923076319506328","0.04818310337701415","0.0005985233198547383","-0.001137219148335901","0.0006622381607419606","-0.07610093556063048","-0.21531750080955","-0.8555368930155824"
"0.04781693204629625","0.08930866700069792","0.048499086958536386","0.0021274659587092845","-0.0009323529204222213","0.0019492145356529164","-0.0775219906541984","-0.21652199109049566","-0.8547033772269749"
"0.047959429307599014","0.08962132094064494","0.04819342963784821","0.0017849196512321438","-0.0007222214389873971","0.0019518841076167145","-0.07754985447956235","-0.21383992237071198","-0.8536410531826708"
"0.04781596922696313","0.08946551332937566","0.047877446056325976","0.0009483865242875461","-0.0007193494825213172","-0.00019056873751131085","-0.07947245842968353","-0.21583465326314333","-0.8545562862054558"
"0.047742794957645496","0.08977712855191419","0.04787538080415916","0.002116201788395955","-0.0009306776124836749","0.0032359482222035266","-0.07810713098684381","-0.21860643210242794","-0.8530036587560884"
"0.047960392126932136","0.08938760952374102","0.048038535725337304","0.0009269172082202605","-0.004932988277671121","0.0019205773091321749","-0.07473560811779076","-0.21759059692572677","-0.8535593359484935"
"0.04781500640763","0.08962132094064494","0.047722552143815065","0.001639737011638122","-0.006620980690609413","-0.0015163752500775094","-0.07359319127786357","-0.21759059692572677","-0.8537391138636834"
"0.04781404358829688","0.08977816726932265","0.04756765823130417","9.211703055463671e-05","-0.005983645684845245","-0.0006548315708518086","-0.07612879938599443","-0.21664072507218804","-0.85123856649786"
"0.047671546326994114","0.0894644746119672","0.04787125029982554","-0.0007547175171038603","-0.004083607152828075","-0.0014993870648533406","-0.07621239086208689","-0.21727397297454717","-0.8525296987978604"
"0.04781596922696313","0.08946551332937566","0.047877446056325976","0.0007824084933458397","-0.003668609443479572","-0.0010681298485197997","-0.07426192308660146","-0.2176301749196242","-0.8524806684573542"
"0.047671546326994114","0.08962028222323645","0.04818103812484733","-0.0015883623952501682","-0.005346550008786585","-0.004291516650625648","-0.07200495323211102","-0.2176301749196242","-0.8530526890965947"
"0.0478872178576145","0.08962132094064494","0.0481913643856814","0.0001856000166592752","-0.004510332017746405","-0.001501571260096448","-0.07501424637143149","-0.21679903704777784","-0.8516308092219109"
"0.047742794957645496","0.08969922474627959","0.04787538080415916","-0.0006065503537516061","-0.004504827434519752","0.001068498475959939","-0.07403901248368892","-0.21488873920899432","-0.8533305276927973"
"0.047670583507660985","0.08969818602887109","0.04787125029982554","0.00042137739355964566","-0.0032430812270887754","0.0010777206336530594","-0.07328668919885889","-0.21739270695623955","-0.8548014379079875"
"0.04781596922696313","0.0894644746119672","0.04818723388134777","-0.0011913244604452975","-0.005347267997903105","-0.0006516766221673198","-0.07203281705747527","-0.21694415635873515","-0.8530526890965947"
"0.04781693204629625","0.08938657080633255","0.048189299133514586","0.0005073509327887314","-0.0032452351944383356","0.0010762645034909878","-0.07562725052944116","-0.2163584020490529","-0.8548668116953293"
"0.047672509146327244","0.08938657080633255","0.04818310337701415","0.0015551113218482382","-0.0026160373986613937","-0.0012746576431736227","-0.07373251040468394","-0.2150219851217824","-0.8546053165459621"
"0.04774375777697862","0.08962028222323645","0.048185168629180965","0.0009479051494878313","-0.00535325124054077","-0.0006507058687259386","-0.07582229730698943","-0.2164296424380683","-0.8523008905421641"
"0.04781596922696313","0.08938760952374102","0.047877446056325976","9.808607807110184e-05","-0.008722774164368676","-0.0015326353702206422","-0.07359319127786357","-0.21674626638924788","-0.8535266490548227"
"0.048030677938250395","0.08962132094064494","0.048197560142181836","0.001977180746238285","-0.007466771869869858","-0.001093854814716398","-0.07824645011366418","-0.215700088083892","-0.8536573966295061"
"0.048030677938250395","0.08954445585241877","0.047732878404649126","0.0007856818419839013","-0.004303551152188672","-0.0015006005066550668","-0.08164583680808181","-0.2187119734194878","-0.8541803869282404"
"0.047671546326994114","0.08962028222323645","0.04818103812484733","0.0004298495900346284","-0.006614518788560734","-0.0002313403820493158","-0.0755436590533487","-0.2165615690843931","-0.8538044876510252"
"0.04781500640763","0.08962028222323645","0.04818723388134777","-0.0007932275010810541","-0.005346550008786585","0.0027753257142682083","-0.07702044179764483","-0.2162515414655298","-0.8525460422446958"
"0.04781596922696313","0.0894644746119672","0.04834212779385867","0.0017796245284352795","-0.008515275309694424","0.0018960657847373026","-0.07637957381427121","-0.2160272661667776","-0.8544745689712786"
"0.047671546326994114","0.08962028222323645","0.04787125029982554","0.0002462532414233558","-0.009141361819299776","0.0010354928589529828","-0.08047555614279037","-0.21539006046502865","-0.8577922886788741"
"0.04795846648826589","0.08969922474627959","0.04819342963784821","-0.00043123365169543015","-0.008510967374995303","0.00018365671414109246","-0.07927741165213527","-0.21508003284616534","-0.8571222073586209"
"0.048031640757583524","0.08946551332937566","0.048197560142181836","0.000594287221617247","-0.006197606441568177","0.000627291036852242","-0.08120001560225645","-0.21623966806736053","-0.8575961673168488"
"0.04781596922696313","0.08946551332937566","0.04803233996883687","0.0016055594008583622","-0.005354447889068303","0.0025607892037229915","-0.07810713098684381","-0.21509454477726103","-0.8568770556560892"
"0.04781500640763","0.08962028222323645","0.04818723388134777","0.000400774552131847","-0.005981970376906699","0.0031993022797913917","-0.08189661123635829","-0.216098506555793","-0.8565501867193802"
"0.04781596922696313","0.08961924350582799","0.04865191561888047","0.0006806458606861046","-0.003666934135541025","0.0006462207289591731","-0.08420930874157662","-0.2180919181817611","-0.8574654197421653"
"0.04824731228820392","0.08962132094064494","0.048515608975870886","0.0004377441367499532","-0.005147188364099558","-0.00107783738293361","-0.08203593036317865","-0.21704969767579496","-0.8586911782548238"
"0.048249237926870164","0.08915493682424555","0.04820788640301589","0.0004285017405954266","-0.004936099563842706","0.00020622673165320222","-0.08437649169376094","-0.21550615591379452","-0.858772895489001"
"0.047669620688327856","0.08993189744577502","0.04818103812484733","0.0012865041836073099","-0.00703861102671849","-0.0004468476460359137","-0.08259320687046012","-0.21714204632822237","-0.8557003274839371"
"0.047960392126932136","0.08946551332937566","0.04819342963784821","0.0009476163246080022","-0.0011422450721515402","-0.00019348099783545405","-0.08120001560225645","-0.21707608300505996","-0.8578086321257097"
"0.047960392126932136","0.0894644746119672","0.04866017662754772","0.002338115571064536","-0.001569448596480882","-0.0027657349291349484","-0.08131147090371256","-0.21636235984844263","-0.8591161078725454"
"0.04781596922696313","0.08962028222323645","0.04834212779385867","0.0006869037330823986","-0.0007179135042882776","0.00023874697193946803","-0.0796675052072321","-0.21641644977343583","-0.8577759452320386"
"0.047960392126932136","0.08938657080633255","0.048505282715036825","8.78809323171454e-05","-0.006195452474218616","-0.0002296415635268987","-0.08167370063344576","-0.2170365050111625","-0.8591161078725454"
"0.047671546326994114","0.08977505111709727","0.04880061377489094","0.0018634800185456193","-0.003667891454363052","0.002360571306438146","-0.07612879938599443","-0.2168122297124103","-0.8565992170598865"
"0.04781789486562939","0.089306589565881","0.04911866260857999","0.00027003315652927314","-0.005352054592013237","-0.0015083665341861156","-0.07924954782677102","-0.2154322769918526","-0.8566972777408993"
"0.04781596922696313","0.08962028222323645","0.048497021706369575","0.000271092181088646","-0.004088393746938208","-0.0014981736230516142","-0.08089351352325146","-0.21755101893182932","-0.8593122292345706"
"0.04781596922696313","0.08961820478841953","0.049116597356413175","0.0007990640614159762","-0.0032481071509044158","-0.003205000861359883","-0.08253747921973222","-0.21564995595828856","-0.8599986540016594"
"0.04796135494626527","0.08930866700069792","0.048505282715036825","0.0014465131670325512","-0.003460153269983293","0.0012886168187930971","-0.07972323285796032","-0.21555892657232445","-0.8579884100408995"
"0.04808267018223924","0.0895621140483626","0.048596153810376554","-0.000351142512518861","-0.0058354766641660885","0.000487284121769057","-0.10917529626778898","-0.2124006026593081","-0.852987315309253"
"0.04785737045828758","0.08968468270256112","0.047757661430650876","0.0003138767732873086","3.884702452370046e-05","-0.003895206558181826","-0.0677696517767715","-0.23752471318540813","-0.8506011720712777"
"0.04770909628098606","0.08964105657140571","0.04846604292386739","-0.001730271686206128","-0.0046695820037905185","0.0020584242978082872","-0.10544154366900273","-0.2188043220719152","-0.8451261173814031"
"0.047647475843665944","0.08978336085636499","0.048273974472353876","0.00022829796139398913","-0.0006140444120983974","5.270207489878562e-05","-0.11566756757761894","-0.207112982674609","-0.8432466209953268"
"0.04773027830631485","0.08946862948160104","0.04905050928707519","-0.0022067364629639614","9.891878060586513e-05","-0.004973470943195852","-0.06765819647531508","-0.2243056632236605","-0.8380167180079839"
"0.04764266174700031","0.08954757200464414","0.048482564941201886","-0.0004419201722491015","-0.0049252579281832565","-0.008113615637703272","-0.03876340957276788","-0.22554577369911383","-0.8420045190358328"
"0.047871812748284476","0.08957561737467262","0.0483813675850281","-0.0019473717208775597","-0.0017678529223458818","-0.004168230963570252","-0.12333011955273972","-0.21149162806613003","-0.8916395670750838"
"0.047697542448988536","0.08937618363224793","0.04821201690734951","0.0014022459404507666","-0.009861265573463734","-0.001905890068431664","-0.14091219335747218","-0.24569097259291495","-0.8382128393700092"
"0.04780922949163124","0.0896576760499411","0.04789190282149365","0.00042477589964563307","-0.004081692515184022","0.0024722807587050726","-0.09070158005140658","-0.2213768916752493","-0.8420535493763391"
"0.04772931548698171","0.0892328406298802","0.04855691401920712","0.0011361612061603443","-0.002197210414024784","-0.00038025395995717234","-0.07320309772276641","-0.20082008164491474","-0.8409912253320353"
"0.04774857187364426","0.08976985753005498","0.0481913643856814","0.00039655770888634423","-0.007957206302394052","0.0016677688441605093","-0.04545072766014641","-0.2110351618698461","-0.844717531210517"
"0.04756756183901642","0.0893419059577687","0.0481913643856814","-4.568131961175792e-05","-0.005506278654241712","-0.0021760022134959477","-0.05227736487434499","-0.22565131501617372","-0.8436878940598838"
"0.04763881046966781","0.08959535300543339","0.04801581795150238","0.0007852582321601523","-0.005580949522359782","-0.0014241536731463076","-0.057237125789150606","-0.2251763790894043","-0.8736290886624218"
"0.04784196534895755","0.08951952663461567","0.048156255098845586","0.0032090188587087787","-0.0028414859812486435","0.0016726711490394836","-0.1243053534404826","-0.22846135258289257","-0.8688894890801423"
"0.04799505362292471","0.08938760952374102","0.047286783936617734","-0.0022178080833574042","-0.006519409163592396","0.0009416938076795367","-0.0660420946041989","-0.21623439100150757","-0.8509280410079867"
"0.04814814189689186","0.08971896037704036","0.047635811552808965","0.0012746142260543509","-0.0031779835471909715","0.002796221182093936","-0.03932068608004935","-0.2045549250023706","-0.8498820604105182"
"0.047565636200350175","0.0897366185729842","0.04826777871585344","0.0006173556647691855","-0.0021256508320783","-0.0032768366160220827","-0.09777899169388193","-0.2218122496081212","-0.843475429251023"
"0.047831374336293156","0.08941980976340333","0.04810049329034167","-0.0008446383296906081","-0.004805353745724433","0.004940348576908344","-0.08905761435492582","-0.22224760754099315","-0.8456164207864666"
"0.0476638437723291","0.08954341713501031","0.048292561741855186","6.38121923313991e-05","-0.009685358239916357","0.0014920891669901733","-0.10415980770225516","-0.21613016895091092","-0.8635451819649513"
"0.047717761654984196","0.08966390835439186","0.048488760697702325","0.0030203199372205282","-0.004687340267939112","0.0018616768440763783","-0.11009480250480365","-0.24021601677043464","-0.865767890734572"
"0.047892994773613265","0.08957977224430645","0.04766679033531115","0.0018709894654211723","-0.004422258686119963","-0.0009855915371663737","-0.10237652287895435","-0.23297324388720161","-0.859214168553558"
"0.047938247282270224","0.08951121689534798","0.04766679033531115","-0.0001501492786458909","-0.004228640954365095","-0.00047279103175682283","-0.04720614865808328","-0.21691777102947016","-0.8445867836358334"
"0.04805474842157856","0.08907183943156861","0.04840408535886303","-0.0014986341325833063","-0.005849836446496485","0.00345346979958099","-0.07083467256681987","-0.21082012143633663","-0.885674208980146"
"0.04790551142494391","0.09002642072994504","0.0482264736725172","-0.0005711211684925876","-0.011723729341716362","0.0010927915808305005","-0.021264927244128037","-0.1982092533141464","-0.8704584599763453"
"0.04800757027425535","0.08950290715608028","0.04807364501217311","0.001298220846232371","-0.009676263711107105","-0.003391628210465395","-0.04143833680771942","-0.18656804604244367","-0.8691182973358386"
"0.04783907689095817","0.08975427676892805","0.048030274716670054","7.042628207948215e-05","-0.008110832040358762","-0.0014270659334704508","-0.039097775477136824","-0.2231315160713695","-0.8579557231472286"
"0.04783811407162504","0.08968779885478649","0.04824093043768489","0.0006585238003904055","-0.0037483062354132803","-0.001020829887088507","-0.08340125780601837","-0.21106550499850082","-0.8671080533750788"
"0.04757719003234769","0.08944577769861486","0.048046796734004554","-0.000735269975195377","-0.0023185505747166475","-0.002391994854203236","-0.029624074853350967","-0.2085285555896744","-0.8700335303586236"
"0.047698505268321666","0.08937306748002255","0.048490825949869136","-0.0011026552223378084","-0.005658827408531641","-0.0013506190999616917","-0.060859423086480444","-0.2305721789240898","-0.845158804275074"
"0.04790551142494391","0.08954341713501031","0.04761928953547447","0.0017571924627685638","-0.0050547592318328964","-0.0007174208989848528","-0.15450974013514146","-0.22261700215070268","-0.8587238651484945"
"0.047811155130297496","0.08965871476734956","0.04837104132419404","-0.0007031141385744201","-0.0008270478499993032","-0.0013018387395322924","-0.027562151776409416","-0.20842829133846752","-0.8214608063636767"
"0.04774568341564488","0.08951017817793953","0.04788157656065959","0.0008953679038469442","-0.0038852028269630756","0.0034097616258828077","-0.05227736487434499","-0.21901540470603492","-0.8623357668991283"
"0.04786411019361946","0.08945408743788257","0.048065384003505865","-0.0028061443635689865","-0.00538244946461258","0.0016127756617062715","-0.08680064450043569","-0.22822388461950782","-0.8738578969181181"
"0.0478400397102913","0.08975635420374496","0.04811495005550935","0.0001901827047525613","-0.0023006008468036505","0.0014724799474742755","-0.10895238566487646","-0.2071921386624039","-0.8533632145864681"
"0.04781019231096436","0.08950706202571411","0.0480901670295076","0.0031558750808202514","0.001199117436819863","0.0032945574612269087","-0.10176351872094468","-0.2073174689764125","-0.8741030486206498"
"0.04754445417502138","0.08959223685320801","0.04780309697832073","0.000741905617697826","-0.004300918525428099","0.005206820396567447","-0.04380676196366596","-0.2233162133762243","-0.8692000145700158"
"0.04766576941099535","0.08962028222323645","0.047929077360496265","0.00015895110774705697","-0.005707243807955634","0.0003519368232045011","-0.1226892515693661","-0.19583721221322603","-0.8469075530864668"
"0.047719687293650455","0.08963897913658879","0.04829669224618881","0.0032679391341938857","-0.0048531239549435565","0.005326951134938355","-0.08735792100771746","-0.20236626193984175","-0.85123856649786"
"0.048009495912921606","0.08960989504915186","0.04835038880252592","0.0005106599031619718","-0.0047857047769023385","0.0016081160451876424","-0.06272629938587373","-0.21407211326824363","-0.8264455576484878"
"0.04776590262164053","0.08927854419585252","0.04821201690734951","0.0004896642598976056","-0.00630815283254169","-0.0005446025175829876","-0.0881659719432754","-0.20574754188514705","-0.8736454321092574"
"0.04769657962965541","0.08948109409050259","0.04843299888919841","-0.0014841928885918584","-0.006883029965059791","-3.852447975500043e-05","0.008326455292521302","-0.21546789718636028","-0.8419554886953265"
"0.047578152851680815","0.08974908318188575","0.048488760697702325","0.0009370260790142738","-0.005512285829849929","-0.003308386102866968","-0.09095235447968304","-0.20457999106517233","-0.8524806684573542"
"0.04769561681032228","0.0896929924418288","0.04799103492550063","0.0008816198395670859","-0.009469004186138361","9.272138551972049e-05","-0.05339191788890793","-0.23203656469829537","-0.8652612438826731"
"0.047687914255657264","0.08953406867833413","0.04830495325485606","-5.8813224147981007e-05","-0.006187722124730752","-0.0023138492021720597","-0.1385716320268896","-0.22707612279648184","-0.8707526420193832"
"0.04759644641901022","0.0889492707773701","0.04857756654087524","-0.0010582724658040922","-0.006340869203284447","0.000850855554402303","-0.09170467776451309","-0.20394938169573965","-0.8429524389522888"
"0.047827523058960646","0.08990281335833808","0.048057122994838615","0.002893718364895503","-0.004172877132982051","-0.004061448085018335","-0.10864588358587146","-0.2103082460485963","-0.8684318725687499"
"0.048075930446907354","0.08934086724036024","0.04874898247072064","0.0009375074538139889","-0.0034493834332354947","-0.00011732539035910888","-0.06144456341912617","-0.22082279976068506","-0.8602601491510267"
"0.048030677938250395","0.08962339837546186","0.048269843968020254","-0.0005445492795483237","-0.006253753190480033","0.001441634256874392","-0.052639594604078195","-0.2270233521379519","-0.845600077339631"
"0.0477755308149718","0.08983218057456269","0.04857756654087524","0.0005302980694911419","-0.005554431790989647","-0.0009149934931419357","-0.09153749481232877","-0.2143913757523497","-0.8650651225206479"
"0.04795750366893276","0.08932320904441639","0.04961019262428125","0.00010930211090445954","-0.00992061934042938","-0.0006063181676187896","-0.05227736487434499","-0.22408138792490828","-0.8550956199510256"
"0.04784774226495631","0.089850877487915","0.04867463339271541","0.0004367332496705519","0.0008554399797123363","0.001803795670134032","-0.09518765593502257","-0.21648241309659821","-0.8802808715244486"
"0.04767443478499349","0.0895538043090949","0.04910627109557912","-2.9064261525598593e-05","-0.006619760109111328","0.0014648012877529514","-0.023466169447890265","-0.21404968573836838","-0.8668465582257115"
"0.04799601644225783","0.0896275532450957","0.04823266942901764","0.0018184233372923026","-0.007894549785492417","0.0023229788794206637","-0.0747634719431547","-0.2337516111005181","-0.8420698928231747"
"0.047893957592946394","0.08957457865726416","0.048383432837194915","0.0009736683287685741","-0.0053030877342665796","-0.0017384350997934294","-0.07072321726536346","-0.2004797108973967","-0.8390136682649462"
"0.04775434878964301","0.08925465369545788","0.04777005294365175","-0.0007215989308834733","-0.005975245212181962","-0.0018505571222729438","-0.03631139294072918","-0.2234085620286516","-0.87557395883584"
"0.04782367178162814","0.08959950787506722","0.048375171828527665","0.003456060405922479","-0.008074166729475146","-0.008212389800363797","-0.10700191788939133","-0.21001536889375522","-0.8433773685700104"
"0.047873738386950734","0.08990177464092962","0.04873865620988658","-0.001279319773833186","-0.0012487467911019919","-0.008413578451090023","-0.10655609668356597","-0.22190459826054862","-0.8538044876510252"
"0.048192431586215695","0.0896680632240257","0.04950073425944021","-0.000298508991918031","-0.004212366534390645","-0.0026099290017932873","-0.10833938150686678","-0.2007039861961489","-0.841203690140896"
"0.04814717907755873","0.08984256774864732","0.048402020106696225","0.000830180128469549","-0.008064114881843866","-0.004284478688175636","-0.1628688877443644","-0.2107858205082922","-0.8195976534244357"
"0.04768695143632414","0.08941773232858642","0.0481913643856814","0.001980742919756175","-0.005589828654434079","0.0025058688277768575","-0.16052832641378179","-0.22396265394321593","-0.8452895518497577"
"0.04792861908893896","0.08959327557061647","0.048061253499172236","-0.000987606645205941","-0.0040015170638393","-0.0025325114148431467","-0.07562725052944116","-0.24654849579402632","-0.8327050977864638"
"0.04803741767358228","0.08965663733253264","0.04736113301462296","0.0001781964722396597","-0.005926278354435305","0.00022610290836547973","-0.027729334728593732","-0.21262092015867054","-0.863496151624445"
"0.04792380499227332","0.08926919573917634","0.04821614741168313","-0.0014728324433185861","-0.0019384950023721126","-0.0003788220986311351","-0.11263041061293451","-0.2092198512164165","-0.8524316381168479"
"0.048092298375570504","0.08957042378763029","0.04841028111536347","-0.0017525112019529576","-0.0002964538928910941","0.000831464754410716","-0.1417481081183944","-0.21185574560998657","-0.8569260859965955"
"0.04765710403699722","0.0892110275643025","0.048290496489688375","-0.0020452833551395755","-0.0018351045695932462","0.0010576503062525056","-0.08390280666257163","-0.22766979270494359","-0.8495715349206446"
"0.047941135740269605","0.09003265303439584","0.048189299133514586","0.0004622846240394201","0.0017988776788194888","0.0017876083564990026","-0.11313195946948808","-0.21557739630280992","-0.8873412405573614"
"0.04781019231096436","0.08926400215213405","0.048156255098845586","-0.00021787871296578086","-0.004713307540986581","0.007921775083749959","0.0014719542529581502","-0.2548598745124904","-0.8583643093181147"
"0.04781019231096436","0.08960574017951801","0.047431351588294576","0.0013711009909092107","0.00044953679917308546","-0.002617209652603645","-0.0783021777643924","-0.21794679887080382","-0.845779855254821"
"0.047964243404264646","0.08948628767754489","0.04755526671830329","0.0006351299478738595","-0.007209425424132685","0.0025986000502647845","-0.09020003119485301","-0.22067768044972774","-0.8743482003231816"
"0.04811059194289991","0.08947070691641795","0.048402020106696225","0.0007426565623853813","-0.004925329727094908","0.0010310273931226298","-0.1731785031290726","-0.21842173479757318","-0.830547762804185"
"0.0478583332776207","0.08977712855191419","0.048288431237521565","0.001007306799772653","-0.0024049485984045426","0.001236431540668054","-0.0905622609245862","-0.215142038369938","-0.8340616038738059"
"0.047560822103684536","0.08973350242075882","0.04847430393253464","-0.0003650157342466451","-0.004250659287271707","-0.002238858498825372","-0.06077583161038829","-0.22199694691297603","-0.8394876282231741"
"0.04781308076896375","0.08946862948160104","0.04878822226189007","0.002466353817708592","-0.005620606454562232","0.002095604154613182","-0.10112265073757105","-0.24727409234881287","-0.8501272121130498"
"0.04777360517630554","0.08951952663461567","0.04763787680497577","0.0034136994235475656","-0.0034316730350280036","0.003457013049642031","-0.07376037423004789","-0.2217067082910614","-0.8569751163371019"
"0.047722575751649836","0.08958808198357414","0.047528418440134744","-0.0007941902506804839","0.00019632597074706472","-0.0006051047258170629","-0.10137342516584752","-0.1951670248498959","-0.862074271749761"
