"AccX","AccY","AccZ","GyroX","GyroY","GyroZ","MagX","MagY","MagZ"
"0.05172982981612339","-0.0844552521086613","0.052133930772125525","0.0007994491612557482","-0.008642120053612938","-0.0026727852871227115","0.1578158783707911","0.37450938444472975","0.5246181618973678"
"0.05194646416607691","-0.08445629082606976","0.052142191780792775","0.0009720701644335203","-0.0038964513231218873","-0.0013273210173685456","0.15909761433753836","0.3753932929751061","0.5233270295973674"
"0.05165761836613888","-0.08445421339125284","0.051822077694936915","0.0016523490313906529","-0.006632468516473731","0.0008483801331267812","0.15976634614627624","0.37574949492018317","0.5229020999796459"
"0.05165761836613888","-0.08445421339125284","0.051822077694936915","7.940873584216267e-05","-0.008121817273841517","0.00216496448799986","0.15739792099033","0.37522178833488384","0.5215782807859748"
"0.05165761836613888","-0.08437734830302665","0.051822077694936915","-0.0005988483569561673","-0.004744396469731893","-0.00022260360107688606","0.1577601507200629","0.3753932929751061","0.5215782807859748"
"0.051874252716092396","-0.0844552521086613","0.05152055087858236","8.402993391942598e-05","-0.008569842482549935","0.0012813361679827392","0.1593205249404512","0.3764355134810722","0.5224444834682533"
"0.051873289896759274","-0.08468792480815676","0.05152055087858236","0.0011418991937729463","-0.005815636231579588","-0.0009014029449626006","0.1584846101795287","0.37574949492018317","0.5215782807859748"
"0.05194550134674378","-0.08461105971993058","0.051522616130749176","8.84585820768033e-05","-0.002984365815436104","0.0017574907309801547","0.160323622653558","0.3745489624386273","0.5212023815087594"
"0.05180204126610789","-0.08461105971993058","0.052135996024292336","0.0006168155622439055","-0.004301157855133606","-9.03784397305036e-06","0.160323622653558","0.3746940817495846","0.5242259191733171"
"0.05180204126610789","-0.08461209843733904","0.05259861250965823","0.0003502301981617798","-0.006869165595219792","0.00041445334482944214","0.15945984406727157","0.374707274414217","0.5231309082353423"
"0.05180204126610789","-0.08430048321480046","0.05182827345143735","9.086545607537792e-05","-0.010320778608036471","-0.00048592047205150177","0.16216263512758675","0.3771347247065938","0.5246508487910387"
"0.05180204126610789","-0.08461105971993058","0.05182620819927054","0.0006232659845600855","-0.0110035862578469","-0.0026885600305451536","0.15865179313171332","0.37522178833488384","0.5226732917239496"
"0.05165761836613888","-0.0844552521086613","0.052129800267791904","0.0005925542723382733","-0.006794973386512735","0.003926881984106505","0.15483444905683488","0.3765938254566621","0.5219214931695191"
"0.05180204126610789","-0.08430048321480046","0.052135996024292336","0.0006152751628848177","-0.0055882730113482855","-1.8017313305825413e-05","0.1560883211982185","0.37557799027996086","0.5200256533366073"
"0.05180204126610789","-0.08453315591429593","0.052135996024292336","-0.0013127271849334018","-0.00942281355297558","0.002163265669477443","0.15748151246642217","0.3760793115359953","0.5224117965745826"
"0.05180204126610789","-0.0844552521086613","0.05182827345143735","8.547405831857079e-05","-0.00512852064707004","0.0017446282478818555","0.1589025675599898","0.37574949492018317","0.5218070890416711"
"0.05180204126610789","-0.08461105971993058","0.05182620819927054","8.836230711686031e-05","-0.008587074221346412","0.00040426043369494084","0.1620790436514949","0.3760925042006277","0.5238009895555954"
"0.05165761836613888","-0.08461002100252211","0.052129800267791904","0.0013080697746345384","-0.005571998591373834","0.00041882173531565694","0.15884683990926188","0.3760925042006277","0.5215782807859748"
"0.05180204126610789","-0.08461209843733904","0.052443718597147325","0.0014893555242071795","-0.006894055884592482","-0.0013489202814392742","0.15586541059530568","0.3764223208164398","0.5213004421897722"
"0.05172982981612339","-0.084299444497392","0.05182620819927054","0.0013135574473512885","-0.005161069487018943","-0.0004575259338911054","0.16071371620865485","0.3771347247065938","0.5218070890416711"
"0.05180204126610789","-0.08461105971993058","0.05198110211178144","0.00043832178650961116","-0.010317667321864885","-0.00048761929057391883","0.15856820165562116","0.3774645413224059","0.5226242613834433"
"0.05172982981612339","-0.08437838702043511","0.052133930772125525","7.683890684638778e-06","-0.004949741357056585","-9.03784397305036e-06","0.15934838876581514","0.37749092665167083","0.519829531974582"
"0.05180204126610789","-0.08461105971993058","0.052135996024292336","0.0004355298126712645","-0.008584202264880334","0.00040207623845183355","0.15801092514833937","0.3754064856397386","0.5204996132948353"
"0.05194646416607691","-0.08445629082606976","0.052142191780792775","-0.00026034559779663174","-0.007295651130432614","0.0008525058352526507","0.1584846101795287","0.3760925042006277","0.5215782807859748"
"0.05180204126610789","-0.08453315591429593","0.052135996024292336","0.0007832749679853267","-0.007504107303928894","0.0006268056601315516","0.15575395529384925","0.3764355134810722","0.5204342395074935"
"0.05172982981612339","-0.08430048321480046","0.05197903685961462","0.0010494752322276807","-0.002996332300711436","0.000656170951733329","0.1585403378302569","0.3764355134810722","0.5220032104036962"
"0.05165761836613888","-0.08461105971993058","0.05259241675315779","0.0007841414426248136","-0.011171835040818064","-0.0004939291879428956","0.15748151246642217","0.3767785227615168","0.5226242613834433"
"0.05180204126610789","-0.08461105971993058","0.05198110211178144","0.0011251473507428668","-0.005539449751424932","0.0021746720224136706","0.16157749479494132","0.37750411931630334","0.5200910271239492"
"0.05194646416607691","-0.08461105971993058","0.05183240395577097","-0.0003387134151902215","-0.010343275600354095","-0.0013627535179789548","0.15720287421278142","0.37574949492018317","0.5200419967834428"
"0.051874252716092396","-0.08445629082606976","0.052138061276459154","-0.00026602582043326785","-0.008135459067055394","0.0017256985557749247","0.1587632484331694","0.37436426513377247","0.520532300188506"
"0.051658581185472","-0.08430048321480046","0.05259448200532461","-8.61841952597717e-05","-0.010313120057460259","-4.3984967862768945e-05","0.15923693346435872","0.3754196783043711","0.5185710865682526"
"0.05165761836613888","-0.08461105971993058","0.0527473106656687","0.000612964563846186","-0.0068746701784464445","-2.4569899035147463e-05","0.1613545841920288","0.3764750914749697","0.5179336921416701"
"0.051658581185472","-0.08430048321480046","0.052131865519958714","0.002421297136455275","-0.00937877688716236","0.0025809323376316485","0.1565620062294075","0.37573630225555066","0.5208918560188859"
"0.05180204126610789","-0.08453315591429593","0.05182620819927054","0.0006044923673712034","-0.0031755902501359053","0.002632624958385191","0.15940411641654337","0.3754196783043711","0.5198785623150883"
"0.05180204126610789","-0.08453419463170439","0.052753506422169125","0.0011403587944138584","-0.0038768262872703432","-0.0004483037761979853","0.15681278065768428","0.3767917154261493","0.5202217746986327"
"0.05180204126610789","-0.08469000224297368","0.05275144117000232","0.0002594429109355448","-0.009010687800093155","0.0006200103860418841","0.1585403378302569","0.3774777339870384","0.5221993317657216"
"0.052234347146681806","-0.08461209843733904","0.05153294239158323","9.182820567480773e-05","-0.004291106007502327","0.000867309825233712","0.15750937629178613","0.3771347247065938","0.5197968450809111"
"0.05194646416607691","-0.08445629082606976","0.052142191780792775","0.00025693976197702724","-0.006844275305847102","0.0017303096346214847","0.15572609146848532","0.3769500274017391","0.5204178960606581"
"0.05173079263545651","-0.08437942573784357","0.05275144117000232","0.0006189336113626512","-0.007759711429409979","-0.0013486775930789297","0.15555890851630066","0.3769632200663715","0.5191267637606577"
"0.05194646416607691","-0.08430256064961743","0.05275970217866957","0.0012233478098847117","-0.008171597852586896","-0.0006992435407949923","0.15748151246642217","0.3773062293468161","0.5197968450809111"
"0.05172982981612339","-0.08445629082606976","0.05275144117000232","0.0006256728585586601","-0.006061188509429395","-0.002215317727871881","0.15636695945185924","0.3767917154261493","0.5195680368252148"
"0.05180204126610789","-0.08445629082606976","0.052135996024292336","-9.051656845720593e-05","-0.008571278460782976","0.0012835203632258466","0.1569242359591407","0.3762772015054825","0.5178683183543282"
"0.05165761836613888","-0.08437734830302665","0.052131865519958714","0.0010535187805452858","-0.008183803667567734","-0.0013535313602858344","0.15633909562649498","0.3771347247065938","0.5193392285695184"
"0.05201867561606141","-0.08453523334911285","0.05275970217866957","0.001148542166009012","-0.006925408076013851","-0.002666475389753734","0.15486231288219884","0.37764923862726063","0.5195190064847085"
"0.05209088706604592","-0.08445732954347822","0.0521463222851264","9.953020247024656e-05","-0.006908654996628387","-0.001343823825872024","0.15647841475331534","0.3774777339870384","0.5206467043163542"
"0.05201867561606141","-0.08476790604860833","0.05260480826615866","-8.050397262313558e-05","-0.0058110889671749615","-1.7046559864444213e-05","0.15951557171799946","0.3771347247065938","0.5211370077214176"
"0.05201867561606141","-0.08445732954347822","0.052144257032959586","-0.000251969676281592","-0.008189547580499893","-0.0009106251026557208","0.15578181911921352","0.3778075506028505","0.5210552904872403"
"0.05194646416607691","-0.08445629082606976","0.052142191780792775","0.0003497488233620648","-0.007727880578577596","0.0004066873172983935","0.15714714656205292","0.376620210785927","0.5198131885277464"
"0.05201867561606141","-0.08445732954347822","0.052144257032959586","0.00043966963594881293","-0.00816992254464835","-0.00025609459480453305","0.15840101870343654","0.3768049080907818","0.5180971266100246"
"0.05180204126610789","-0.0844552521086613","0.05182827345143735","7.295831352598264e-05","-0.007667330163084417","0.0034834903497557","0.1591533419882669","0.37766243129189314","0.5213331290834431"
"0.05204178328005646","-0.08447291030460514","0.05174153286043124","-0.000206720445108389","-0.008175187798169494","-0.0038520080300403687","0.1270263513434867","0.3933089315460176","0.4935819563568548"
"0.051649915811473865","-0.084299444497392","0.05199349362478231","-0.00010416835777712132","-0.009717428420454248","-0.005190434337344521","0.14229572764300066","0.372794338042507","0.5125893850264791"
"0.05183381430410108","-0.08462560176364904","0.05249328464915082","0.00014514527849123288","-0.010186993302658263","0.0021998388053814746","0.19855279105307072","0.369351052573429","0.49953097100495747"
"0.05179915280810852","-0.08430775423665972","0.05189023101644171","0.0017810686528344241","-0.0047706270054554195","-0.004560900730608895","0.1957385446912988","0.3894039028148028","0.5148774675834418"
"0.05179722716944226","-0.08437423215080127","0.052230997623965686","-0.000458286915439409","-0.005516330501872991","0.006616354393452764","0.17417194385950377","0.40665990815409014","0.5226406048302787"
"0.051761602854116566","-0.08481776448421449","0.05208023421578841","-0.0007351737002354343","-0.014479850230330764","0.001251436961988202","0.14653102909834018","0.37931151437095345","0.5030448120745784"
"0.05173656955145528","-0.08474401554821369","0.052113278250457404","0.0007744658091505436","-0.0024528145395058694","0.0039312503745927195","0.20058685030464832","0.3708022456830022","0.5162830040112901"
"0.0518598104260955","-0.08418726301727814","0.05165479226942514","-0.0016138752596350594","-0.013321733785384161","-0.0026628350643485557","0.16361155404651892","0.3908814812536408","0.5209572298062277"
"0.05159407229015252","-0.08480426115790447","0.05201827665078405","-0.001293472192944805","-0.005558739725688767","0.0012385138067998165","0.12591179832892344","0.39464139067389836","0.51427276005053"
"0.051741383648120906","-0.08432956730223741","0.0519563190857797","0.0014103137820939886","-0.006992610182012176","0.002950837936469906","0.19339798336071654","0.3607494352330503","0.4922417937163483"
"0.05192624496008124","-0.08482295807125678","0.05280100722200581","0.0024449807766012493","-0.004499562180998606","-0.0019959274501197585","0.14577870581351013","0.3562375439287412","0.4890711650302716"
"0.05200134486806513","-0.08448745234832361","0.05163827025209065","-0.0006454454375685719","-0.0075345261094987865","0.0013995423876561087","0.14739480768462632","0.38553845207748527","0.5373170200885097"
"0.051649915811473865","-0.08461417587215596","0.05228882468463643","0.0006007665264214099","-0.009168884735433041","0.0006278249512450016","0.1489551819050146","0.39090786658290577","0.5319563695264833"
"0.051492976260174204","-0.08428282501885662","0.05199968938128275","0.0017557483383694192","-0.006851400151180034","0.003574474216049141","0.11769196984652087","0.3824513685534844","0.5350452809783828"
"0.05157000180682434","-0.08457158845840905","0.052367304266975286","0.0024066633425439414","-0.0069436378196822916","0.0011295248910523602","0.1100294178714001","0.37596057755430284","0.4977168484062228"
"0.051739458009454654","-0.08472635735226984","0.05285057327400929","0.0024805062368202105","-0.014539921986412928","0.002252332297724156","0.1487322713021021","0.36890250197592456","0.5238827067897726"
"0.05162488250881257","-0.0846733827644383","0.05228675943246962","0.0012967767218332264","-0.002203672316073463","-0.001443568741973929","0.15193661121897084","0.3797996429623553","0.5392945771555987"
"0.05190024883808682","-0.08445109723902745","0.05195012332927926","-0.0021736178767435745","-0.013652487438394327","0.000474615789359034","0.1742833991609602","0.393810252802052","0.5180154093758473"
"0.05231233551266507","-0.084231927865842","0.05294557487368265","-0.00013117348404112868","-0.0031595551598669605","-0.0017231457330916778","0.17567659042916384","0.37706876138343143","0.5079315026783768"
"0.05203793200272395","-0.08469311839519905","0.05272252763966695","0.001250969095892354","-0.011606936445429124","-0.0007565422626725104","0.14987468814202928","0.3677019694943687","0.527919538158128"
"0.05162488250881257","-0.08433891575891357","0.05172294559092993","-0.002372233119105953","-0.007038429136142305","-0.005928449641154481","0.19339798336071654","0.39882346536239544","0.506542309697364"
"0.05195801799807443","-0.0844687554349713","0.05196664534661375","0.0015843789096709057","-0.00994622761891859","0.005495134168657626","0.1500975987449418","0.3752613663287813","0.5306652372264831"
"0.051783747698778484","-0.0846619568729452","0.05271013612666608","0.0003906849363298221","-0.010867168325708118","0.0032115580419888276","0.16436387733134897","0.37179169553043834","0.5230655344480004"
"0.051824186110769804","-0.08475024785266448","0.05301372819518744","-0.00040909041090854366","-0.006430689641761088","-0.0007865870816832542","0.16035148647892197","0.3569499478188953","0.5273802044125582"
"0.05162295687014632","-0.08475128657007293","0.05282992075234118","0.0010164432934712422","-0.002750301363450616","0.0033455462857354505","0.18818744801763446","0.3798260282916204","0.5242259191733171"
"0.051875215535425526","-0.08457470461063442","0.05111782670605402","0.0002188245053355994","-0.009409411089467207","-0.0008801434445963551","0.0999148492642403","0.3608285912208452","0.5313843488872427"
"0.051871364258093015","-0.08411455279868582","0.051687836304094126","0.0007477591352623594","-0.007314677842020391","0.0020584485666443214","0.18333914240428495","0.38201601062061247","0.5162993474581254"
"0.05184344249743235","-0.08463079535069135","0.05139870100074045","-0.0002057191855249819","-0.010026403070263312","-0.002224054508844311","0.15564249999239316","0.37381017321920823","0.5140766386885048"
"0.05176737977011533","-0.0843108703888851","0.05230328144980411","0.0014589326368651962","-0.005860031891951069","0.002228427494230147","0.15594900207139784","0.37783393593211545","0.5431352871619288"
"0.051653767088806375","-0.0846983119822414","0.05248502364048357","-0.002520304007498264","-0.012470677352602568","-0.0025130963460155246","0.1560883211982185","0.391079371223128","0.5090428570631872"
"0.05184247967809921","-0.08428801860589895","0.05202447240728449","0.0005919862500746096","-0.0038418841502663747","-0.0024405325262722892","0.18793667358935734","0.38391575432769","0.5399646584758521"
"0.051943575708077526","-0.0846079435677052","0.0514069620094077","-0.001576520575177181","-0.00758626919182932","0.008873841521384446","0.11992107587564706","0.390775939936581","0.5408145177112952"
"0.05190602575408559","-0.08442097443418206","0.05198936312044868","0.0005617381980598828","-0.004744922995084009","0.0018504403729923925","0.12376628377588973","0.3814619187060482","0.4972592318948304"
"0.051919505224749356","-0.08453211719688748","0.05222893237179888","0.0018516381984726323","-0.007462655398935144","-0.0005855683128092691","0.16113167358911595","0.3899184167354696","0.5392945771555987"
"0.05152186084016801","-0.08454977539283133","0.052460240614481825","0.002325696101231891","-0.008119878703226911","-0.0020434943687474313","0.15709141891132503","0.3807099368219966","0.5731908858923147"
"0.05185692196809612","-0.08453211719688748","0.05193153605977795","0.0006825135949089985","-0.007405216269613552","-0.0020325733925318943","0.15739792099033","0.35965444406855424","0.4878944368581195"
"0.051744272106120294","-0.08453938821874674","0.05177044639076661","-1.631745682914741e-05","-0.006108336461414201","0.0018647832550887978","0.22995532223838483","0.3702349611038053","0.5338848962530659"
"0.051809743820772906","-0.08424335375733509","0.052001754633449554","0.0006532710385759162","-0.0038952546745943542","0.0029976282523444735","0.13661150726872864","0.35578899333123676","0.5446061973771188"
"0.051759677215450314","-0.08457262717581751","0.05250361090998487","0.0005065297073804178","-0.003298605718766315","0.0016254682629523289","0.12697062369275847","0.3829131118156213","0.5469759971682586"
"0.05188388090942367","-0.08447083286978822","0.05208849522445566","0.0014008499535315931","-0.00910206388165559","0.0016801702193741525","0.1570356912605968","0.3422401267536771","0.5040254188847051"
"0.05190602575408559","-0.08462144689401521","0.05205338593761986","0.0011025419901482538","-0.007397390188243484","0.00259627024200547","0.16806976610477128","0.3901822700281192","0.5260400417720515"
"0.05166339528213764","-0.08483230652793296","0.051915014042443454","0.0027216750114773887","-0.006263182780876994","0.0031576326883201093","0.22675098232151608","0.3732956592985414","0.5327571984214201"
"0.05167880039146767","-0.08467130532962137","0.0518365344601046","0.002184171910115703","-0.008145869909244933","0.0035135351687664443","0.14374464656193253","0.3635594727997691","0.5273475175188873"
"0.0517086477907946","-0.08459028537176136","0.05197903685961462","2.1797799812280412e-05","-0.013172870708559032","-0.006703353575736921","0.16166108627103348","0.3800766889196375","0.5327898853150911"
"0.05190891421208496","-0.08441266469491439","0.05222893237179888","-0.0003480328313127025","-0.00712882875250627","-0.002641721176998517","0.12691489604203027","0.3622006283426234","0.5043196009277433"
"0.051943575708077526","-0.08436903856375898","0.052377630527809346","0.0005448548434345212","-0.010919581531214072","-0.0016008307994776626","0.1888004521756438","0.38139595538288573","0.5294231352669891"
"0.05188291809009054","-0.08433891575891357","0.05248295838831675","-2.4760770816147165e-05","-0.0028041505471896083","-0.001253301067463239","0.1321532952104766","0.3832693137606983","0.5044340050555914"
"0.05149393907950733","-0.0843731934333928","0.05220001884146352","0.0009073926463438231","-0.004394257110575687","-0.0008956026931503487","0.14282514032491786","0.3550238187825528","0.541974902436612"
"0.05166050682413826","-0.08461729202438134","0.05195012332927926","-0.0001372676890055196","-0.010148939879482708","-0.002266767660265078","0.15416571724809702","0.377794357938218","0.48348170621254893"
"0.05158348127748812","-0.08444901980421053","0.052346651745307164","0.0008127543607198689","-0.004439251095210934","-0.0009718068382987627","0.1182771101791666","0.36648824434818034","0.5128835670695171"
"0.05199556795206637","-0.08456016256691595","0.052765897935169996","-2.83036893420491e-05","-0.003884963497257569","0.0024758240087661134","0.15018119022103396","0.3866730212358788","0.5546247302872475"
"0.05173175545478964","-0.08452069130539439","0.052495349901317635","-0.00135749504130689","-0.006337063860966892","-0.0015175886918792358","0.1706889656889943","0.37026134643307035","0.5200256533366073"
"0.051852107871430485","-0.08490190059429989","0.052131865519958714","0.0018391224536800444","-0.0074513590368352305","-0.005881368099247498","0.15241029625016014","0.3877943977296399","0.5405203356682573"
"0.05221316512135302","-0.08476375117897449","0.051811751434102854","0.00045316738533281945","-0.005152716880296761","-0.00010261847572218583","0.12571675155137518","0.3913696098450427","0.5342281086366103"
"0.05177219386678096","-0.08459963382843749","0.05286709529134379","5.5994665584028714e-05","-0.006812320003567856","0.0023203335762929","0.1629149584124171","0.38669940656514384","0.48608031425938486"
"0.051602737664150654","-0.084490568500549","0.05284644276967567","0.0010141230669366164","-0.00640912603529494","0.001582536692007251","0.19069519230040105","0.4305914017974138","0.5239153936834435"
"0.05195898081740755","-0.08432541243260357","0.05182620819927054","-9.532068895836101e-05","-0.0069831257851126535","0.002189621625410939","0.1837292359593821","0.39638282240538614","0.5387225565163581"
"0.051650878630806994","-0.0843950064989705","0.05217936631979539","0.0021189937622343017","-0.005910530459812969","0.0005886307810492409","0.1667323024872955","0.36241171097674313","0.497537070491033"
"0.051852107871430485","-0.08410935921164353","0.05250154565781806","0.001303448576557275","-0.007133964767986442","0.004293098719867514","0.130899423069093","0.3715674202316862","0.5196334106125566"
"0.05172020162279212","-0.0844801813264644","0.052788615709004935","0.0014074929257676591","-0.008499551348042637","-0.005841081831430184","0.15241029625016014","0.3585198749101608","0.5113472830669852"
"0.05208414733071403","-0.08429425091034971","0.052991010421352513","-0.0007491335694271669","-0.008323021757260945","-0.008016540293565164","0.13978798336023376","0.39039335266223896","0.5396377895391432"
"0.05213517675536975","-0.08420907608285585","0.05185512172960591","-0.0006999370648963017","-0.006771358724470396","0.0022973752574042376","0.12855886173851072","0.40725357806255186","0.5118702733657194"
"0.05193009623741375","-0.08462560176364904","0.05227849842380236","0.0004002642948441491","-0.00709798633335763","-0.007346235042291535","0.19718746361023098","0.35490508480086047","0.5260073548783808"
"0.05204563455738896","-0.08473258965672063","0.05274524541350188","-0.001374631984176741","-0.012227039712396814","0.007293697607176407","0.13103874219591335","0.3582428289528787","0.5395397288581304"
"0.051852107871430485","-0.08428905732330741","0.05211121299829059","-0.0011221027642462915","-0.009152370985753083","0.0033235101826160998","0.10626780144724958","0.37598696288356787","0.5216926849138227"
"0.05215154468403291","-0.08471804761300215","0.05260067776182504","0.00047287486963314845","-0.006377725977932469","-0.0009440190210392296","0.1027290956260122","0.409443560391544","0.5203361788264809"
"0.05176930540878158","-0.0843596901070828","0.0522846941803028","-0.0009024033056563991","-0.007761554268142379","-7.888355408041856e-05","0.0668962162078097","0.38687091120536615","0.5267428099859758"
"0.052125548562038486","-0.08470973787373445","0.05232393397147223","0.0010115717804981275","-0.009519981413411274","0.0016369959600687294","0.14483133575113122","0.37614527485915766","0.5454233697188913"
"0.051523786478834266","-0.08457574332804288","0.05198523261611506","0.0033518908992641694","-0.01193864741726132","0.0033798138822162017","0.14304805092783038","0.39751739156377963","0.49606616027584277"
"0.05197438592673758","-0.08457885948026826","0.05186544799043996","3.299457765364947e-05","-0.004922768899245988","0.0007483197221564271","0.1398715748363256","0.4024250628070632","0.499187758621413"
"0.05171153624879398","-0.08441266469491439","0.05179316416460154","0.0005948379143881209","-0.011405899492803552","0.004613690043883613","0.17110692306945538","0.37392890720090055","0.5114780306416687"
"0.05185307069076361","-0.08444694236939362","0.05187990475560764","0.0002202878847267328","-0.001974633787903614","0.0031345772940873083","0.16308214136460142","0.364047601391171","0.5277070733492673"
"0.051717313164792736","-0.08485827446314452","0.05256969897932286","0.0002732391126953746","-0.006163071165063569","0.0050825639560706706","0.17573231807989206","0.39255694966196614","0.5476297350416764"
"0.05179722716944226","-0.08480426115790447","0.052090560476622465","0.00016491052776752783","-0.005780837692398923","-0.002023351234838774","0.19476331080355624","0.3749843203714991","0.5079151592315415"
"0.05190506293475245","-0.0845528915450567","0.052462305866648636","0.001658895728666776","-0.005450203704241508","-0.0012559706394270368","0.16383446464943144","0.3741399898350203","0.5436092471201566"
