"AccX","AccY","AccZ","GyroX","GyroY","GyroZ","MagX","MagY","MagZ"
"0.05049645825038802","0.09188157002145793","0.04088450221950049","0.0011159049545883403","-0.004648425257823732","-0.0022512356052029805","-0.08546318088296023","-0.2579469580364914","-0.8285375188434249"
"0.05020857526978311","0.09195843510968411","0.04056232288147782","0.0005602058857974302","-0.0021122483685699295","0.002906620117214998","-0.08426503639230483","-0.2564693795976533","-0.8272300430965893"
"0.050640881150357024","0.09180366621582328","0.04089276322816774","0.0007669082247950193","-0.0038057453647348735","-0.001389206549256589","-0.0839863981386641","-0.2577622607316366","-0.8293710346320329"
"0.05049645825038802","0.09180470493323174","0.040264926569456884","0.0007632497763171858","-0.005068209561282369","-0.0009700837509403111","-0.08387494283720767","-0.2576435267499443","-0.8276386292674754"
"0.05056963251970564","0.09164785860455403","0.040733738811323215","0.002139500328702158","-0.00022824492682170316","-0.0013644523365013718","-0.08348484928211053","-0.2574852147743545","-0.8274098210117792"
"0.05049549543105488","0.09195947382709257","0.04057471439447869","0.00039519060445515375","-0.003800958770624741","0.0020377957871789395","-0.08309475572701369","-0.2581580406706111","-0.8274098210117792"
"0.04976086427987917","0.09584635436955687","0.04316867111599458","-0.004115291268873698","-0.007142719448613875","0.007173324180445153","-0.08295543660019332","-0.25487306717712294","-0.8295508125472227"
"0.05049645825038802","0.09195843510968411","0.0411942900445223","0.0011031966598758663","-0.0008550494255435783","-0.0005106746848067192","-0.08877897610128507","-0.2561527556464737","-0.8310053793155775"
"0.050640881150357024","0.09180366621582328","0.04120255105318954","0.00023113807271230724","-0.008648103296250605","0.0007180564836213723","-0.0901443035441251","-0.2577226827377392","-0.8293220042915264"
"0.05049645825038802","0.09195843510968411","0.04150614312171091","0.0007388922114516106","-0.005276426405073141","0.0015995006083953855","-0.08549104470832418","-0.2579337653718589","-0.8287499836522858"
"0.0506399183310239","0.09211528143836185","0.04120048580102273","0.0006102688649677825","-0.007598403207898507","-0.003555928230419141","-0.08710714657944037","-0.25672004022567046","-0.82945275186621"
"0.050784341230992916","0.09188157002145793","0.04120874680968998","-9.966268965178957e-05","-0.0050679702315768625","-0.0003272022843856967","-0.08632695946924637","-0.2563902236098584","-0.8289951353548175"
"0.050640881150357024","0.09188157002145793","0.04135744496570045","-0.0002802745145048297","-0.005065098275110783","0.0007437814498179706","-0.09028362267094547","-0.2579997286950213","-0.8312505310181092"
"0.0506399183310239","0.0921142427209534","0.04151027362604453","-0.00020065512263198106","-0.007171439013274671","0.0011582931692876884","-0.086494142421431","-0.256324260286696","-0.8311524703370964"
"0.05064184396969015","0.09180262749841482","0.04182212670323315","-0.00010457271260888187","-0.008436535836582739","-0.00013669192151466138","-0.09067371622604231","-0.256324260286696","-0.8306294800383621"
"0.050642806789023276","0.09172368497537173","0.042131914528254946","0.0011589398616828545","-0.005489669172679552","0.002453763636810728","-0.08755296778526572","-0.25719497615243986","-0.8305314193573494"
"0.0506399183310239","0.09219110780917958","0.04197495536357723","0.0002411506685463777","-0.007173592980624231","-0.0005541159013085221","-0.08841674637155218","-0.2573137101341322","-0.8318552385510207"
"0.05049838388905427","0.09172472369278019","0.04150614312171091","0.0019618730276073503","0.0029342578017429615","-0.00048470703024977547","-0.0869120998018921","-0.2569707008536877","-0.8322311378282359"
"0.05085751550031055","0.09188053130404947","0.0419852816244113","5.7843144814934074e-05","-0.004646749949885186","0.001175281354511857","-0.0930142775566246","-0.2574588294450896","-0.831544713061147"
"0.05078530405032604","0.09195843510968411","0.041828322459733586","0.0018412405027987899","-0.0061253288705051725","0.002664417133590421","-0.08880683992664934","-0.2573005174694998","-0.8320677033598814"
"0.050784341230992916","0.0921142427209534","0.041826257207566775","7.276576360609674e-05","-0.003804309386501833","-0.0005308178187153764","-0.09006071206803264","-0.25592848034772153","-0.8325416633181094"
"0.05050512362438615","0.09009082120926969","0.040423950986301416","-0.0037007312913592038","-0.003789470944760422","0.0011713983407463328","-0.08855606549837255","-0.25658811357934563","-0.8333588356598817"
"0.050780489953660406","0.09304804967116061","0.04260072677012127","0.00022516902519584213","-0.0046455533013576526","0.0011813485635204888","-0.0922340904464306","-0.255968058341619","-0.8306621669320331"
"0.050640881150357024","0.09211216528613647","0.04259659626578765","0.0014448764927135203","-0.003596092542711062","-0.000956978579481667","-0.09003284824266838","-0.2554271590916872","-0.8321167337003877"
"0.05085751550031055","0.09211216528613647","0.04306953901198761","0.0011026190101162082","-0.002543999157303897","-0.0009494552403109637","-0.09401737526973142","-0.25334271807975495","-0.8330973405105144"
"0.05092972695029506","0.091879492586641","0.042763881691299424","0.0007530446305632294","-0.0038076600023789265","-0.00010320092778701439","-0.09240127339861492","-0.25707624217074754","-0.8334568963408944"
"0.05078530405032604","0.09211216528613647","0.042757685934798985","0.0002471197160628427","-0.005279537691244726","-0.0011831641313234565","-0.09318146050880922","-0.2563902236098584","-0.8334895832345653"
"0.05107511266959719","0.09164578116973708","0.04307986527282166","0.00024509794190404","-0.006546788481902355","-0.0009802766620748125","-0.09588425156912471","-0.25503137915271273","-0.8329175625953246"
"0.05078530405032604","0.09211216528613647","0.04306747375982079","0.0011049296091548398","-0.009706419254000941","-0.0018566243312815752","-0.09332077963562958","-0.2546487918783707","-0.8347807155345656"
"0.05085751550031055","0.09195739639227565","0.042604857274454906","0.0007466904832069924","-0.007598403207898507","0.00029869099694474936","-0.09323718815953742","-0.2556910123843369","-0.8341269776611475"
"0.05078530405032604","0.09195739639227565","0.04244789810977719","0.0004257097667570801","-0.0038059846944403794","-0.0018160953751039154","-0.0901443035441251","-0.2565617282500807","-0.8340452604269704"
"0.05121760993089995","0.09180366621582328","0.042466485379278496","-0.00045010354384425537","-0.0012789023339958281","0.0007702344810956049","-0.09465824325310536","-0.25707624217074754","-0.8328848757016538"
"0.05092876413096192","0.09211320400354493","0.042454093866277624","0.0005642494341150357","-0.0025418451899543375","0.0020482313866737856","-0.09318146050880922","-0.25704985684148257","-0.8339145128522868"
"0.05078530405032604","0.09195739639227565","0.04260279202228809","8.220070968050919e-05","-0.005068688220693382","-0.0018250748444366904","-0.09476969855456147","-0.25669365489640555","-0.834176008001654"
"0.05107222421159781","0.09211528143836185","0.04214843654558945","-0.00043903192345081207","-0.0059128040920152815","-0.000974209453066181","-0.09081303535286268","-0.2559152876830891","-0.832558006764945"
"0.05092972695029506","0.091879492586641","0.042763881691299424","-0.00012450162931707968","-0.005909932135549202","0.0022372856193827494","-0.0954662941886633","-0.25504457181734524","-0.8324762895307677"
"0.05064184396969015","0.09187845386923255","0.04244170235327675","0.0015836087099913617","-0.0038050273756183527","0.0028949710759184257","-0.0949926091574743","-0.2576039487560468","-0.8322474812750712"
"0.051073187030930944","0.09195843510968411","0.042460289622778064","0.0006017003935328568","-0.00212493284296178","-0.002232791289816741","-0.09128672038405199","-0.2575643707621494","-0.8342904121295022"
"0.05092972695029506","0.09195739639227565","0.042454093866277624","0.0014434323683143754","-0.001282013620167415","-0.0005133442567705173","-0.09382232849218315","-0.25677281088420045","-0.8317898647636788"
"0.05078530405032604","0.09195843510968411","0.042138110284755385","0.00041203872244517615","-0.005490387161796072","-0.0003291437912684587","-0.09198331601815382","-0.25674642555493543","-0.8332444315320336"
"0.05106548447626593","0.0937481452044639","0.04369531041853165","-0.01648258007322968","-0.011961862398695464","0.012265654045569912","-0.09128672038405199","-0.25554589307337955","-0.8334405528940588"
"0.05107222421159781","0.0921142427209534","0.04261518353528896","0.000581193827065001","-0.004230076932598135","-0.00010538512303012188","-0.09059012474995015","-0.2558493243599266","-0.8346989983003883"
"0.0509278013116288","0.0924248192260835","0.04291671035164352","0.0016065221504577923","-0.01013027216245319","-0.0005732882817757983","-0.09359941788927031","-0.25653534292081576","-0.8339308562991223"
"0.051073187030930944","0.09211320400354493","0.04277007744779986","0.0005656935585141804","-0.005071560177159462","0.001601927491998838","-0.09521551976038682","-0.2559944436708839","-0.8348297458750719"
"0.05085847831964367","0.09195635767486719","0.04306953901198761","0.0006021817683325717","-0.005492780458851139","-0.0026841916400589393","-0.09387805614291106","-0.2562451042989011","-0.8324272591902613"
"0.051073187030930944","0.09211320400354493","0.04307986527282166","0.00039480550461538184","0.0012493766749762567","0.0020751697946721106","-0.09479756237992572","-0.2558493243599266","-0.834176008001654"
"0.051073187030930944","0.09211320400354493","0.04307986527282166","0.0008513413646650172","-1.8113445386879004e-05","-0.0013600839460151568","-0.09209477131961023","-0.2553611957685248","-0.8341106342143122"
"0.05107222421159781","0.09219110780917958","0.04292497136031077","0.0012493420490693175","-0.005916394037597882","0.0015965883480712423","-0.0963022089495858","-0.25550631507948207","-0.8337837652776033"
"0.051073187030930944","0.09219110780917958","0.04307986527282166","0.0004191630694809571","-0.008443476398042432","-0.0016335937281242736","-0.09538270271257114","-0.25693112285979025","-0.8320350164662105"
"0.05121664711156683","0.0921142427209534","0.042776273204300296","0.002796576930313031","0.0029249239432282037","0.0016589592566799759","-0.09585638774376076","-0.25737967345729457","-0.833554957021907"
"0.050620661944361364","0.09176627238911866","0.041031135123344144","-0.00015449127933931964","-0.009329403168916341","0.005136198083706974","-0.12455612786875937","-0.2963771901109135","-0.8511241623700121"
"0.05071886951634029","0.09198544176230412","0.04062634569864899","0.0015653164676021946","-0.004397129067041767","0.003196608438991559","-0.08836101872082398","-0.25503137915271273","-0.8376244752839334"
"0.05060910811236384","0.09192415743520488","0.04081428364582888","-0.0008253833377020113","-0.008069428001306115","0.003438326045895446","-0.06314425676633482","-0.24612633052578686","-0.8653429611168504"
"0.050667840091684575","0.0922066885703065","0.04017405547411716","0.002847987758922585","-0.0012757910478242412","-0.0023276824387117403","-0.0698594386790773","-0.2596092337801842","-0.8361535650687432"
"0.05054459921704435","0.090123021448932","0.041066244410179954","-0.0005354994333136833","0.0006223328465488738","-0.0016299534027190948","-0.10315670998914865","-0.2484086615072064","-0.8313485916991218"
"0.05100867813561145","0.0930158494314983","0.04070069477665422","-0.0032222447404425683","-0.007326046003031958","-0.0022810862735254487","-0.11884404366912373","-0.25736648079266217","-0.8191563803598787"
"0.050651472163021426","0.09216202372174263","0.042683336856793756","0.0007905052174770448","-0.008045279634020495","0.0008602475939476649","-0.11800812890820153","-0.25650895759155073","-0.8559127922927978"
"0.050607182473697596","0.09234068311599807","0.04122526882702447","0.0017606583613265113","-0.0033069822584590467","-0.003930881747152581","-0.07635170998890727","-0.2618519867677062","-0.8179142784003848"
"0.05030004310643015","0.09165720706123016","0.041192224792355486","0.0015184401896059553","-0.007845798324480714","0.004460796376866093","-0.1145530145630557","-0.2690024109985119","-0.8650651225206479"
"0.05085173858431178","0.092097623242418","0.041400815261203504","0.00037200759410088295","0.002263177307502359","-0.005017397536418345","-0.07807926716147987","-0.2622873447005782","-0.8371014849851989"
"0.0507227207936728","0.09149724458032704","0.04117983327935461","0.001315540711526114","-0.0030281631515438182","0.0020152500385028638","-0.05475724533174795","-0.2664826120537077","-0.8348134024282363"
"0.050755456650999106","0.09210177811205185","0.04096504705400616","-0.0010429647471731577","-0.005242345855008997","-0.0013244087570444027","-0.08273252599728048","-0.25036117587281387","-0.82945275186621"
"0.05089987955096812","0.09205088095903723","0.040956786045338915","0.0016405072113176659","-0.004363383578565331","-0.005145779679040991","-0.07401114865832467","-0.24571735792217994","-0.8529055980750758"
"0.050668802911017705","0.09184833106438715","0.04110548420134938","0.0008824959417025672","-0.0005855641771431085","8.985766286764629e-05","-0.1379586278688799","-0.24559862394048754","-0.819172723806714"
"0.051095331875592856","0.09169875575756865","0.041884084268237504","0.001776062354917389","-0.0014236968058273423","0.0006458809652546897","-0.104382718305168","-0.26905518165704184","-0.8122431023484848"
"0.05070442722634339","0.09219214652658804","0.04187788851173707","0.0001431620143164074","-0.0005020381099212926","0.0014516548592730483","-0.05093990125686923","-0.2470893950439581","-0.8392915068611487"
"0.0508777347063062","0.09190338308703565","0.04208028322408465","0.00035703683782974875","-0.005250578796878425","-0.002897272020442084","-0.04935166321111699","-0.2619179500908687","-0.8330483101700082"
"0.050733311806337195","0.09215890756951726","0.04180353943373184","-0.0020629016728091415","-0.0037923429012265016","0.0042210202768449695","-0.09098021830504731","-0.24999178126310428","-0.8222126049181072"
"0.05126671371688942","0.09204464865458646","0.04191919355507331","-0.0012511112105698914","-0.007019920334037243","0.0008438661296243592","-0.055621023918034106","-0.2611659682068172","-0.8404028612459591"
"0.05089987955096812","0.09200102252343105","0.04190060628557201","-0.0007862957039651593","-0.0048216760316399845","0.013002455907578146","-0.042329979219369825","-0.2619311427555011","-0.8450280567003905"
"0.050693836213679","0.0921931852439965","0.041264508618193904","0.002104263693363025","-0.006497941289008452","-0.0006620151463180283","-0.07091826404291234","-0.26030844500570577","-0.8359737871535532"
"0.05103467425760587","0.09203841635013567","0.040591236411813184","0.0004603013598645946","-0.0073738162122510805","-0.0001864430353854412","-0.12904220375237538","-0.27598133058909524","-0.8176854701446886"
"0.05072849770967156","0.09198959663193797","0.04292084085597714","0.0007491647496775272","-0.005933458245600504","0.002890893911464625","-0.1065282328582017","-0.2666145387000325","-0.8552753978662154"
"0.050532082565713704","0.09380423594452085","0.042549095465950974","0.0018749367387788346","0.002411322395210966","-0.0021718765113700775","-0.11555611227616251","-0.2563638382805935","-0.8422987010788708"
"0.05107511266959719","0.09203633891531875","0.042980733168814685","-0.01498646719571569","-0.003966814256540838","0.003915232942809931","-0.10566445427191556","-0.25396277331748157","-0.8272300430965893"
"0.0496251067539083","0.09213190091689724","0.04254289970945054","0.0027678869922500215","-0.0032777840343872376","-0.0008359741630135164","-0.07247863826330032","-0.2485537808181637","-0.8548341248016584"
"0.05051571463705055","0.09024766753794743","0.0426213792917894","0.0003644981472253301","-0.004848480958656727","-0.00012693584942878147","-0.13854376820152564","-0.267036703968272","-0.8467441186181124"
"0.05063029013769263","0.09307609504118909","0.04261105303095534","0.0014957578090433877","-0.003813643245016592","-0.001369306103708277","-0.07860867984339708","-0.27111323733970916","-0.8540986696940632"
"0.05066013753701956","0.09194077691374027","0.04291051459514308","6.865553525123421e-06","-0.007008673991845781","0.0017107732216136908","-0.11639202703708502","-0.2574060587865596","-0.8064738656155722"
"0.05062932731835951","0.0920103709801072","0.042875405308307274","0.002783868635600557","-0.0008981287725347724","-0.0011273458084440449","-0.1231072089498272","-0.26020290368864596","-0.8186333900611444"
"0.050800709159656066","0.09184625362957023","0.042875405308307274","0.0008020100751902317","-0.008232985922049348","0.0024301257905131","-0.05673557693259735","-0.26580978615745104","-0.865653486606724"
"0.05059370300303381","0.09214852039543263","0.04316454061166096","-0.0038167426180905012","-0.0029649801092900665","-0.0018677879958574574","-0.09981305094545954","-0.2583295453108334","-0.8283740843750704"
"0.05068420802034773","0.0914962058629186","0.042867144299640024","-0.0002456059014293607","-0.002656005459481002","0.0017005317728071203","-0.13121558213077364","-0.23813157575850236","-0.8452732084029222"
"0.05063317859569202","0.09228666981075807","0.04259246576145403","0.0011651688515911657","-0.008602606719233795","0.001556314214671945","-0.09267991165225566","-0.24594163322093213","-0.8196303403181067"
"0.05065917471768643","0.09209346837278416","0.04261931403962258","0.00021185419823572724","-0.0041099334204338055","-5.810088780458311e-06","-0.12589359148623483","-0.23521599687472367","-0.808075523405446"
"0.050672654188350215","0.09186702797773946","0.04223930764092918","0.0013123443828560069","-0.006521252002324798","-0.0009028348062886377","-0.0669337370158493","-0.27127154931529895","-0.8269031741598802"
"0.05064376960835641","0.09184417619475331","0.04260072677012127","0.0007301504450887875","-0.009840443889084657","0.0033235101826160998","-0.05665198545650488","-0.24949046000706995","-0.8488033929193787"
"0.05090373082830064","0.09228770852816652","0.04219800259759293","0.0002496517475093433","-0.004115198673954951","-0.0036707198248624533","-0.07573870583089727","-0.2568123888780979","-0.8098569591105097"
"0.05072368361300592","0.09195116408782489","0.042354961762270646","0.00017895704442320927","-0.008661601491641179","-0.005881610787607843","-0.1023486590535904","-0.2612187388653471","-0.8206109471282335"
"0.0507265720710053","0.09215994628692573","0.042363222770937896","-0.00013319525819993129","3.693238687964713e-05","-0.0004062216145141159","-0.08696782745262001","-0.2671290526206993","-0.8437369244003903"
"0.05054941331370998","0.09183171158585177","0.04264822756995796","3.7413598315032625e-05","-0.008272594988310697","-0.001257669457949454","-0.08342912163138232","-0.26607363945010076","-0.8302372373143114"
"0.05070153876834401","0.0919397381963318","0.04232604823193528","-0.0009294565694003784","-0.006088376363974949","0.011495118501473686","-0.07080680874145592","-0.2735274949674535","-0.8159530647801312"
"0.05054845049437686","0.09184106004252793","0.042354961762270646","-0.0002873218415726561","-0.002104111158582703","-0.0009659095111423724","-0.12620009356523984","-0.2935407672149298","-0.8059672187636733"
"0.05098653329094953","0.09182444056399254","0.04361683083619279","0.0016253920426066173","-0.0039814133685767425","-0.0002724760591278386","-0.097138123710508","-0.2608097662617402","-0.8467768055117832"
"0.05094802051762447","0.09194700921819102","0.042980733168814685","-0.0006350477418947297","-0.0028206642968695663","0.0017577334193405","-0.09580066009303224","-0.25538758109778975","-0.8352056451522872"
"0.050757382289665365","0.0938104682489716","0.042906384090809456","-0.0014676335954816652","-0.0011829311220876671","-0.0027186533872279664","-0.14684718816002051","-0.252524772872541","-0.8374283539219078"
"0.05095861153028886","0.09234276055081499","0.04283410026497104","0.002136226980064096","-0.0018343865804767263","0.0013675196585085506","-0.06420308213016987","-0.24798649623896696","-0.8057057236143063"
"0.05083151937831613","0.09245390331352041","0.043273998976502","0.001322279958722123","-0.0012104540382209302","-0.0001471760586815768","-0.06540122662082495","-0.26902879632777693","-0.8165250854193717"
"0.05085077576497866","0.09219110780917958","0.04313975758565921","0.00015924956012288027","-0.002049783315432697","0.0015559186326445822","-0.15230849793137924","-0.265506354870904","-0.8310870965497548"
"0.05069287339434587","0.09196051254450102","0.04317073636816139","0.0016406034862776091","-0.007926955027618015","0.00021520620098597706","-0.11633629938635683","-0.24289412769082858","-0.8267233962446904"
"0.05118583689290677","0.09210801041650264","0.04283616551713784","-0.01629965764933801","-0.007439823345029811","0.005515034614205938","-0.08373562371038731","-0.24586247723313723","-0.8494244438991255"
"0.050906619286300005","0.09219110780917958","0.043437153897680145","0.0011184369860348408","-0.009190304744075884","0.006095545172151819","-0.0722557276603878","-0.26964885156550356","-0.8417593673333011"
"0.05068998493634649","0.09218487550472879","0.04242311508377544","0.000598822734980161","-0.00393402608688643","0.00462412564337846","-0.050577671527136644","-0.27170690724817087","-0.8388012034560854"
"0.05117717151890863","0.09219526267881341","0.04096711230617297","0.0008924989100406432","-0.005311775402576471","0.00640060444110582","-0.11279759356511883","-0.2709681180287518","-0.8394385978826678"
"0.05090758210563314","0.09204984224162877","0.040832870915330194","0.0020453434178779183","-0.003575749517742998","-0.0049266320896492145","-0.0530575519845393","-0.26637707073664785","-0.8377388794117813"
"0.05073427462567032","0.09163539399565249","0.04066971599415204","0.0009105889750139301","-0.004719984839770216","0.0002956088547683645","-0.08933625260856655","-0.24571735792217994","-0.8523335774358352"
"0.050890251357636855","0.09195531895745873","0.040423950986301416","0.0007281768084099564","-0.007871909195351488","0.003953577703744484","-0.11892763514521558","-0.22582281965639603","-0.809873302557345"
"0.050967276904287","0.09196882228376874","0.04089482848033456","0.002202271602584984","-0.007803269435812185","0.00045449692428641133","-0.09761180874169731","-0.26451690502346775","-0.8422660141852001"
"0.05078337841165979","0.09236872848602655","0.04067591175065248","0.0011280644820291393","-0.0021864405772769853","-0.0038139059574661604","-0.06743528587240287","-0.25521607645756744","-0.8039896616965844"
"0.05096342562695449","0.09011886657929816","0.04276181643913261","0.003256193589080842","-0.005767866022360463","0.0034310453950850877","-0.04645382537325324","-0.30774926702411365","-0.8526114160320376"
"0.05111458826225539","0.09303766249707597","0.0413140746701974","-0.00045867201527918094","-0.0017168756950729685","-0.006710391538186935","-0.08498949585177092","-0.24741921165977018","-0.836300656090262"
"0.050890251357636855","0.09205815198089644","0.04090928524550224","0.0007962335775936525","-0.0007499836848261662","0.0007747484845980269","-0.1231072089498272","-0.2425247330811191","-0.8283413974813997"
"0.05101926914827584","0.09243624511757656","0.0417787564077301","0.0006643436217189589","-0.013870995459521885","-0.0053739067377655434","-0.11380069127822565","-0.2640683544259633","-0.8385723952003891"
"0.05091817311829753","0.09143076666618549","0.0407833048633267","0.0026106699826631266","-0.005708033595983805","-0.0046441428382073225","-0.04012873701560791","-0.24133739326419568","-0.8506665458586194"
"0.050950908975623835","0.09201244841492415","0.04122733407919128","0.0003156674875422481","-0.008733304671410966","0.0027970705913551446","-0.11569543140298288","-0.23616586872826242","-0.8315283696143118"
"0.051028897341607114","0.09129053981604314","0.041192224792355486","-0.0036312207702803682","-0.002310892024140435","0.0013413372247527014","-0.13689980250504505","-0.24069095269720397","-0.845632764233302"
"0.051051042186269026","0.09200621611047335","0.04109515794051532","-0.00016971235050630562","-0.008949610859247862","0.002596561468037884","-0.10273875260868755","-0.2650709969380321","-0.8389319510307689"
"0.051200279182903666","0.09194804793559948","0.04189028002473794","0.0006226738935564361","-0.0008643832840583381","-0.0031928664433426204","-0.08309475572701369","-0.2776567989974206","-0.871112197849763"
"0.05112903055225229","0.09186391182551408","0.04166516753855544","0.0023549636890545585","0.0022799303868878233","0.007619628075120102","-0.10719696466693959","-0.24859335881206115","-0.8680396298446991"
"0.050620661944361364","0.0915720322337363","0.04196049859840956","-0.0009109717770913248","-0.005566757270823239","0.0063661426939367926","-0.1617543347298013","-0.26657496070613507","-0.8033359238231664"
"0.05076027074766474","0.09208619735092491","0.041508208373877725","2.443573371471815e-05","-0.008504984132357637","0.011688298436308519","-0.09148176716160056","-0.2235668740042414","-0.8410239122257059"
"0.05056866970037252","0.09192727358743025","0.04177049539906285","-0.00188739242083308","0.002819140213394272","-6.907894432246944e-05","-0.036952260924103114","-0.2290154444974568","-0.8044799651016478"
"0.050818039907652345","0.09208827478574183","0.04185517073790214","0.0024805062368202105","-0.009801433147087075","-1.5105052981682022e-05","-0.07119690229655308","-0.2432107516420082","-0.8248112129649432"
"0.050446391645065425","0.09205088095903723","0.0411942900445223","0.0013147897668385588","-0.006135859377547464","-0.0009895473574400018","-0.10741987526985243","-0.279253111417951","-0.7948209880218989"
"0.0511184395395879","0.09215683013470034","0.040496234812139834","-0.00029089364258654086","-0.007756815539973348","-0.00175226833633311","-0.045812957389879304","-0.24664084444645368","-0.887651766047235"
