"AccX","AccY","AccZ","GyroX","GyroY","GyroZ","MagX","MagY","MagZ"
"0.04358630389653729","-0.05848212331007249","-0.10194007662855105","0.07313207814089971","0.15317012981765557","-0.45025710375125205","0.009775374211453178","0.6790092768270632","-0.05760242251326179"
"0.056306110106474856","-0.0470977805133305","-0.08197941443631296","0.04984027708189332","0.16791044637980915","-0.3838818371968213","-0.09279136695371239","0.7434026728982114","-0.04070983586414428"
"0.07134727372858102","-0.03086678228870547","-0.04524477414522769","0.024051103561965905","0.16877203331963306","-0.279841337116805","-0.17368005198562586","0.7871099708256266","-0.01732399778730389"
"0.08066543923458176","-0.029332596676407304","-0.017436153719103935","0.025376809760380807","0.11209157916449684","-0.20439195276906458","-0.22968634096741944","0.8154214291269344","0.0010509394897886073"
"0.08230993465556226","-0.037092854435025864","-0.021428286157551556","0.06187368432516704","0.01820732228835434","-0.1115369592173616","-0.2737947765187524","0.8318858745882729","-0.01180645013565715"
"0.08359144718795396","-0.045230166612916074","-0.03099246894205799","0.03603348507646983","-0.038602369907755445","-0.0022347327966995025","-0.28984433992846054","0.8385481702276767","-0.038588456464903324"
"0.08316588104271193","-0.03986726863302749","-0.03499079713700604","-0.0033778250757104315","-0.09185083608592652","0.0766702911139971","-0.28014772870176186","0.83038191082017","-0.05116964183883004"
"0.07847117397438588","-0.04200183290741661","-0.04334887265609426","-0.05801270954383515","-0.11678659810266276","0.1822591429330163","-0.24863374221499132","0.815685282419584","-0.05326487172313428"
"0.06713108786881897","-0.05077587885669395","-0.05136618156765849","-0.07731295076360538","-0.15816909748181487","0.272662984045232","-0.20056864346195954","0.7930862479041412","-0.05120069438781739"
"0.056303221648475475","-0.05536804851950383","-0.05641159261118024","-0.06572433383526825","-0.1920151044345631","0.34010607938518195","-0.12943229730747283","0.7559488969637024","-0.05679015320554009"
"0.04301920330932563","-0.061332363878891835","-0.06818766046634234","-0.03350688123994773","-0.18363856474183088","0.39543902554390303","-0.058853227660267106","0.706990918512559","-0.07830466661972187"
"0.028580764589756814","-0.06502604298338222","-0.08832593434492626","-0.03107208750298964","-0.17395767815408752","0.43252180700466","0.02484970373341858","0.643309926331565","-0.11002566258263997"
"0.02308402901693617","-0.07110150110547563","-0.10352205978832904","-0.0666158399643403","-0.15574708086208774","0.4241490585727482","0.08851854469033295","0.5860537618265901","-0.13558027605454412"
"0.023370949178207943","-0.06969300029960135","-0.11137414852654832","-0.10730645178424296","-0.11000160095154966","0.3924539587116562","0.12006039500246742","0.5429269411430041","-0.15256438600594013"
"0.02595515626832015","-0.07309064494268008","-0.1276524661053606","-0.1219402456955767","-0.0642680875262869","0.34869724734140445","0.14772917358899557","0.5005389096788371","-0.15280136598505406"
"0.025438122286431084","-0.07483257403667062","-0.15051480759196958","-0.1381336939579868","-0.014955877014583459","0.290306427842333","0.17227720373474653","0.46636990828070685","-0.14098505392302627"
"0.02405358808539481","-0.07953069287514362","-0.16694388857895914","-0.12220018808742274","0.025296268165460843","0.18249697752615462","0.19080664760185745","0.43960199174139947","-0.10484642428048697"
"0.024797847429901796","-0.06721150441078597","-0.15882744756338796","-0.0864407797157998","-0.01501690608948765","0.11371666932070226","0.19534845113620197","0.42672595106009636","-0.08892790706276209"
"0.024955749800534582","-0.06281876849040076","-0.14182629172619146","-0.04417607230082934","-0.08768171261600095","0.0863996674802389","0.21170451662491463","0.4147074335799046","-0.0876988798607365"
"0.020784816449429477","-0.05746002538014601","-0.13300146921740372","0.027750950272574824","-0.07114881655960265","0.0424269634692798","0.22708534822588472","0.40118495233160983","-0.0974608206555487"
"0.017181946504869157","-0.056773433173152726","-0.1196743969849658","0.11881454663384612","-0.08106903285285263","-0.046178556892777514","0.2399584355440882","0.39564403318596714","-0.1225888701650477"
"0.016598477988994352","-0.06299119558020543","-0.11232209927111504","0.1338623228729347","-0.057899524062755364","-0.15936840815781045","0.23054046257103056","0.4042852285202433","-0.15469557147328233"
"0.017749047092080812","-0.06423142416590888","-0.11583715845902909","0.1132883639331188","-0.02186388963432695","-0.2667847033302295","0.22407605508656486","0.4253143359444207","-0.17818110457581895"
"0.016726532960300203","-0.0708927189063748","-0.11961243941996146","0.10846498843997524","0.0001326642690823011","-0.33376669078552346","0.20822153845440514","0.4549186753797119","-0.19534662678708842"
"0.01585614428315361","-0.07289744350470619","-0.1242819745691234","0.10679943163296159","0.060606972915909656","-0.39786068675270875","0.1763174584125378","0.5008027629714867","-0.20433388820190043"
"0.02119305184667522","-0.07542464295949389","-0.11484583741895932","0.08685799917997111","0.14140707479200448","-0.4532179017474644","0.13544122660343752","0.5551961192512129","-0.19770988919949395"
"0.028844577087033547","-0.07314777440014548","-0.10745843041827276","0.07601936418958984","0.15999341972164968","-0.47023035580766764","0.06341323803730022","0.6228349108219517","-0.17772512240911"
"0.03910245426216599","-0.0645222650402782","-0.09994504303541064","0.056912635639305015","0.18166951114938554","-0.46746370849973157","-0.012320639302259694","0.6852625998628602","-0.15596218860302946"
"0.051244568872227496","-0.053132728656493905","-0.08154571148128244","0.014553578763590426","0.207478826591221","-0.40747114582238136","-0.08950343556075117","0.7358564687284314","-0.12489002747947857"
"0.06338379502428963","-0.04376349763216793","-0.06115341158618062","-0.003797006251302189","0.2215585931661763","-0.3231126717663662","-0.1647357640437575","0.7806719504849751","-0.07940131190238033"
"0.07667551591810448","-0.037832421229850706","-0.03039974157018294","-0.0028578440170583695","0.1837301399137977","-0.23638070554617435","-0.2330857276618369","0.8151575758342848","-0.034193703610851764"
"0.08013877705936143","-0.03926169638389422","-0.021795901043244095","0.046601587429411305","0.06376612502859724","-0.12273460016369225","-0.2941632328598924","0.838614133550839","-0.01903515667097514"
"0.08605568698915858","-0.03742836015795904","-0.02219036420710519","0.029661045477843647","0.019226866833812598","-0.002709673917895192","-0.30868028587457597","0.8427830155747037","-0.03106066485249667"
"0.08265654961548788","-0.03807340366861386","-0.04237407363335898","-0.004338167801141708","-0.023625116937150272","0.07714838718387729","-0.29527778587445547","0.8399597853433524","-0.03937947929173894"
"0.07746021367460279","-0.04224800893322208","-0.036721478452794505","-0.04918044471866571","-0.05135385661714892","0.1677390983335589","-0.2550981496994573","0.8253818909244589","-0.028148262626420104"
"0.0711845572612826","-0.04119786563326713","-0.04218820093834592","-0.05905344186081882","-0.11299800886449272","0.2614022441252116","-0.2020732900316198","0.7987986716900063","-0.02287750102198861"
"0.05818938472207078","-0.048572759233346335","-0.047173719669030105","-0.05475091390096682","-0.18518942123351387","0.33348068714775614","-0.1243610810912105","0.7546164378358217","-0.030557286689964918"
"0.044048457176438134","-0.048633004843037134","-0.06049253089280078","-0.055172598225517094","-0.21664931102236099","0.40631146408737107","-0.03806681393866605","0.7060806246529178","-0.05330246165085581"
"0.029532992910219172","-0.05550827536964618","-0.08033960421586422","-0.0579722740606591","-0.2192221053565573","0.44443780549761264","0.026047848224073675","0.6541806819887307","-0.08005668412048172"
"0.017390878300157675","-0.06861377291220948","-0.09381124409997897","-0.0685442274119983","-0.18568244042685755","0.44861204529555126","0.08695817046994465","0.5958691043131572","-0.10737148681656346"
"0.01816883632132409","-0.0737086818007149","-0.11093424981501736","-0.0948975721971916","-0.12768806618848993","0.4219405944936063","0.12697062369275847","0.5395100410031911","-0.13015752039454298"
"0.0229087958983071","-0.08013418768945996","-0.1331687546429155","-0.11640443549885506","-0.08015240008076224","0.36483602330436476","0.16528338356836364","0.4875573276804741","-0.1420653557588493"
"0.021176683918012067","-0.07566770283307396","-0.1528010417406305","-0.13557278002350337","-0.03456966436996866","0.2928546556259583","0.18481592514858108","0.4530321243372669","-0.135081800926063"
"0.02600137159631024","-0.07792483576166158","-0.16282164525400236","-0.12305703523091532","-0.0031121678781766467","0.18887725451963175","0.1948469022796484","0.43222729221184164","-0.11822680420466704"
"0.026807251378137328","-0.06853379167175791","-0.16675388537961244","-0.08940412298284488","0.038220072262819094","0.09585965976649745","0.20680048336083753","0.4176230124636833","-0.0967286342373207"
"0.019456125769714557","-0.06757713293856453","-0.1600727946199756","-0.03989376208256536","-0.021496039876963254","0.03420953558798903","0.2155497245251573","0.4096150650317662","-0.0814867357185833"
"0.024816140997231204","-0.0564555856461634","-0.14593201303381373","0.0290756937213903","-0.07852256478626206","0.006106466148367355","0.2263051611156907","0.40293957672773","-0.08545002157617908"
"0.019623656333678616","-0.06002254122682143","-0.1321010192726737","0.09474291839930159","-0.09491425631641143","-0.06195572719882337","0.2304568710949381","0.4005253190999857","-0.10906303356403216"
"0.017745195814748316","-0.06687184381821894","-0.11492431700129817","0.16670171170948692","-0.05218193739820188","-0.18851770711888058","0.22956522868328766","0.4095622943732364","-0.14360981148479898"
"0.01686903022160296","-0.06963587084213593","-0.12916629594363382","0.13942701555763923","0.013953476102679416","-0.30093095563080874","0.2143515800345019","0.43577611899797947","-0.17104719003214655"
"0.017142470912210966","-0.07831954837687709","-0.13352191276344036","0.11296102906931263","0.073461371398671","-0.3905800359423507","0.18893977130246417","0.4761456727733766","-0.1767657620798693"
"0.018019599324689432","-0.07618602281989643","-0.11373060124888085","0.08145504842797077","0.12009237121958362","-0.45593601138333134","0.14530502078232052","0.5352224249976342","-0.17634410115151478"
"0.02370889876413543","-0.08118225355459799","-0.1129334139124914","0.07288850249224396","0.14850080726322112","-0.48780099309666497","0.08796126818305149","0.6003414176235687","-0.15732196337973858"
"0.03071726068996508","-0.07189819735776587","-0.11756783977481755","0.09100744995351376","0.1817652430315882","-0.5033573169947967","0.02445961017832143","0.6584946833235525","-0.13329055915289806"
"0.045321304334831704","-0.05439373159036661","-0.09719619240138386","0.06417465586780438","0.20842896552208234","-0.47093415205266886","-0.07008234928198984","0.7215424276021876","-0.11426842138112188"
"0.056324403673804264","-0.03696820834601044","-0.06631034624671023","0.02187143846885672","0.22719480773085754","-0.37715936961525737","-0.15977600312895174","0.7748407927174177","-0.08241177480946957"
"0.07438111744726343","-0.028658469078315554","-0.03398295407960178","0.004216440039552176","0.18259332381264118","-0.2757156349909354","-0.2503334355622001","0.8187723659435852","-0.04452929938958813"
"0.0834662806746475","-0.0325245752726106","-0.023336579159685854","0.025652156145817753","0.1323101526856973","-0.1695977225463635","-0.30823446466875093","0.8442737866781742","-0.02115490172553255"
"0.08390821474855267","-0.029673295986382794","-0.01327673585514454","0.0155009243694294","0.03918217767895576","-0.017394746602387354","-0.33035834200782743","0.8536273859026045","-0.013148247120847311"
"0.08634876919416237","-0.03666801901496496","-0.014152402773872837","-0.015145320879621614","-0.06427526741745211","0.06812038017903334","-0.32230569647760954","0.8507249996834583","-0.014226914611986776"
"0.08447050123909869","-0.03789682170917534","-0.016079283045508444","-0.05079016204891241","-0.09680017439580371","0.1620917401883245","-0.2916554885771255","0.8366748118498641","-0.011172324398441827"
"0.07233897764170158","-0.043859059633746415","-0.03228738205064913","-0.054160748396516314","-0.1744028314063299","0.25654847691830623","-0.22963061331669124","0.8062393345427264","-0.017518484804645705"
"0.06071293419419601","-0.04749041569372908","-0.05185977683552656","-0.046156448226856536","-0.21706095811583237","0.34525107262450166","-0.15581933992725297","0.768864515638903","-0.03730059285427014"
"0.044477874599012666","-0.049325829354481196","-0.06495347557311472","-0.049448089107307205","-0.23914869663703964","0.436623240294495","-0.07325882537349462","0.723033198705658","-0.05370287609832424"
"0.030612313382654265","-0.05472300500884902","-0.08847463250093673","-0.05464886244342725","-0.22246023627206205","0.4740215166237008","0.006097349263395127","0.6631253086095542","-0.08732788361757186"
"0.018752304837198898","-0.06999318963064682","-0.10780745803446398","-0.06784045745481507","-0.17507534787880352","0.48511237469147955","0.07049064967977559","0.5982833619409016","-0.1176662239782112"
"0.018521228197248482","-0.07578403918282169","-0.12327619676388595","-0.09339568282208104","-0.12478021026658434","0.4695803196293824","0.1385062473934862","0.5251696145476824","-0.15033677420226876"
"0.019462865505046445","-0.06948317938309205","-0.13524226781839477","-0.1478189549282511","-0.03528765348648856","0.43341975393793747","0.18021839396350836","0.4702221663533919","-0.15024034786593962"
"0.01685362511227293","-0.07332020148995017","-0.15171058859655376","-0.19188400409415537","0.0048216118593682805","0.3349853549818968","0.20161781184311908","0.4310399523949182","-0.11764170880795803"
"0.008917105349309097","-0.0729514568099462","-0.16248913965514564","-0.1588231828497343","-0.03871724816639863","0.22065729530684458","0.2199800727580454","0.4028076500814052","-0.0948475035065608"
"0.021910352249854655","-0.05744652205383601","-0.1918652864758797","-0.08137671682279879","-0.11032708935103869","0.1896732723415642","0.23580672556484084","0.38279437783392894","-0.09063906594643334"
"0.030416861058029536","-0.05653868303884035","-0.2029680821246611","0.055877679819917925","-0.09331074728951698","0.12210640593783818","0.2552556756689661","0.3636254361229316","-0.10451465230972741"
"0.01540650765458342","-0.07805467543771932","-0.1468531155002119","0.16084819414495344","-0.11941204497207053","-0.011542559481021562","0.25642595633425724","0.35420587357533884","-0.14464598601416628"
"0.015571149760548107","-0.07205192753421823","-0.11904242982192133","0.17613665778389948","-0.058265698512180525","-0.13371139470210874","0.2569275051908108","0.35202908391097926","-0.1823633926210097"
"0.012270605086589585","-0.06171772803743118","-0.11818121966836072","0.2153975864486488","-0.00617032285514042","-0.24991786228623342","0.2594073856482135","0.3641927207021283","-0.21605540827228267"
"0.01676119445629277","-0.05409042610709575","-0.09977156185339844","0.1286923575239964","0.08483671230140133","-0.3322377541153483","0.2494599999932383","0.39481289531412067","-0.2268698670432976"
"0.01240636261256045","-0.07464975977278135","-0.08908594714231308","0.07610793715273738","0.1322024543182193","-0.3855078492111346","0.2239924636104724","0.44266268993613545","-0.21355159221709227"
"0.008924807903974109","-0.08594996645943793","-0.09467245425353958","0.07730078390643097","0.15205963998410477","-0.42397395432585955","0.19991811849591043","0.49527503649047655","-0.1880067848132894"
"0.01629904117639193","-0.07348743499271251","-0.09896817876050856","0.06409763589984999","0.16977482478570582","-0.4517375027493582","0.16611929832928582","0.5535602288367851","-0.16212693674935988"
"0.031244885684518546","-0.06176550903822043","-0.1011408240399948","0.03917493701940943","0.14733766489445885","-0.441593129286926","0.10741021828717677","0.615156780005847","-0.13419925479694889"
"0.04692632416315401","-0.04799627107165001","-0.07766303740767586","0.02597660276082561","0.16228859159745831","-0.41086878286721507","0.035800187101500264","0.6754604500409255","-0.103676233487069"
"0.05920901039585202","-0.03971561589139206","-0.056192675881498164","0.018686662793942776","0.1510472753298117","-0.3535457921536628","-0.04773556134000048","0.7349989455273199","-0.06817826696047921"
"0.07597939754025383","-0.02348461766676703","-0.024177136791578343","-0.007960416894036579","0.16048643891499337","-0.2806422087059443","-0.12360875780638045","0.7741811594857935","-0.03509259318680132"
"0.08493939425433142","-0.01665089583649645","-0.00900455522287721","-0.022739489719924278","0.10556745139238599","-0.16424159043354342","-0.17833331082142678","0.7980862677998523","-0.001260023892743525"
"0.08708368919113803","-0.02407668658959029","-0.028251879316698446","0.024764501015143423","-0.02778658185649963","-0.05570407503632928","-0.20664295739132826","0.8110414644689502","0.005252839671181897"
"0.08353945494396511","-0.06682406281742968","-0.0659468618653513","0.09741262303852054","-0.12803748755852962","0.04201924702389975","-0.21073893971984742","0.8094583447130522","-0.045733811421360536"
"0.07377839254472607","-0.04666879022363575","-0.02700446700794399","0.03032052895345309","-0.11428799597717348","0.20023264290018683","-0.1833487993869606","0.7884556226181398","-0.09395841999871252"
"0.07148495689321815","-0.03336282022123932","-0.04213656963417561","-0.01943629584428046","-0.13629914899261864","0.3217831081791142","-0.11901122662130804","0.7550517957686936","-0.12070120205555362"
"0.05589209779323035","-0.03938945862513503","-0.05569288485712966","-0.07126784602878534","-0.1228607860284211","0.4319150861037968","-0.04706682953126291","0.7120832870606973","-0.133050310484417"
"0.03177443631773826","-0.06007239966242759","-0.050507036666264694","-0.08541641414200643","-0.13436057837801488","0.4554801258933223","0.03546582119713133","0.6520038923243712","-0.1381167790034054"
"0.018903467472499796","-0.07790821628312619","-0.06341073220450615","-0.08420431239632424","-0.10833586620122349","0.46416836919368293","0.09659905404591514","0.590288607173617","-0.1465679753620148"
"0.014430208850792893","-0.07405353598032423","-0.0808331994837323","-0.1024927037870937","-0.09436379799374617","0.4613531842136778","0.16029575882819377","0.5153806573903802","-0.14344474267176097"
"0.014146177147520493","-0.06430517310190968","-0.10794376467747357","-0.1612685668322861","-0.10153411597072494","0.4080830891178915","0.19813483367260962","0.45936460336085866","-0.14210131134188725"
"0.014136548954189232","-0.06356249015485944","-0.13293538114806575","-0.20944455678775584","-0.06565859311528047","0.3148907587453086","0.2098097765001574","0.42499771199324116","-0.13893558568986128"
"0.01655996521566927","-0.07696609959365129","-0.15174156737905592","-0.17588310575163124","-0.033492680695188806","0.22466893390335183","0.21903270269566677","0.40156753960595176","-0.11750278950985674"
"0.02231666200843415","-0.07483465147148756","-0.18855055674814644","-0.09338701807568618","-0.004378222020306743","0.15272154259539372","0.22953736485792373","0.3825173318766468","-0.10542825098782888"
"0.029826652806822833","-0.06710243908289747","-0.1947153344660803","-0.03406912700601476","0.0051779737908676585","0.04849659936151495","0.23820301454615134","0.37419276049355016","-0.09406628674782647"
"0.028545140274431124","-0.06310337706031931","-0.17067373399222163","0.03169533538143892","0.004936490118011463","-0.03596865757305209","0.23655904884967088","0.37381017321920823","-0.08955549542124322"
"0.023078252100937408","-0.06251026942008758","-0.13923853076117598","0.08941121111765907","0.020538393619988955","-0.1085931494063735","0.23299247920306926","0.3762772015054825","-0.09982408306795426"
"0.0180398185306851","-0.061275234421426426","-0.12136377325741803","0.12010463109708214","0.011705452178855604","-0.16848863673958564","0.23042900726957413","0.3880582510222895","-0.1059708534227657"
"0.01933384771440746","-0.06407665527204806","-0.12071528407703906","0.13494060242429612","0.0027442300155706948","-0.21518915792082555","0.2303175519681177","0.4059343115993036","-0.11782475541251504"
"0.018025376240688198","-0.0703536245713831","-0.12110561673656654","0.12250187759966245","0.039936066251301666","-0.3015376765316719","0.21515963097006047","0.441857937393554","-0.1219531100831488"
"0.0219228689011853","-0.06796665196673773","-0.12187595579478741","0.10723266895270503","0.06286145874178214","-0.3476484649972728","0.19512554053328915","0.4834412163151396","-0.12543916729314958"
"0.024513815726629397","-0.07217138003619135","-0.12072561033787312","0.08814615814400824","0.09055190566889974","-0.37941637136646833","0.1691843191193342","0.5263701470292382","-0.12582814132783318"
"0.030431303348026437","-0.07190650709703357","-0.11202470295909411","0.07632359306300968","0.14942461992647674","-0.3983460634733993","0.1290604105950643","0.5817397604917681","-0.10992923624631083"
"0.038837678945556134","-0.05306001843790158","-0.08724167695734995","0.05586997782312249","0.17256780244896827","-0.37533920691266787","0.0722182068523485","0.636119924106862","-0.08655156989288816"
"0.047801526936966224","-0.044758588909474394","-0.06804928857116593","0.026798790918738703","0.14005007536178185","-0.2793316915600799","0.012227390843491878","0.6883364907222285","-0.05325016262098237"
"0.0626664946211102","-0.04455707773223279","-0.0489952720801583","0.018300600204571405","0.12833249298017704","-0.25494151134538046","-0.039877962587331124","0.7261070895650265","-0.024868132846545994"
"0.07104013436131358","-0.040571519035964634","-0.044813136442363975","0.06374526954645866","0.08895078993906037","-0.215422138746757","-0.08554677235905239","0.7550517957686936","-0.014944391928062874"
"0.07704620136135829","-0.03209350754809893","-0.029276244391437205","0.047514274049670804","0.02132100175699565","-0.12343839640869353","-0.1275375571827156","0.7772418576805294","-0.03027127637034461"
"0.08462840360973148","-0.025770834682791583","-0.028813627906071317","0.012433604145645896","-0.03263348705241999","0.00670833328202362","-0.14091219335747218","0.7825980795213174","-0.03884668292490339"
"0.0786878083243394","-0.0406213774715708","-0.03821052526506598","0.013073832629266745","-0.027244500073527102","0.10120851122850716","-0.13461496882519067","0.7747484440649902","-0.049342444482627125"
"0.06526032990455367","-0.05346407950979324","-0.021486113218222296","0.010961560008117655","-0.07412129150199505","0.18799629577157842","-0.10427126300371158","0.7563314842380445","-0.06734965420592208"
"0.06064938811820964","-0.047367847039530585","-0.03303706858720188","-0.00884287317687398","-0.12259273675825366","0.29101022408733423","-0.051692224541699576","0.7245767404676585","-0.09046419106529405"
"0.050984607652283284","-0.043257642254247004","-0.04848515479495574","-0.060630425704684916","-0.15190823238576132","0.36762693944833535","0.00971964656072497","0.6817797363998847","-0.110136798021121"
"0.03453195088781329","-0.04711439999186589","-0.058051402831628976","-0.11706873272246164","-0.16019143349334594","0.42342099349171247","0.07609127857795482","0.6261330769800726","-0.11668725151276796"
"0.021373099061969922","-0.063860602051088","-0.07250403749497944","-0.14635557553711773","-0.12851854026659795","0.4496556052450359","0.13558054573025788","0.5579533861594019","-0.11617079859276785"
"0.011901845282002043","-0.07433295096320047","-0.09080010644076705","-0.13577495743938364","-0.12326764652778238","0.42451309111326613","0.1764289137139942","0.49797953274013546","-0.11532747673605881"
"0.012108851438624292","-0.06992359556427988","-0.12810475632989243","-0.14240830217945533","-0.13231670269298823","0.37090323231299643","0.1976054209906921","0.4533223629591815","-0.11822680420466704"
"0.014837481428705519","-0.06894823991773419","-0.1611715087727196","-0.1871569035609548","-0.06537618406278263","0.2965192498671718","0.21524322244615232","0.41673910393330693","-0.11489927842897012"
"0.019945237990942943","-0.07446798422630052","-0.1698104585864942","-0.1721572648018377","-0.039148041636310575","0.19822075639292455","0.2240481912612006","0.39626408842369376","-0.0961320984278269"
"0.027235705981378734","-0.06804767192459776","-0.1796947554568565","-0.07915661624651354","-0.025916698867376294","0.10106047132869656","0.2311534667290399","0.3838497910045276","-0.09528387353706723"
"0.03099358983857246","-0.063098183473277","-0.18076662133143195","-0.012003868936682009","0.010270670594343327","0.015234460757673571","0.23756214656277772","0.3769236420724741","-0.08982352794934455"
"0.02956476594821236","-0.058384483873677076","-0.16567375849636978","0.04093002953917005","0.012008204256321493","-0.03994389291550758","0.23377266631326324","0.37601334821283283","-0.08490905348592578"
"0.024669792458595935","-0.05847796844043864","-0.14270815440142018","0.07913963564134198","0.02892450650094142","-0.10234877789468975","0.2303175519681177","0.3815410746938431","-0.08769070813731879"
