"AccX","AccY","AccZ","GyroX","GyroY","GyroZ","MagX","MagY","MagZ"
"0.0233189569342191","0.0625565001457627","-0.06521989310263347","-0.035005882366260004","-0.0019944981534606647","0.004048468852639484","0.14653102909834018","-0.20077918438455405","0.3962403870049356"
"0.017849180302726","0.06454668270037563","-0.05972632233891352","-0.01161395534891292","0.06522842952924277","0.0452324409148711","0.14168272348499067","-0.2104850277546716","0.4049187572745577"
"0.011986573383317187","0.08364350225494692","-0.07644453862925676","-0.03875194105764156","0.07532574980456767","0.11391324689258193","0.1414876767074421","-0.22889671051576446","0.4208045875986116"
"0.014682467516072113","0.07918636585523708","-0.06314844517932103","-0.06356392373414767","0.0933065905792811","0.15342291195679153","0.132264750511933","-0.24751156031219754","0.43409180987582957"
"0.017663356171432543","0.07543244114105592","-0.05014974804140622","-0.030614781443260457","0.02495163338953129","0.21610446166676733","0.13106660602127762","-0.28284151619798625","0.44487848478722436"
"0.015442131969909113","0.09036504260510364","-0.04253103279803671","-0.007841517318506993","0.05657426737812288","0.31212411143737256","0.12332046257006438","-0.321944574168665","0.4584762325543158"
"0.020292815770201707","0.09517014933664819","-0.05798324951012418","-0.012828945343393395","0.020971580386955964","0.3924054210395872","0.10802322244518645","-0.378409178795691","0.4770587316062185"
"0.02563164897238956","0.09292236486473672","-0.05263424639808107","-0.013245815919946518","-0.017622009933927367","0.4272312007491331","0.09280957379640067","-0.43957037203188093","0.4836614841277389"
"0.03111971917121207","0.08657268534680937","-0.05997621785109778","-0.014101700313839656","0.00045815266857132295","0.4817147376466458","0.06603243762152324","-0.49030936020840943","0.49443181559229815"
"0.03846795632163546","0.08449628924729412","-0.05764041765043339","-0.02318235453566201","0.01767601034212961","0.4844085784464782","0.018914708930870095","-0.5544125176576429","0.5040254188847051"
"0.05059466582236694","0.07504707698251656","-0.05911294244537035","-0.03079770386715213","0.007841234753745485","0.45642661049866884","-0.028704568616336607","-0.6198085562408597","0.5059049152707816"
"0.05990127749637015","0.06985764480984111","-0.054515691122046815","-0.06426191719373431","-0.02737684940067227","0.40432141953253986","-0.09070158005140658","-0.6897032934637531","0.4977658787467291"
"0.0748875604164881","0.05491257873689187","-0.029819405711308766","-0.0879022336077343","-0.05597531323048203","0.30467357877477286","-0.1424168399271321","-0.7451256775848129","0.46761221933533037"
"0.09157716701884058","0.04233267220301028","-0.0148174139715863","-0.06759688180615932","-0.036922275375098866","0.19554390377831624","-0.17189676716232505","-0.7868276904880908","0.4433748876783632"
"0.09220713970850541","0.04638159266119461","-0.012785205839443285","-0.009117545637591318","-0.008527481124675261","0.08441933045982153","-0.19533024429351337","-0.8058515128881308","0.42864944207962596"
"0.08880569156843522","0.05157933457313776","-0.009224298053426009","0.03452774470296154","0.00015540059110543086","-0.03583032520765529","-0.20477608109193512","-0.805363384296729","0.43652698345431107"
"0.09100650400009636","0.05233863699872338","-0.032529016554166124","0.07918103387411746","0.028766548895307036","-0.15641003704520165","-0.18878224533295537","-0.7845453595066713","0.44974883194418735"
"0.08945665371956221","0.05649870021961313","-0.050734214404614016","0.10263072586743034","0.06802380048956026","-0.28010829431318474","-0.16214442828489828","-0.7395847584391702","0.4841681309796376"
"0.07803116553914696","0.06428908078307709","-0.07386710392507538","0.09541780586850189","0.12582671096352258","-0.4002390326840924","-0.1399648232950934","-0.6814842633977164","0.5267754968796468"
"0.054161911451601576","0.07820373918683217","-0.0713619530467324","0.09265952826613537","0.12251678113636583","-0.4524170301583249","-0.10728055614303206","-0.6094918924982582","0.5666371637113008"
"0.035847162096864435","0.08987269055349269","-0.06334464413516816","0.05403112608821147","0.005515428675632013","-0.47416190724526097","-0.07295232329448963","-0.5368926590257059","0.5864290778290264"
"0.029960484694127456","0.0876664547779197","-0.0635924743951856","-0.004112691844955238","-0.10967371925500556","-0.47027889347973667","-0.02438567568490462","-0.4632643977118198","0.5689252462682632"
"0.02686405771879181","0.07501695417767118","-0.05626082920300296","-0.018001798941129982","-0.10873554680941956","-0.4450635728398633","0.01880325362941368","-0.41059928049894884","0.5414845990315486"
"0.024701565496589122","0.07548126085925362","-0.059143921227872535","0.016613862906370305","0.09932573267277296","-0.430720690743458","0.03139770269397643","-0.36379170638290015","0.5237192723214181"
"0.007622113346253602","0.08813387761172756","-0.03495981835450387","0.05832884030006632","-0.12427522458796533","-0.3726939037849044","0.04232032223669448","-0.3070632484632245","0.5084381495302758"
"0.012959020909775219","0.0913539015779593","-0.07362959992589198","0.023175964176084172","-0.1271639341334304","-0.32046736863860276","0.062465867974921596","-0.2592530318351072","0.4782354597783705"
"0.012371701116567898","0.09260867220738123","-0.07877207782125391","-0.009651871665274885","-0.13122535923587797","-0.2451126327513971","0.07609127857795482","-0.2214032770045143","0.4436036959340595"
"0.008736095314681261","0.10224069873604809","-0.07275186775499688","-0.01187389774075898","-0.0337703031535765","-0.13110006794479367","0.08464547296472633","-0.2004981806278822","0.4275054008011447"
"0.01732444376617193","0.10174003694516946","-0.11375331902271575","-0.03383999260135046","-0.044322349869364","-0.06889661430469804","0.09643187109373082","-0.1915179338125512","0.41346637996949615"
"0.017615215204776196","0.08061979587891445","-0.07216740139178908","-0.058701075507427494","-0.049041931661954835","-0.0056238757489211685","0.10827399687346323","-0.19508127252978474","0.405883020637849"
"0.01823815931330921","0.07435632990588943","-0.056010933690818714","-0.04291775857437452","-0.02230545294098669","0.05151078879700319","0.119948939701011","-0.20556812164614527","0.4034478470593674"
"0.016829554628944768","0.06796406297421514","-0.05667801014069899","-0.011270253741916463","0.04883195140498326","0.08196817802033432","0.1158250935471279","-0.22174628628495882","0.4136625013315215"
"0.015820519967827934","0.0687358300087023","-0.05517450656325984","-0.02157071170621644","0.0682918497597277","0.13650267947351946","0.1166610083080501","-0.2369574286062114","0.43513779047329826"
"0.01454863562876748","0.08017003124105046","-0.04936495221801765","-0.049761945476721324","0.053896167973503634","0.1846374888643999","0.11621518710222506","-0.2612847021885095","0.4396976121403878"
"0.01793294558470802","0.07840213421184837","-0.05402003060201193","-0.01833876130093043","-0.013635016369892342","0.22805200964656486","0.12033903325610815","-0.2936199232027247","0.44546684887330046"
"0.014050858033540945","0.09380319722711239","-0.05065573482227516","-0.004371286387362096","0.03529546326152802","0.30513468665942883","0.11663314448268615","-0.3280131998996071","0.45895019251254376"
"0.016856513570272322","0.09319554754316219","-0.05239261189456406","-0.020948775464984755","-0.000666936277015365","0.3789847547124939","0.10342569126011403","-0.38322450138654723","0.4750158007517877"
"0.02646545051487733","0.08265464328209123","-0.058464453264991376","-0.019340020884337478","-0.00035221771427414","0.4149026320435935","0.0897445530063523","-0.44038831723909483","0.48336730208470075"
"0.026728300192820936","0.08833850494119455","-0.05660572631486057","0.004062881478443114","0.024248004055341787","0.46050377495246936","0.06884668398329513","-0.4928819298117435","0.48959415532900585"
"0.035305094812314065","0.08440280468053254","-0.056537572993355774","-0.008403763084574025","-0.01223589491150056","0.5047458630434117","0.02008498959616124","-0.5557581694501561","0.5036331761606545"
"0.051174283060909244","0.0748092106959788","-0.05614310982949467","-0.024716977397153193","-0.04272841403068983","0.4809138660575064","-0.03330209980140902","-0.6216291439601422","0.5000049309631854"
"0.06420219145744738","0.06250975786238192","-0.03370621028924897","-0.053577322139261835","-0.03777189582964742","0.41364065256979815","-0.09474183472919752","-0.6925924870182668","0.4933858349948296"
"0.07731771641330004","0.05865611627698842","-0.02662446060925058","-0.074024198131953","-0.029923317467262855","0.3038241695135644","-0.14648495843028747","-0.7491626329623526","0.47328339538723024"
"0.09150216339279","0.044036168752887725","-0.010021485389815444","-0.053830525283911884","-0.04981735990779633","0.18475883304457252","-0.17390296258853855","-0.7841100015737994","0.44886628581507326"
"0.09758284889115203","0.036113871078549124","-0.008812486771363695","-0.010868787158954214","-0.035574849133096526","0.049057209473912525","-0.1903147557279797","-0.8033844846018566","0.43007132195430986"
"0.0916091326207004","0.04889321135485539","-0.022578631614465848","0.06476482137225488","0.026533602742930144","-0.08320066626344812","-0.18989679834751846","-0.7937406467555117","0.44631670810874363"
"0.08406996839651797","0.058083782984925926","-0.03733485834633768","0.10764665128045986","0.047908138741727654","-0.19178671933273134","-0.1736521881602619","-0.755864506595654","0.47661745854166143"
"0.07626439206285936","0.06414469906330088","-0.04574043466526257","0.10413261524254092","0.04142709031660799","-0.2817343063274981","-0.14740446466730198","-0.7050595550959629","0.5135863352834413"
"0.06682009722421901","0.0683930532639099","-0.04786144864057851","0.09598197713376778","0.08175414569447587","-0.3658015543510988","-0.12171401768162322","-0.6503363822004247","0.5498851307049681"
"0.05519501659604658","0.07391279757247622","-0.06619469212536874","0.08117585104413612","-0.002364262548468415","-0.4216198772305104","-0.08465512994740167","-0.5832780678735151","0.5678302353302883"
"0.04247521038610901","0.08540101211006439","-0.07234501307813493","0.05295573478564833","-0.09462227407569333","-0.45477110725367403","-0.03915350312786503","-0.5139506152298184","0.5645942328568699"
"0.03224621779097037","0.08739638825171962","-0.07898892929876916","0.03092609845149447","-0.07233110530480542","-0.4882135633092519","0.008716548847618143","-0.43850176619664977","0.5490025845758538"
"0.025425605635100438","0.0779440598347167","-0.04331376336925845","0.013464708966635265","-0.016966246540839187","-0.4563728504319528","0.03897666319300506","-0.3726307916866636","0.5348655030631927"
"0.011149883382830038","0.07934425090132328","-0.07120292862988788","0.019272014550396125","-0.14783962739214854","-0.422614899507926","0.058397749471766396","-0.3194907385470233","0.5187508644834425"
"0.011421398434771782","0.08215398149121261","-0.07321241898819596","0.004888342984994268","-0.041579631444257976","-0.35332737262935204","0.07453090435756653","-0.2683955484254177","0.4985013338543243"
"0.00489733463350489","0.08708685046399797","-0.09876165354382738","0.00341254412402825","-0.04651460997180478","-0.2689688985733369","0.06901386693547976","-0.2316275920946884","0.4806869768036876"
"0.0091510704472589","0.090559282760486","-0.07379275484707014","0.023861441890878226","-0.07543521158522647","-0.19632984543839474","0.07338848751763964","-0.19753246961850007","0.46015960757836677"
"0.013198762923723769","0.10132662741660164","-0.07364199143889286","0.0016829644686525225","-0.08188275385157519","-0.09911131516768389","0.08336373699797907","-0.17924084010556277","0.44625133432140174"
"0.01274527501782108","0.10121236850167084","-0.09473441181854395","-0.05221021770807143","-0.05976390246865205","-0.02702316461072551","0.09735137733074518","-0.17524742052131026","0.43441867881253865"
"0.014018122176214643","0.08029883219969973","-0.0748005979044744","-0.07448439244048048","-0.07968331385796923","0.036129200518320095","0.11404180872382677","-0.18693875991861644","0.4205757793429153"
"0.015518194697226121","0.06922506590808784","-0.06634545553354602","-0.03801640036367716","-0.024793524559433663","0.10157497065262851","0.13268270789239411","-0.20467629751698946","0.41599961422899046"
"0.01769512920942572","0.06942969323755482","-0.047966776501085925","0.0028374937882887996","0.05872344813357246","0.1522919841975826","0.13747528585501542","-0.2286328572231148","0.4241223073062072"
"0.018064851833346388","0.07827229453579064","-0.06594479661318449","-0.022508429816061114","0.0847673066868044","0.255941756017443","0.1300635083081708","-0.25554589307337955","0.44283555393279356"
"0.013487608723661806","0.09053539226009136","-0.05377220034199449","-0.012756739123436157","-0.026401580850732735","0.3008391026813176","0.13014709978426325","-0.2902821790507065","0.4557795638264672"
"0.02675911041148099","0.08125652965030157","-0.059687082547744096","-0.003672619003055852","-0.03627608517023096","0.3221228718835976","0.13463317566787958","-0.3327757518319333","0.456253523784695"
"0.02116801854401393","0.09113680963959077","-0.06459825220042306","0.002342062844422198","0.020713104305008796","0.4219405944936063","0.12471365383826835","-0.3836070886608892","0.4668277338872291"
"0.027170234266726115","0.09710320243379571","-0.07457961592262552","-0.007502725734467628","0.022807239228191844","0.47208000974093867","0.0942306288899686","-0.4510479902621409","0.482239604253055"
"0.03063927232398182","0.09453757043489491","-0.06977583938262077","-0.03452354481694565","0.019490129509869898","0.48875270009665855","0.05081878897273777","-0.5191221397657516","0.4938761383998929"
"0.043380260559248165","0.0789952418520801","-0.062066253043911536","-0.043773642968267655","-0.0029707240222222263","0.4807925218773338","0.011140701654292585","-0.5820115720687967","0.4955431699771085"
"0.05769834686217614","0.06624810181543615","-0.04639098909780835","-0.05393353949105087","0.012456947454146433","0.4405790605681229","-0.04327734928174813","-0.6492413910359286","0.49253597575938624"
"0.06680372929555586","0.05910068732781009","-0.03746083872851321","-0.07991718843006312","-0.009949817564501189","0.3555653279391755","-0.0995901403425467","-0.7118141993877941","0.4757512558593827"
"0.08271528159480862","0.045413508036508156","-0.01629200401869008","-0.08202272180401621","-0.015030308552996021","0.26210604037021284","-0.1569896205925441","-0.7730545486117788","0.4490950940707696"
"0.09136245830755332","0.04449112697779403","-0.004140266794384879","-0.03261922610927341","0.013082315974635269","0.14109919701845886","-0.1915129002186348","-0.8055348889369514","0.4341081533226651"
"0.09351849964022406","0.04527431990377428","-0.0020345356851033496","0.008074466509347416","0.002320855766529459","0.015545101858915516","-0.20622500001086716","-0.811893753289808","0.4292214627188665"
"0.09083752920713262","0.047154398413090236","-0.012225522502237227","0.06782732784804123","0.017257183357493","-0.10297006009717366","-0.20321570687154683","-0.7965374916575981","0.44638208189608547"
"0.08653940742212146","0.054265457791420134","-0.03148606420992606","0.12385935453485854","0.029697541449727846","-0.21655549338956936","-0.18287511435577097","-0.7591362874245097","0.4804418251011559"
"0.0759707321662557","0.06477104566060339","-0.04807830011809377","0.12016239607304792","0.02808206593755807","-0.32444745774826517","-0.14812892412676776","-0.6937270561766604","0.5250921218555957"
"0.06189623915460879","0.07144792116219623","-0.06558957324049283","0.11116068731837882","0.076888572781526","-0.4073740704782432","-0.1085065644590511","-0.6261278425998189","0.5634501915783887"
"0.04680789738517941","0.08075586785942296","-0.07741727239982522","0.07855139563609034","0.008267959618663815","-0.43414259662432625","-0.07481919959388292","-0.5609296939860894","0.5815260437783925"
"0.03688796979597446","0.07900666774357318","-0.08063080477138472","0.03616634452119115","-0.11156921052261812","-0.4514948143890129","-0.030599308741093532","-0.4923806085557092","0.5765412924935812"
"0.03301839889613803","0.07433140068808634","-0.08822473698875248","0.003318483488163953","-0.11775109681585448","-0.4614207683271344","0.01133574843184147","-0.4336468656118961","0.5445571670366125"
"0.01832962714995626","0.07677342531538019","-0.09382157036081303","0.02791076670608018","-0.06307861888991895","-0.43982150425640554","0.03421194905574802","-0.36669409260204633","0.529570226288508"
"0.008604189066042912","0.08355521127522766","-0.07875968630825303","0.029233584655696792","-0.1836481379300512","-0.40977668524566135","0.054719724523708345","-0.30735348708513915","0.510056150766985"
"0.010872591414889528","0.0913455918386916","-0.07403025884625351","-0.012101106646224427","-0.1375963159964646","-0.37922222067819217","0.070602104981232","-0.26266993197492017","0.48361245378723244"
"0.011401179228776117","0.08960054659247568","-0.058198035735472636","-0.02881829069072436","-0.06817634161721024","-0.28236529606439575","0.0828064604906973","-0.22736636141839645","0.45471723978216316"
"0.00475965146886776","0.10674042254950486","-0.07215707513095503","-0.021323285059162967","-0.010545030542096188","-0.17609691683640977","0.08152472452394974","-0.20428315611094144","0.4413483002707678"
"0.015316965456602636","0.10210566547294803","-0.10640308656103183","-0.02310918556610534","-0.07530597354425289","-0.08666625604917855","0.0971006029024684","-0.19048230963890128","0.41818963610494025"
"0.020202310752887788","0.08325917681381605","-0.06229962653876129","-0.05374291507036376","-0.07793381371071573","0.010035348013996899","0.11075387733086588","-0.19267229196789343","0.4040198676986081"
"0.024525369558626924","0.06220749109651952","-0.082055828766485","-0.05166337593559528","-0.00974854128217011","0.022394738141300358","0.12212231807940897","-0.20085965963881217","0.4039218070175954"
"0.021006264896048635","0.07397512061698393","-0.09122141788279671","-0.032678916584438056","0.08208920728218516","0.030595905902447994","0.11699537421241904","-0.20992697804071755","0.41387496614038227"
"0.010913992646213984","0.08847146076947765","-0.1152403005828204","-0.0550570682735855","0.19775725395354152","0.09507577636258223","0.10228327442018684","-0.22628456291853286","0.4377037116264633"
"0.006257798351213005","0.08735172340315575","-0.036101902802750906","-0.12859284542763696","0.021189370418967","0.19771839148700984","0.0829736434428816","-0.27297340305288925","0.4582964546391258"
"0.01109018858417618","0.0841805191551217","-0.03743605570251147","-0.10268525370697967","-0.05622900271831907","0.2646057304817691","0.08308509874433834","-0.3287256037897611","0.45610643276317614"
"0.02642404928355288","0.07889137011123391","-0.04699197747835065","-0.051935834072233934","-0.0007083403160680117","0.34292126436518705","0.07946280144700818","-0.37599492116794664","0.4591299704277338"
"0.024597581008611424","0.08928062163066944","-0.02694870519944007","0.008531002369397052","0.03582198861364263","0.39463815395476365","0.05945657483560143","-0.42987376352700607","0.47736925709609196"
"0.02965334532686002","0.09758101244168815","-0.03697550446931239","0.021666372804178168","0.00835651160970127","0.4364533584422533","0.027245992714729075","-0.47871300799645716","0.4991060413872358"
"0.02952143907822165","0.09400782455657938","-0.04208700358217212","-0.009455470746991195","0.004677296046947779","0.46424117570178647","-0.0006456964747112991","-0.5414573209885449","0.5100724942138204"
"0.04279871768203961","0.08456068972661875","-0.042578533597873384","-0.0351377790613819","-0.005521500023511934","0.45683918071125584","-0.04425258316949101","-0.6022755049442902","0.5167733074163534"
"0.05107511266959719","0.07070939308477985","-0.032894566187691855","-0.04998337788459019","-0.017819456940970337","0.4129853939968659","-0.09148176716160056","-0.6558245306875375","0.5241932322796461"
"0.0635051102602636","0.06014979191035657","-0.024278334147752136","-0.054278203847646755","-0.05718153494623546","0.34326102806967046","-0.1312434459561376","-0.7095054830771096","0.5121154250682511"
"0.0724622185163418","0.05231682393314568","-0.022946246500158387","-0.05925465652709966","-0.057327526066594504","0.2571309289831349","-0.17128376300431536","-0.7565769104858079","0.4884664574973601"
"0.08894510780787197","0.039178087433511616","-0.0020636557406553996","-0.026822510771106277","-0.040832922763077276","0.15011992337249247","-0.19998350312931415","-0.7922894536459386","0.46187566949608866"
"0.08886192021748983","0.04213323846058561","0.0007155541002235278","0.023938461858832617","-0.013457912387817435","0.040910161217121876","-0.21090612267203204","-0.8008119149985226","0.46053550685558214"
"0.0842837142884721","0.05100284641144143","-0.0035295717286585645","0.06102646467766877","0.014643463643655045","-0.0712676795852713","-0.2138875519859881","-0.7886482782073735","0.4786113590555859"
"0.07992695680607353","0.05554204148641976","-0.02232254034578116","0.09824058769403021","0.019346531686565915","-0.18685043808330862","-0.20232406445989642","-0.7575531676686116","0.5049569953543257"
"0.07262686062230649","0.0619083404828825","-0.027142838903120397","0.11320171646917009","-0.019423444627275802","-0.26889609206523335","-0.16969552495856313","-0.706563518864066","0.5343915431049647"
"0.06892674592510036","0.06473365183389876","-0.04450954437384261","0.1150790781880583","-0.0046905472859929","-0.3439353330839902","-0.13007316529084614","-0.6364576990070528","0.5626657061302872"
"0.05090084237030125","0.08140298880489469","-0.08034166946803102","0.10962028795929106","-0.09634784125239616","-0.39378352229890823","-0.08192447506172254","-0.5654679706196635","0.5710662378037067"
"0.03646432928939868","0.09039620412735747","-0.08888561768213232","0.0580409781698368","-0.15775266379423333","-0.4235128464412035","-0.031323768200559626","-0.5090693293157998","0.5581549148037039"
"0.03355950336135527","0.08242716416963809","-0.0841892342548018","-0.007529778998211606","-0.10549023600274961","-0.44588871326503726","0.010304786893370386","-0.446707603598054","0.5349308768505346"
"0.024175866140701906","0.0763724803957139","-0.07621323038657382","-0.014034307841879569","-0.061333905336775574","-0.4614207683271344","0.03867016111400037","-0.3946889269521747","0.5147957503492645"
"0.020064627588250665","0.07768957406964354","-0.081506471690113","0.025933279028851265","-0.08815079883879394","-0.43334172503518686","0.07489313408729972","-0.33429290826466884","0.4736592946644456"
"0.014853849357368668","0.08776305549690666","-0.06625871494253992","0.03466349239648115","-0.05458720093854355","-0.39599198637805016","0.08283432431606125","-0.27873859749728414","0.4587213842568475"
"0.006515833932490973","0.10159669394280173","-0.06742145191245508","0.0314527224823826","-0.04112729830085044","-0.27396827879644947","0.07971357587528496","-0.23652207067333947","0.44481311099988247"
"0.00042407601179799537","0.10861426875437004","-0.08304095405005432","0.013419459735462063","-0.05188756186042871","-0.1579608156678079","0.07611914240331907","-0.20840850234151878","0.43350344578975364"
"0.01744575900214589","0.11259255642877895","-0.08618839835227583","-0.07233264708575476","-0.11581970609241593","-0.0854018496917797","0.0942306288899686","-0.20072773299248736","0.41086777192266016"
"0.018742676643867633","0.08468118094600031","-0.07491625202581588","-0.08180899139294279","-0.0517391774430146","-0.03646616871175989","0.11136688148887586","-0.20445202221823724","0.39635479113278366"
"0.015548042096553048","0.06561863906590827","-0.05517863706759347","-0.037979815878898815","0.029104003780071396","0.041555712255640295","0.12332046257006438","-0.21406155913653768","0.39285729350999815"
"0.014099961819530415","0.07118824181008077","-0.039447611312986366","0.014206026158196251","0.054293455284644646","0.12187099822830326","0.1316796101792873","-0.22157478164473654","0.40467360557202586"
"0.02377822175612055","0.08531999215220437","-0.0716015222980826","-0.06220837229815043","0.09151879767914656","0.17441302824305377","0.12822449583414208","-0.24706300971469317","0.42028159729987735"
"0.013331631991695259","0.0759092124315399","-0.06335497039600223","-0.020941073468189318","0.010642828286406147","0.21664565671033728","0.13073224011690868","-0.27935865273501087","0.43051259501886674"
"0.01888902518250289","0.08884539903652394","-0.053844484167832905","0.009515413834814076","0.0379209101309358","0.2948447001807895","0.11638237005440936","-0.3152295078707313","0.45033719603026345"
"0.014961685122678871","0.09616731804877157","-0.06177711774055785","-0.02673104955916044","0.0570696798685216","0.3406399937779415","0.10676935030380315","-0.3580001266092403","0.46839670478343187"
"0.029648531230194387","0.0772304609751034","-0.06575272816167096","-0.03919865687177701","0.021754188523962655","0.3602006756217701","0.09891175155113348","-0.4115755376817526","0.47411691117583804"
"0.03302321299280367","0.08034245833085513","-0.056781272749039595","-0.013790732193223814","0.04187942346001553","0.3907551401892394","0.07932348232018782","-0.46165489262665693","0.48934900362647415"
