"AccX","AccY","AccZ","GyroX","GyroY","GyroZ","MagX","MagY","MagZ"
"-0.06558104055137358","-0.1587100434873743","-0.17639035198995728","-0.36359039515246927","0.05374539025903446","0.6948679245378946","0.1839521465622946","0.4313697690107302","-0.22173965908165094"
"0.0029293319165938055","-0.15138708575771823","-0.20996928697015382","-0.21363251754527565","0.030982741968298477","0.22062331893639625","0.23424635134445254","0.37590780689577297","-0.20470488444506507"
"0.01040947531565556","-0.06689885047083895","-0.22806089595142706","-0.11249567212516987","-0.031041944510800865","0.07848317316577627","0.26581606548195097","0.35607923195315144","-0.1767951802841731"
"0.008482873830068932","-0.03986622991561903","-0.107192012888754","0.005136636106687227","-0.13051215671346825","-0.09741249664526701","0.24912563408886937","0.36828244673819793","-0.16061843660644815"
"0.026118835554951703","-0.055824045461818586","-0.12839182638107932","0.0508232444229112","-0.10477703348033983","-0.11329402294626134","0.2445559667291609","0.3766597887798245","-0.18067021152885746"
"0.018455756482595863","-0.09515923500286076","-0.1969168932759019","0.16450664262278686","0.016558101287708116","-0.23774461413131473","0.232964615377705","0.3898260680830422","-0.2031130327232926"
"0.006635223529798686","-0.09481541954065992","-0.1817600076236685","0.08635255564027043","0.15216733835158272","-0.41555266822187875","0.21109151246690494","0.42896870404761844","-0.22848786828000678"
"0.01403834138221031","-0.08333447602493094","-0.11354885905820136","0.0911768938830134","0.1638179084156457","-0.4517860404214272","0.17709764552273177","0.48640956585744816","-0.1938887913293666"
"0.007060789675040712","-0.07166136978863658","-0.11312135185967129","0.13033865933902145","0.18240186004823586","-0.4759820699478505","0.13513472452443281","0.5455918593987655","-0.16657071994391776"
"0.032843165777508954","-0.05101062899100633","-0.10498012781809835","0.07316192337848204","0.1688821249841661","-0.462003220391963","0.07815320165489636","0.6090749616102724","-0.14994943451226866"
"0.03561801109558027","-0.03523770514351298","-0.08165310459395667","0.06822205518380747","0.13859734404935659","-0.4279540434355219","0.010667016623103586","0.6702493475110948","-0.1296018432021378"
"0.05890475948658396","-0.013289606302713874","-0.009722436876061067","0.04686730631885394","0.10210674385076006","-0.32342816663481505","-0.06325571206779125","0.7228485014008033","-0.11842129122200883"
"0.07563855949632697","-0.012600936660903658","-0.008186715364819654","0.0286597858944366","0.1067042674935425","-0.1979170273150528","-0.12048800936560418","0.7583103839329168","-0.10696943802441149"
"0.075585604433005","-0.038541865219830156","-0.03794823823988085","0.04716094494668004","0.10451679398521185","-0.09244223902539593","-0.156878165291088","0.776160059180666","-0.1003160208177012"
"0.06457480253936743","-0.07069224644654165","-0.034509593382138846","0.07161382202259883","0.002340959461792015","-0.026620301932552368","-0.17120017152822306","0.7820703729360181","-0.11963397497719896"
"0.04976471555721168","-0.086206529659328","-0.03852237834225459","0.04412346996047886","-0.021597276342392557","0.006057685787937956","-0.1742651923182716","0.7811864644056419","-0.1446067617417612"
"0.06541534381718708","-0.08246299211923144","-0.05027779367574856","-0.009317797554272726","-0.024578367154183198","-0.005887677996616475","-0.16866456342009203","0.7771363163634697","-0.15343712606695295"
"0.06624336844367609","-0.09980541797091068","-0.07440819999278012","-0.010760959203818072","-0.030950999222708348","-0.02413760000622028","-0.17501751560310147","0.782637657515215","-0.15604554018189024"
"0.06673825758090325","-0.10882044635895116","-0.06518271856363086","-0.0010953383253821415","-0.004488553014545301","-0.05606325380964027","-0.19329618504193577","0.7938514224528253","-0.14697002415416677"
"0.07390933597403132","-0.08808556945123548","-0.05799151051879143","0.0178972081224103","0.019406364112942574","-0.11142774945520624","-0.2161445218404784","0.8030730950309307","-0.14764010547442008"
"0.06887282804244527","-0.07428724739722815","-0.0804717803545402","-0.0026392998579877936","0.03863650595040065","-0.09752170640742239","-0.24506717256838983","0.8120704923102839","-0.14773816615543275"
"0.07304761267088287","-0.08223862915900369","-0.0715684782634136","-0.0016871405041516709","0.011131778874756198","-0.08809326360800873","-0.27125916841062153","0.8220309541078084","-0.13748919064492426"
"0.08238022046688051","-0.06952368936202206","-0.04832819563027803","0.0028176611465405444","0.0024359733548781504","-0.09180639552129131","-0.29725611747530467","0.8322420765333499","-0.1375611018110002"
"0.08787945936996729","-0.025413515894280706","0.0024020390196422153","-0.026561605629660787","-0.04418353864017016","0.0177178907490867","-0.3108815280783382","0.8379940783131125","-0.13063638338682154"
"0.08880992797350098","0.01289001951667716","0.014983348694644317","-0.093697986196302","-0.0984994153049008","0.20693812229652656","-0.28204246882651907","0.8249333403269545","-0.11432072041099532"
"0.07964773919946677","0.015291741908522673","-0.0007635795016472384","-0.11908087938527002","-0.279384806726815","0.41361638373376364","-0.2130516372250659","0.786463530258635","-0.10592182308225936"
"0.058241376966059626","-0.11293376729646014","-0.18011193639455256","0.03894387711554627","-0.2213114536856302","0.5046973253713427","-0.10638891373138135","0.7187323900354686","-0.14947547455404073"
"-0.010555915663179516","-0.1178988365089078","-0.1584082013735251","-0.09658142124659443","-0.02378379253190117","0.5969917088106481","-0.011233950113060403","0.6443389541728985","-0.1838457432489847"
"0.034505954765818865","-0.0977726480025508","-0.0841561902201328","-0.17334144680913643","-0.12958595075315751","0.4875877959670013","0.06915318606230013","0.579576163492041","-0.1752801427625272"
"0.012982128573770258","-0.09940343433383592","-0.1543706333874076","-0.12723536849244085","-0.13229037642538252","0.37512600978300414","0.12418424115635084","0.5232830635052373","-0.16179026174454966"
"0.025154090583158692","-0.08134325475290957","-0.08996161406104139","-0.14137816010806536","-0.059010013896306154","0.2462827592757014","0.15558677234166493","0.4885599701925428","-0.14751099224442005"
"0.028408419929127127","-0.023985279457645645","-0.10974672981910046","-0.10018210474846206","-0.04891269362098125","0.28220063660680106","0.1844258315934839","0.45341471161160884","-0.12424119264011133"
"0.02035443620752182","-0.04920014454805731","-0.1319275380906615","-0.07222289363141975","-0.01419432989166135","0.2002860343394628","0.20264877338158988","0.4224911057130694","-0.1206162161320093"
"0.024248077590686416","-0.07531246147938","-0.20829643271503606","-0.07021556071660852","0.0258898058351173","0.07934471684500197","0.2050729261882643","0.4097469916780911","-0.11856021052011012"
"0.02054507443548092","-0.061278350573651816","-0.14756769274992887","-0.016061858498278833","-0.038947004683685","0.0628030782038685","0.20660543658328864","0.4018709708924989","-0.12286670876125026"
"0.029859388664149143","-0.02371832908367095","-0.08917268773331918","-0.005977730368970745","-0.10085681290414117","0.06745784095529075","0.2185311538391135","0.39541975788721484","-0.12873237183049202"
"0.025513222194414972","-0.033611073681861704","-0.09879469757849636","0.04949850097409573","-0.06142485062486809","0.03846386254484158","0.20811008315294904","0.3944171153751462","-0.14180386060948214"
"0.02244279134107375","-0.05404160638889804","-0.12076898063337618","0.03292091562151312","-0.055578025919341016","0.05753431390077273","0.21354352909894395","0.38700283785169093","-0.1619602335916383"
"0.024008335576737858","-0.057630375035133755","-0.1580674347660011","0.029480048553150836","-0.048249750336727876","-0.0038767622427955855","0.22728039500343358","0.37976006496845793","-0.17723481900404658"
"0.026464487695544214","-0.06320621008375703","-0.1271526750809921","0.15557232634007784","-0.05884966299361671","-0.09650241529397226","0.22226490643789978","0.38114529475486864","-0.20832168922974936"
"0.02371082440280169","-0.07454069444489285","-0.11558726294684485","0.10501834487401636","0.03513271906178351","-0.17826169701068956","0.21396148647940505","0.39358597750329977","-0.22209104318861306"
"0.027522626142650507","-0.039827797371505935","-0.09921807427269283","0.10967805293525684","0.08678485610422533","-0.212039063003544","0.20524010914044893","0.41107945080597186","-0.2174919972491184"
"0.023204381433577018","-0.10921515897416667","-0.1636188325903918","0.11143025720621917","0.173388703338856","-0.2938929931807959","0.1994722972900854","0.43370487065067975","-0.2056446326381033"
"0.017615215204776196","-0.09449861073107904","-0.13288581509606226","0.05294803278885289","0.21354822792286923","-0.33973682445001707","0.185930478163144","0.4694569918047079","-0.17962259658670532"
"0.010605890459613423","-0.0694052755774574","-0.08641351083845834","0.14869829420014868","0.12135842536171369","-0.37206291404800673","0.1699645062295282","0.5136656109881573","-0.1594269993321441"
"0.024917237027209507","-0.04915028611245113","-0.08532305769438159","0.07109778823730444","0.1311230773463844","-0.4002390326840924","0.13248766111484556","0.5664626548473533","-0.1505802915601169"
"0.030113572968094613","-0.0531763547876493","-0.06124428268152035","0.05434690795682446","0.12149962988796263","-0.37786316586025864","0.07004482847395054","0.6296555184369456","-0.11878411574175574"
"0.045974095842691645","-0.052292406273048264","-0.07948665507097084","0.05416398553293279","0.13169028874843514","-0.33539270279983674","0.0046484303444632525","0.6802361946378841","-0.1073960019868166"
"0.054939869472767994","-0.048451229296556306","-0.039336087695978524","0.04921737809106221","0.09034129552805391","-0.3050081200846092","-0.05417210499910223","0.720407858443794","-0.10467808677808187"
"0.06884972037845022","-0.05379439164568411","-0.04132905603695211","0.03761817091713136","0.06956747709007806","-0.25079154038347634","-0.11463660603914816","0.7562787135795144","-0.10425969453909445"
"0.0762730574368575","-0.05506058816659912","-0.04831786936944396","0.04588433897783607","0.05142149881856504","-0.173342403946491","-0.16356548337846638","0.784497823228395","-0.11032965069377926"
"0.08291458519676585","-0.05746418024977986","-0.024177136791578343","0.004024852869265635","0.05642109636659862","-0.11560684302035175","-0.20388443868028472","0.8014240119518704","-0.09684630705453591"
"0.07684015802406916","-0.06236484898290292","-0.04386312044563045","0.016503146702435877","0.06488140145625816","-0.08745984698750757","-0.23361514034375427","0.8117538683591042","-0.09118657141542079"
"0.07638281884083395","-0.07170811207201735","-0.06861516766487243","0.029095911462978324","0.02941034580311989","-0.023892484762271553","-0.24576376820249166","0.8193000725288844","-0.09566957888238377"
"0.07571847350097649","-0.08359311665963796","-0.05898283155886119","0.02311627370091952","-0.004866215289834769","0.04485870083993938","-0.24487212579084094","0.8169649708889349","-0.1067798540411203"
"0.07463145047387638","-0.08653164820817655","-0.06135167579419457","0.0075480350283791756","0.00013122829084926153","0.0654192587283905","-0.22634268192373017","0.8098673173166593","-0.11293806480871653"
"0.06941393250766249","-0.0996007906414437","-0.07148380292457432","-0.012038527922261486","-0.0023233371688267802","0.024764589980071902","-0.2124386330670562","0.8015163606042978","-0.11528334942960311"
"0.06804287777729","-0.06435814768974123","-0.03246705898916176","-0.007793861213335215","-0.00730666029688592","0.00010818063407371402","-0.2124386330670562","0.8032050216772555","-0.11188227814314666"
"0.08215492074292885","0.03098156836333907","0.07099794406378644","-0.082622514804461","-0.12566094358284874","0.13080192988900913","-0.20285347714181395","0.7988778276778012","-0.10085372021858739"
"0.08439347569244855","0.04126694814192841","0.03965980768458097","-0.11272673202903302","-0.3916543715799772","0.3763151827486959","-0.14612272870055443","0.766951579267193","-0.10100407992947351"
"0.07714537175267033","-0.1057250684817348","-0.18602062284380172","0.042392446180704","-0.38109993156713456","0.5411248482591674","-0.0726179573901207","0.7017930086473607","-0.16845511936404473"
"-0.050310725927983246","-0.027020411725171205","-0.011254853983835581","-0.09535006450892364","-0.16555959878785975","0.6199014900272414","0.00723976610332201","0.6214364883709087","-0.22361752112304376"
"0.02840264301312836","-0.07637506938823649","-0.10077114390213546","-0.2116396258744559","-0.1364236004394821","0.7597870609302537","0.10493033782977412","0.5340218925160782","-0.2137804004727885"
"0.0015293926062274997","-0.07784900939084387","-0.20096478752285346","-0.2394534618019843","-0.01373050892238949","0.48297671712044116","0.16124312889057238","0.4615677783544832","-0.2024772726413937"
"-0.013579168369197545","-0.1580556515200433","-0.16799097142753286","-0.2698378391599904","0.0032712340270963027","0.3140656183201347","0.1792988877264937","0.42460193205426666","-0.1453961502239133"
"0.01856936916390482","-0.11754567259003078","-0.17709873348317381","-0.06294006199371713","-0.0520383395748979","0.12453814330849777","0.19897074843353182","0.3999844198500539","-0.13135222635821409"
"0.014204909126841227","-0.050338578827731496","-0.1735031294607541","-0.06693547283135101","-0.0925353190436755","0.09530147653770334","0.22237636173935588","0.3809869827792787","-0.10403578931744883"
"0.031976628377694875","-0.037746207684948366","-0.14872423396334358","0.017860623637631964","-0.10801755769289967","-0.023853654624616315","0.2372556444837727","0.37061754837814737","-0.11384185741871672"
"0.018535670487245377","-0.09107292071797181","-0.18606192788713796","0.1822886277242562","0.013852000307544604","-0.18869972338913954","0.24020920997236497","0.37379698055457566","-0.1512716193612563"
"0.004334085323625734","-0.08704477460795673","-0.18609084141747334","0.15503318656439713","0.10033809732706603","-0.33837776963208355","0.23017823284129735","0.40138284230109705","-0.16391327548847417"
"-0.003180719571428589","-0.09930164002780667","-0.16560147467053135","0.16081931165697053","0.1451382249008529","-0.5041824574199706","0.20058685030464832","0.4534015189469764","-0.16285748882290432"
"0.017050040256230792","-0.08642569903251346","-0.1333257138075932","0.13746300637480233","0.22868104520205373","-0.5754842976894102","0.13761460498183578","0.5313173962664193","-0.14366211051467243"
"0.02061536024679917","-0.06923908079210352","-0.12153518918726343","0.06260826226953202","0.21567586900482322","-0.5887593510002965","0.07118724531387742","0.6111725952868371","-0.10759048900415843"
"0.026543438880860602","-0.027144019096778164","-0.07326611554453306","0.05009925672413996","0.1261809189276724","-0.5072888684323901","-0.0024568451233763747","0.681740158405987","-0.0785367435647852"
"0.0576107303028616","-0.002854962832528564","-0.031436498157922564","0.09231967765753664","0.09125553500308926","-0.40586940264410254","-0.09524338358575077","0.7406717913192875","-0.07279529069149285"
"0.07824972552776674","0.001824978451296348","-0.01631472179252501","0.07840024394897986","0.09213148172524353","-0.2734343644036899","-0.17420946466754336","0.7849595664905319","-0.08344794933883688"
"0.08801877932747072","-0.022737779850082955","-0.019177161295726462","0.08489784099553192","0.07064924735896803","-0.12576092401719777","-0.24177924117542862","0.8126245842248482","-0.09759320257491581"
"0.07640111240816336","-0.06577288080006628","-0.045903589586440724","0.08861309169973171","0.04354515821034171","-0.008801151762561415","-0.26022509356644724","0.8175586407973967","-0.12965577657669475"
"0.06859264761650538","-0.0798661985980768","-0.039782182164009916","0.02718196525931178","0.047316994369126265","0.05514626043497529","-0.245234355520574","0.8131127128162501","-0.1490570823150533"
"0.06475966385132775","-0.0877666832068377","-0.03672354370496132","-0.02305719708773613","0.03367041456113797","0.07034340555979597","-0.22706714138319625","0.8091549134265053","-0.13658703237960762"
"0.05340417263643081","-0.103813828450165","-0.05419144653185733","-0.02072926855631475","0.006854239048236124","0.02155722060974884","-0.2135810499069834","0.8068989677743507","-0.1233831616812504"
"0.062426752607161635","-0.10146632710704116","-0.046446750906312284","-0.004149757704533286","-0.015111201993457266","-0.02972428606136835","-0.2144448284932697","0.804088930207632","-0.11602534191593238"
"0.07230913024237465","-0.09934630487637054","-0.047619814137061504","0.009941237982641897","-0.043312378512126","-0.07006637220156223","-0.22703927755783215","0.8112921250969674","-0.12115391553289549"
"0.07490681680315063","-0.09413194348589198","-0.064005524828548","0.005612330683765516","-0.04658880218051183","-0.10258661248782812","-0.2580795790134134","0.8253159276012966","-0.12828783007656788"
"0.08315240157204817","-0.07381359225896955","-0.08195669666247801","-0.03320746611452505","0.015817615178870592","-0.1040136200466583","-0.29185053535467387","0.8356325913438979","-0.12571210285530152"
"0.08551227175754184","-0.04748626082409524","-0.05781596408461241","-0.03203868810081721","-0.013867405513939286","-0.07507545995908856","-0.322862972984891","0.8462131083791492","-0.1069661693350444"
"0.08842826638984953","-0.033108334456166164","-0.035880920820902024","-0.053854594023897626","-0.024597752860329232","0.0325034364147618","-0.33690634096838545","0.8448410712573708","-0.09021086763934463"
"0.08675411613340873","-0.040141490028861415","-0.04646946868014721","-0.024455109506108273","-0.0922074373471314","0.14339502890732508","-0.31584128899314384","0.835606206014633","-0.08530783358871069"
"0.07698458092403816","-0.05893188794793647","-0.055255051397765514","-0.0025270432546942727","-0.14670759788510215","0.2562815197219264","-0.2744077806767621","0.8161074476878235","-0.10215138989732185"
"0.06645807715496337","-0.05513849197223376","-0.06394769776787727","-0.048006852956960715","-0.1749796159966009","0.40313224656684804","-0.19953768192348878","0.7754344626258793","-0.12068322426403463"
"0.03528198714831903","-0.1444172919469391","-0.12310271558187375","-0.010694529481457412","-0.10017711654050232","0.2953786145735491","-0.11786880978138085","0.7265292548332659","-0.1397625640997349"
"0.047524234969025726","-0.07870179638319105","-0.06784689385881836","-0.09607116395889659","-0.04889833383865085","0.3529200248114121","-0.034862474021797304","0.6758430373152673","-0.14823827562859743"
"0.045391590146149956","-0.06078184365240705","-0.05949707934839739","-0.06154311232494442","-0.14687991527306696","0.37027224257609875","0.030979745313515335","0.6282834813151672","-0.14635714489783755"
"0.03366637630733234","-0.03710635776133586","-0.07614714231723582","-0.09209019436525416","-0.06272441092576911","0.3838627907554338","0.07650923595841591","0.5823202377355975","-0.14209477396315306"
"0.023049367520943602","-0.048077291029510034","-0.07258045182515148","-0.10728719679225437","-0.09839889682858803","0.404928140433403","0.1291161382457925","0.5279400741205037","-0.13299310842049292"
"0.017099144042220262","-0.06226617082909905","-0.10557905094647382","-0.070476465858054","-0.1206015136084385","0.3471197729991602","0.15689637213377644","0.480446481443566","-0.14472280021429287"
"0.01088703370488643","-0.06258297963867991","-0.12802214624321995","-0.11481589865979579","-0.03783651485013422","0.34209612394001315","0.18562397608413933","0.4334805953519275","-0.1545108905240418"
"0.016945092948919983","-0.05862962118207407","-0.1435177332508105","-0.12575273410931892","-0.06819788129070585","0.2894084809090555","0.20844444905731768","0.4001559244902762","-0.14966996157138254"
"0.013740830208274135","-0.07332227892476709","-0.1625345752028155","-0.07791948301124618","-0.08313923480548502","0.1837031386770706","0.2137664397018565","0.37949621167580827","-0.1469487776732807"
"0.016187354133749228","-0.08346327698358023","-0.13874080498897431","-0.018189535113018802","-0.048082219542873235","0.06677831354632399","0.21624632015925913","0.36990514448799333","-0.1529190388022693"
"0.02348745031751628","-0.03998048883054983","-0.08949073656700825","-0.0010550953921259737","-0.06394020582974283","0.00015744637122380343","0.21802960498255994","0.37048562173182253","-0.16192918104265094"
"0.03187264388971719","-0.028311537463889296","-0.08619459410877627","-0.004528503396948989","-0.04854173257744597","-0.02923648245707436","0.20654970893256044","0.3824381758888518","-0.18069145800974354"
"0.033549875168024","-0.05269646734493993","-0.12344554744156454","0.028357482520215627","-0.009619781900607539","-0.018861797740674497","0.20504506236290065","0.38731946180287047","-0.1917968301344294"
"0.027437898041335354","-0.07789886782645004","-0.15836070057368842","0.07598663070320921","0.04506250854325377","-0.06611297881153781","0.206744755710109","0.38491839683975865","-0.19042071191088483"
"0.027369537868683357","-0.040730442799459296","-0.11542823853000031","0.03203711148923652","0.02774939764690384","-0.08376613014305259","0.21373857587649223","0.3880054803637596","-0.18391111703632648"
"0.028601946615085597","-0.003420025102731816","-0.06828266206601569","-0.015268552828348636","0.004573187625052395","-0.028355523709021033","0.21828037941083672","0.3889685448819308","-0.17073176150822245"
"0.025053957372513515","-0.013728983766493239","-0.06414596197589123","0.012061982800265972","0.006284873678835843","0.011049785360240118","0.21719369022163776","0.3847864701934338","-0.16270222607796758"
"0.023016631663617292","-0.01887582852542176","-0.08785299159872632","0.01964748689417377","0.0037216525328597886","0.0917897759635073","0.21479740124032726","0.3780714038955001","-0.16560318789125933"
"0.013091889977746709","-0.048004580810917706","-0.08497403007819038","0.035510712043979424","-0.040981307180491394","0.05509044211209589","0.2158562266041623","0.3714486862499938","-0.17919276393493308"
"0.02997974108078999","-0.03955149854085508","-0.0867852562284845","-0.0073889287318150195","-0.027119091307841625","0.023420824528840152","0.21903270269566677","0.37152784223778873","-0.1892407150493656"
"0.02652321967486494","-0.04189796116657043","-0.06671307041923856","-0.0467389117345116","-0.01780437916952342","0.03496672327226627","0.21828037941083672","0.3706307410427799","-0.18364471885290873"
"0.018440351373265836","-0.036938085541165046","-0.08808429984140925","-0.032162882799143665","-0.003671481399945651","0.04428110254231765","0.21582836277879802","0.36453572998257283","-0.18402388681949108"
"0.020745340856771276","-0.03607906624436709","-0.09786946460776456","-0.01899535652774159","-0.03988757042632607","0.02943828242360107","0.21947852390149214","0.36351989480587166","-0.1843621961689848"
"0.021747635782556236","-0.041361982983804106","-0.09678314196802146","-0.031263674673276176","-0.05406306888348402","0.013168697434414652","0.2226828638183609","0.3631768855254271","-0.1823601239316426"
"0.022672905161691046","-0.046546221569437246","-0.10742125587927014","-0.048310119080781116","-0.06477785979901604","2.396777303390604e-05","0.21474167358959906","0.3693642452380615","-0.18565986584771926"
"0.0246360937819365","-0.03881400918084716","-0.09774348422558904","-0.04782489328266847","-0.015366566789232844","-0.016355069666668224","0.21786242203037565","0.37195000750602814","-0.1837248017424024"
"0.024797847429901796","-0.029283776958209596","-0.09058945071975222","-0.023012910606162357","0.0067187784349193695","-0.03832030778479774","0.22020298336095792","0.37242494343279753","-0.17659579023278066"
"0.024215341733360107","-0.033317116655267","-0.09001531061737848","-0.031240568682889863","0.007292212409313267","-0.05954583178059487","0.21641350311144375","0.3796017529928681","-0.169947276060121"
"0.02695263709743947","-0.032690770057964495","-0.10071331684146473","-0.031235754934892713","0.0103417515168788","-0.02465695309735915","0.21557758835052157","0.3841400296264421","-0.15501263434189"
"0.02261513600170344","-0.03278425462472607","-0.12370370396241605","0.0038163213060291297","0.005397917790228255","-0.011692055510994247","0.2237416891821956","0.3839949103154849","-0.1516311751916361"
"0.023499966968846927","-0.026699448045956486","-0.10065135927646036","0.008582028098166834","-0.02059304889808672","-0.0040073285806613386","0.2200915280595018","0.3840081029801173","-0.15729091083075122"
"0.027953969203891295","-0.03321012876219543","-0.11765044986149004","0.047198492181057816","-0.008769922116353482","0.012468784203178901","0.2189491112195746","0.38200281795597996","-0.1669449848764495"
"0.02285295237698575","-0.060296762622655355","-0.1429725066787721","0.07790442790527348","0.020416335470180572","-0.04627320535331216","0.21833610706156495","0.37914000973073114","-0.1782889713249329"
"0.01862232422722679","-0.055613185827900834","-0.10237171433141476","0.028197666086710274","-0.013625921841083091","-0.0950948228039697","0.21992434510731718","0.38312419444974105","-0.1794248408799964"
"0.019852807334962776","-0.05532857725798228","-0.09121728737846307","0.05242140875796476","-0.010930351367961869","-0.14199434844069272","0.21652495841289987","0.3913828025096752","-0.18139749491303483"
