"AccX","AccY","AccZ","GyroX","GyroY","GyroZ","MagX","MagY","MagZ"
"-8.1586","10.147","-4.9","1.1122","-1.6398","-1.7389","0.78128","-0.22635","0.31931"
"-1.2943","19.75","-2.7918","-0.99115","-0.27925","-1.5989","0.7868","-0.15111","0.3173"
"-1.3549","16.325","2.0951","-1.0588","-0.3271","0.34425","0.79561","-0.15286","0.30276"
"-2.2737","5.8641","4.3765","0.053412","-0.65382","1.841","0.80571","-0.21634","0.25657"
"-11.197","4.6163","-7.0634","0.063557","0.27655","2.777","0.79178","-0.31504","0.20946"
"-26.61","-2.1525","-1.0032","-0.22664","-1.2112","2.3743","0.7565","-0.42611","0.18131"
"-26.188","-8.4003","-0.53024","0.87554","-0.19977","3.8114","0.65677","-0.57563","0.16045"
"-18.527","-5.6046","-1.8049","1.023","0.34692","3.1122","0.53532","-0.65338","0.21841"
"-11.508","-8.1264","-1.9087","-0.25804","1.1202","1.0802","0.45377","-0.67436","0.27877"
"-4.8817","-9.3701","-1.3091","-1.3646","1.0773","-0.075706","0.41703","-0.6843","0.32704"
"6.5013","-16.864","0.89355","1.5003","-1.7964","-0.37531","0.44253","-0.66703","0.35718"
"-1.3508","1.6653","3.1691","1.3258","0.86587","-2.6","0.49122","-0.59147","0.4166"
"-14.028","26.158","6.0465","-0.024362","0.8299","-0.29","0.5215","-0.57956","0.38638"
"1.3788","-3.0151","0.46044","4.6751","1.1676","0.90158","0.50579","-0.58543","0.39773"
"-40.502","29.771","-22.31","-1.869","3.8223","2.087","0.49938","-0.61162","0.36614"
"-1.9877","-34.067","-0.5488","-0.79712","0.27816","-1.507","0.48442","-0.64719","0.34414"
"-27.188","-1.7499","-4.6016","-0.020952","0.017953","-2.6539","0.573","-0.58615","0.35262"
"-16.25","-7.7271","-10.453","0.067012","-0.35426","-3.1031","0.6584","-0.4962","0.36153"
"-20.935","11.324","2.8326","-0.30189","-0.96834","-2.7568","0.75435","-0.3776","0.35933"
"-12.475","0.63872","3.1493","1.5858","-1.8142","-1.8615","0.7856","-0.28442","0.34943"
"-2.9047","15.089","-8.7914","0.58221","-1.1469","-1.5283","0.80658","-0.19269","0.33708"
"1.6708","20.505","-1.2324","-1.4098","-0.25156","-1.0144","0.79871","-0.14878","0.32952"
"-1.6127","9.911","2.1345","-0.65852","-0.54821","0.88234","0.80283","-0.18175","0.29688"
"-2.8519","3.543","1.0736","0.10745","-0.46015","1.8179","0.81931","-0.23813","0.2507"
"-30.715","1.6313","-0.42951","-0.27801","0.36691","2.9827","0.80421","-0.35091","0.20999"
"-26.714","-4.5588","0.39288","-0.10578","-0.35592","3.4863","0.75914","-0.45491","0.16445"
"-26.282","-6.3966","-0.91695","0.87397","0.027385","3.8027","0.64188","-0.59835","0.16545"
"-15.459","-5.9583","-0.39987","0.46715","0.55178","2.4684","0.52473","-0.66401","0.22148"
"-9.506","-9.1494","-1.0721","-0.53347","1.2144","0.63143","0.45464","-0.67643","0.28249"
"-1.6831","-12.151","-0.43147","-0.52839","0.35275","-0.22428","0.42889","-0.6785","0.32587"
"10.609","-20.634","-1.2707","2.6033","-0.89868","-0.49439","0.45743","-0.64191","0.37369"
"-3.6083","12.541","4.3199","0.69474","-0.081809","-2.6758","0.50988","-0.55341","0.41869"
"-10.282","19.75","3.0675","-0.8289","0.58898","0.38347","0.51301","-0.56216","0.38424"
"-4.4455","-2.3833","-3.7239","0.027011","-0.23781","0.27477","0.48831","-0.57661","0.3881"
"-16.853","-29.859","8.6917","0.89486","-1.4169","1.4718","0.45245","-0.62158","0.36737"
"-19.642","-11.566","-6.6227","-0.011649","-0.44413","-3.3848","0.51369","-0.58939","0.35024"
"-17.994","-7.6219","-8.5597","0.10662","-0.48846","-2.3044","0.5865","-0.53911","0.33635"
"-23.957","4.5499","-1.4824","-0.002628","-0.66761","-3.1056","0.67207","-0.43792","0.34341"
"-18.049","2.6171","3.6354","0.36312","-1.2557","-2.3609","0.74448","-0.32233","0.34077"
"-8.4163","6.3988","-2.0125","1.111","-1.5958","-2.0815","0.76988","-0.21902","0.32965"
"-1.9475","17.253","-3.4024","-1.4028","-0.44402","-1.6932","0.78359","-0.15305","0.31886"
"-0.4006","17.119","3.0888","-1.8133","-0.40617","-0.31356","0.76923","-0.14703","0.30033"
"-2.2024","5.9521","3.1173","0.60447","-0.90215","1.5128","0.77147","-0.19533","0.25622"
"-5.3583","4.9329","-7.3065","0.18115","0.001352","2.4132","0.78412","-0.26675","0.20846"
"-33.39","-2.11","0.33112","-0.006636","-0.47788","1.8255","0.76069","-0.38698","0.17039"
"-29.924","-8.4811","-0.89782","0.13588","-0.26765","3.4844","0.69166","-0.50446","0.137"
"-21.496","-5.8234","-0.71638","1.0256","0.27369","3.2997","0.5643","-0.62026","0.17432"
"-13.195","-8.2162","-1.7625","-0.1778","1.0896","1.6809","0.46366","-0.66421","0.24471"
"-7.2079","-10.472","-1.9248","-0.31589","0.94347","0.35916","0.41703","-0.66493","0.32069"
"2.7082","-12.852","0.8655","0.96314","-0.83785","-0.32977","0.41777","-0.65319","0.37015"
"4.6871","-7.135","0.59142","2.2169","0.90349","-1.6524","0.45254","-0.59443","0.42685"
"-10.53","38.897","-9.5557","-2.1012","2.0867","0.1386","0.49659","-0.56154","0.39724"
"-3.5142","7.0504","-6.1463","1.185","0.98458","1.5055","0.46369","-0.58761","0.38513"
"-10.933","9.7652","-16.772","-2.2097","2.4063","-0.44256","0.44698","-0.61421","0.35765"
"-3.0973","-33.35","-0.70692","-0.32915","0.14138","-0.5177","0.41103","-0.64717","0.35591"
"-26.797","-8.4201","-5.3743","-0.46439","0.090294","-2.7678","0.51951","-0.5995","0.33047"
"-17.66","-6.9709","-7.8859","-0.074962","-0.51682","-2.8057","0.60681","-0.53144","0.33021"
"-22.236","7.8769","0.88949","-0.034556","-1.044","-2.9698","0.69001","-0.41755","0.33476"
"-14.604","0.38495","2.6266","0.84924","-1.6118","-2.1795","0.749","-0.31312","0.33007"
"-5.3548","12.288","-8.62","0.86604","-1.4481","-1.575","0.77278","-0.21844","0.32008"
"-0.26703","17.98","-1.8463","-1.5721","-0.16092","-1.3955","0.78698","-0.16685","0.31577"
"-2.1489","12.949","3.2083","-0.92314","-0.51163","0.53296","0.78103","-0.17461","0.28875"
"-2.5756","4.7628","3.7789","0.27656","-0.65313","1.8214","0.78634","-0.23995","0.23905"
"-17.487","6.6928","-5.6164","-0.064698","0.58004","2.8098","0.78924","-0.33103","0.19521"
"-22.363","-3.0809","-0.94685","-0.20416","-0.49134","2.6825","0.75774","-0.42942","0.16327"
"-25.94","-7.4383","-0.77389","1.044","0.12541","3.5226","0.67306","-0.53752","0.16205"
"-17.037","-4.5295","-1.0183","0.41918","0.53692","2.7439","0.54816","-0.63484","0.21241"
"-10.457","-8.8217","-1.4142","-0.47207","1.0082","1.0625","0.46776","-0.66802","0.27272"
"-4.0882","-9.5261","-0.90281","-0.66115","0.96511","-0.018238","0.43449","-0.6655","0.33306"
"5.9864","-15.004","2.0816","1.602","-1.3453","-0.065507","0.4517","-0.64873","0.36924"
"-0.28632","2.0475","2.4473","1.1754","0.58832","-2.4925","0.49277","-0.59115","0.40408"
"-12.299","27.866","8.1201","0.37709","1.2523","0.12456","0.5177","-0.58413","0.36248"
"0.27066","-6.5531","4.321","4.2446","0.31432","1.2339","0.48146","-0.59822","0.38114"
"-40.656","6.4704","4.1073","0.47485","2.5404","2.3588","0.44958","-0.64195","0.35024"
"-5.8563","-27.643","-5.2103","-0.38933","0.51386","-2.473","0.46735","-0.65269","0.31555"
"-19.583","-3.7725","-8.7233","0.47673","-0.15016","-2.415","0.57346","-0.58697","0.3129"
"-18.508","-5.6513","-6.7939","-0.32789","0.07508","-3.5018","0.65965","-0.50447","0.3283"
"-21.987","7.6669","4.7362","-0.061332","-0.77436","-2.5822","0.73211","-0.3903","0.333"
"-11.944","1.1423","-2.0176","1.847","-1.6988","-1.7761","0.7728","-0.28959","0.33428"
"-1.8068","19.667","-4.9553","-0.077775","-0.72032","-1.5014","0.7893","-0.20736","0.3304"
"0.24711","17.074","2.0515","-1.8397","-0.26318","-0.58707","0.79882","-0.18484","0.32227"
"-2.1911","9.6187","3.3311","0.26945","-0.74689","1.2675","0.78346","-0.22307","0.28609"
"-2.3433","4.969","1.3223","0.60865","-0.77331","2.1064","0.7769","-0.29521","0.23363"
"-28.089","4.9275","-4.2368","-0.014529","1.119","3.456","0.76345","-0.39752","0.20032"
"-29.535","-6.1931","1.1483","-0.54021","-0.67874","3.5774","0.70872","-0.50301","0.1639"
"-22.992","-7.7626","0.65122","1.5386","0.058195","3.4039","0.59233","-0.60092","0.18962"
"-13.467","-4.7826","-1.6816","0.53684","0.68416","1.9347","0.46584","-0.66079","0.26553"
"-8.9504","-8.6187","-1.9018","-0.86333","1.1264","0.42613","0.40231","-0.67324","0.3317"
"0.51449","-11.67","1.3303","-0.14962","-0.639","-0.26283","0.39316","-0.66508","0.37387"
"6.1846","-15.161","-3.0312","2.4203","0.68412","-1.3099","0.42985","-0.61861","0.41562"
"-4.325","20.595","-3.2962","-2.0348","-0.55468","-1.7083","0.48718","-0.561","0.40663"
"-8.0598","8.2182","4.4752","-1.4861","0.71016","0.5275","0.49395","-0.58606","0.34733"
"-1.6822","0.29275","-4.354","-0.65079","-0.080466","-0.78263","0.48034","-0.58224","0.35967"
"-13.936","-32.884","10.149","0.5902","-1.5682","1.8327","0.42702","-0.62498","0.35084"
"-18.35","-15.554","-5.9096","0.5528","-0.34443","-3.6214","0.49065","-0.59261","0.34169"
"-18.857","-2.8532","-9.0774","-0.048049","-0.22902","-2.3334","0.59491","-0.51973","0.31992"
"-22.861","3.9045","-0.31921","-0.083716","-0.49637","-3.131","0.67752","-0.4287","0.32174"
"-17.372","1.4669","3.125","0.10639","-1.3498","-2.2745","0.7264","-0.32688","0.31475"
"-6.7625","6.6658","-3.3376","0.40344","-1.2452","-1.7933","0.75875","-0.22891","0.30659"
"-2.5619","15.733","-1.1697","-1.8938","-0.073257","-1.5805","0.77364","-0.16759","0.30268"
"-1.2636","12.82","4.6218","-1.0652","-0.52635","-0.19335","0.78495","-0.16345","0.28432"
"-1.9768","8.3845","2.7591","0.97512","-0.83139","1.5376","0.77324","-0.20951","0.24348"
"-7.9138","5.2811","-6.8931","0.34345","0.14328","2.4744","0.7679","-0.29329","0.19622"
"-29.45","-2.7774","0.45603","-0.009969","-0.70522","1.679","0.75977","-0.39258","0.16263"
"-28.802","-8.6267","-0.87513","0.42045","-0.20181","3.2413","0.68909","-0.5027","0.13885"
"-20.193","-5.4999","-1.5309","0.92954","0.31099","3.2717","0.57803","-0.59165","0.18709"
"-12.566","-6.9256","-1.3011","0.009924","0.94565","1.6802","0.46597","-0.65129","0.2621"
"-7.3956","-8.6889","-1.5854","-0.4213","1.0837","0.2864","0.41586","-0.66092","0.33073"
"2.8243","-13.832","0.42622","0.80934","-0.71628","-0.34151","0.41929","-0.64346","0.37715"
"5.0537","-5.769","0.69484","2.1096","0.79443","-1.4852","0.4537","-0.58968","0.42323"
"-9.2883","34.028","-13.389","-2.5773","1.8971","-0.073994","0.49265","-0.56293","0.39483"
"-2.8227","7.7811","-2.6444","0.54012","1.3794","1.1723","0.48256","-0.58924","0.37422"
"-14.084","15.222","-17.202","-2.4565","2.8098","-0.15443","0.47629","-0.61252","0.34696"
"-1.1553","-36.335","-4.2661","-0.79541","0.25961","-0.606","0.42238","-0.65079","0.3457"
"-28.691","-5.5153","-4.1251","-0.40037","0.1317","-2.818","0.53188","-0.59849","0.32317"
"-15.866","-10.908","-9.8864","-0.015389","-0.54255","-2.7733","0.62168","-0.52124","0.32695"
"-22.965","10.451","1.4873","0.10352","-0.94162","-2.8909","0.71416","-0.40814","0.33233"
"-15.431","1.5794","3.1714","1.3382","-1.5361","-1.9069","0.7505","-0.30704","0.33511"
"-6.9672","10.649","-5.3943","1.0803","-1.6658","-1.5802","0.77952","-0.20585","0.32771"
"-0.2534","19.096","-3.1378","-0.93404","-0.53856","-1.4544","0.7945","-0.1498","0.31726"
"-1.8222","13.348","3.267","-0.9962","-0.46071","0.41602","0.8008","-0.15681","0.29344"
"-2.1905","5.0971","3.1185","0.4534","-0.79453","1.6122","0.78799","-0.2206","0.23948"
"-16.095","7.3607","-6.1894","-0.26793","0.41059","2.7787","0.78195","-0.31474","0.19483"
"-21.764","-3.4515","-1.4446","-0.11051","-0.668","2.3776","0.76238","-0.4083","0.1599"
"-26.168","-6.6081","-0.44924","0.95023","0.050822","3.4817","0.68144","-0.51722","0.15872"
