"AccX","AccY","AccZ","GyroX","GyroY","GyroZ","MagX","MagY","MagZ"
"-13.752","-13.714","-4.077","-2.0152","-0.42502","3.1352","1.1842","0.036077","-0.19913"
"6.7306","-33.846","-3.4565","-6.1159","-0.28697","-0.49103","1.1784","0.014921","-0.23762"
"-3.8726","-9.8938","5.2887","-3.0545","0.14423","-2.7819","1.1267","0.13764","-0.17388"
"-9.0909","-3.3217","4.1425","-2.2633","1.0765","-3.2965","1.0938","0.23713","-0.054909"
"-32.993","-5.3887","-0.88351","4.5272","-0.070845","-3.7081","1.059","0.33158","0.022906"
"-16.868","4.9366","2.6738","6.9684","1.9235","-3.238","1.0063","0.40404","0.10201"
"-27.826","13.203","-3.3457","-3.6763","-0.89376","-3.957","0.91784","0.55707","0.1177"
"-13.407","12.571","-1.9385","-2.5181","0.22862","-1.5275","0.84739","0.6164","0.13529"
"-3.7074","8.6641","4.3106","-0.15474","0.47572","-0.4993","0.81605","0.6402","0.1078"
"0.32615","3.6664","1.1531","4.6001","-0.21316","1.5468","0.84032","0.63954","-0.024455"
"5.1909","1.4777","-7.5034","-0.96224","-0.9495","2.4397","0.89552","0.58515","-0.12368"
"-4.3403","-14.91","2.69","1.8605","0.35249","0.27761","0.94522","0.5518","-0.070429"
"-22.512","-37.058","-13.581","-0.88058","2.1192","-0.080293","0.96196","0.51653","-0.046088"
"-7.7026","42.399","-11.832","-0.039977","0.7732","0.39085","0.92945","0.57174","0.044368"
"-18.014","-2.7002","9.2376","-1.8538","-0.097875","5.4225","0.99368","0.50376","0.088059"
"-15.639","10.176","-6.1511","2.5098","-0.094034","2.4297","1.0689","0.41359","-0.001316"
"-21.941","-7.7118","-0.68811","0.55545","-0.63413","4.703","1.137","0.26821","-0.08385"
"-15.509","-4.6055","-0.40672","-0.82296","-0.47611","3.0383","1.198","0.10215","-0.18465"
"-8.2474","-16.799","-7.1746","-0.25612","-0.51138","2.6006","1.2028","-0.017106","-0.26678"
"4.4406","-29.369","-1.1673","-3.2088","0.35162","-1.5459","1.1739","-0.000449","-0.26366"
"-3.2222","-5.8907","4.6531","-2.0091","-0.013452","-2.6992","1.1468","0.10075","-0.20428"
"-9.08","-0.8538","3.3052","-2.5335","0.66249","-3.5538","1.1107","0.21248","-0.084842"
"-27.759","1.3611","-7.022","-0.6426","1.7371","-3.961","1.0482","0.33953","0.04426"
"-34.616","6.8813","4.3065","1.4248","1.4611","-3.784","0.95594","0.43943","0.20121"
"-22.785","11.76","-0.94868","0.40524","-0.11625","-4.6858","0.85632","0.578","0.19852"
"-9.5341","10.342","2.125","-1.1284","1.2508","-1.5981","0.76869","0.66182","0.18577"
"-2.703","15.726","8.53","4.0558","0.14463","-0.072959","0.74672","0.67977","0.11737"
"1.8116","6.2818","-1.1007","2.7737","-1.0164","2.057","0.77763","0.67032","-0.11518"
"-0.95649","-6.4513","-6.8443","-1.635","0.26099","2.5123","0.85239","0.6106","-0.16065"
"-7.8878","-13.888","12.307","1.396","1.2023","0.18301","0.90716","0.5724","-0.065834"
"-39.181","-39.395","-4.5161","-1.381","2.2798","-0.79747","0.9098","0.56646","-0.005373"
"-4.5982","38.641","-9.4735","0.2767","0.92489","0.74623","0.8698","0.62698","0.032112"
"-24.06","-0.98812","12.621","-3.3405","-0.17031","6.0678","0.95505","0.54198","0.14047"
"-15.209","8.1896","-6.9858","3.7729","0.097471","2.1889","1.046","0.46544","0.031607"
"-21.147","-7.8965","-0.19709","1.523","-0.79369","5.0637","1.1316","0.31084","-0.10086"
"-14.933","-4.6653","-1.1591","-0.52939","-0.1158","3.5209","1.1814","0.14619","-0.17967"
"-0.7265","-30.11","-6.6875","-1.7813","-0.34951","1.471","1.1933","0.028563","-0.24371"
"2.5602","-20.989","-0.57889","-3.3482","-0.090939","-2.5908","1.1673","0.10713","-0.25743"
"-2.607","-4.0782","2.4572","-3.2943","0.1537","-2.3516","1.1303","0.21994","-0.19318"
"-14.267","0.11846","5.6331","-0.83913","0.63552","-3.0529","1.1021","0.30388","-0.066666"
"-27.123","-5.5873","5.3781","3.352","0.70809","-3.3398","1.043","0.38425","-0.005283"
"-20.451","-2.0759","-3.7106","2.5616","-1.0321","-4.2238","0.99466","0.46246","-0.017998"
"-19.897","12.961","2.084","-3.0761","0.57887","-2.8722","0.90791","0.58238","0.058357"
"-10.41","5.8831","3.2187","-1.3062","0.71778","-0.73232","0.87646","0.6201","0.067979"
"-3.6071","10.502","4.1529","2.1992","-0.63795","0.44611","0.87341","0.64354","-0.042031"
"4.4643","0.44383","-5.6584","2.1182","-0.86682","0.87376","0.88849","0.62135","-0.21905"
"1.0746","-8.0978","-10.803","-3.1183","0.37842","2.0527","0.93078","0.60453","-0.2174"
"-5.6779","-15.352","7.0513","3.1275","-0.13934","0.092803","0.96743","0.57499","-0.11805"
"-11.977","-12.755","-5.1724","-1.2861","0.67029","0.7502","0.96737","0.57292","-0.07222"
"-9.6569","57.002","-13.394","1.5085","0.85345","-0.51121","0.93987","0.63025","-0.012172"
"-16.677","5.1504","-1.0501","-1.2885","-1.0409","5.0293","1.0122","0.56999","0.006764"
"-15.605","6.7656","-2.9773","3.2316","-0.56209","3.0852","1.1043","0.43775","-0.073143"
"-27.224","-5.2709","0.46928","0.79036","-1.4631","5.2482","1.1696","0.25097","-0.22132"
"-12.448","-17.651","-3.5725","-1.7618","-0.55949","3.457","1.199","0.08698","-0.31027"
"3.7902","-35.869","-4.3408","-2.6213","-0.22881","-0.34227","1.1949","0.053461","-0.35149"
"0.063904","-10.207","2.0226","-1.2181","0.28409","-2.4544","1.1776","0.1474","-0.31838"
"-2.5441","-1.5635","1.0008","-3.7342","0.80171","-2.4892","1.1537","0.24376","-0.23788"
"-9.7784","-0.77587","1.1721","-0.051352","1.3073","-3.2532","1.0976","0.3522","-0.090858"
"-32.009","-2.1289","-11.6","1.2035","1.021","-4.1582","1.0269","0.43179","-0.011803"
"-27.703","12.183","1.9276","0.86376","0.6982","-4.0443","0.94193","0.51301","0.1073"
"-20.061","9.2526","0.98803","0.53329","1.819","-3.7191","0.80819","0.6503","0.14105"
"-11.561","4.7162","7.3496","0.95715","0.065133","-0.54626","0.73386","0.70932","0.11102"
"-2.4771","8.1399","7.333","4.3679","0.63593","0.75735","0.69895","0.7405","-0.027517"
"2.2274","-4.5499","-1.5636","0.051048","-2.1774","2.3981","0.76119","0.67711","-0.15122"
"-3.1741","-7.1986","-5.9425","-0.85799","1.3407","1.0624","0.82054","0.61736","-0.1639"
"-3.2711","0.86334","4.3567","1.2765","0.55367","-0.18561","0.82814","0.61578","-0.10336"
"-22.101","-39.573","-2.0541","-0.76302","1.2013","0.75995","0.84017","0.61194","-0.016845"
"-6.6614","40.619","-8.5244","0.37472","1.0035","0.42538","0.78828","0.68222","0.07456"
"-19.933","0.99743","1.0875","-1.3286","-0.68723","5.2903","0.88285","0.58921","0.1031"
"-16.935","4.2206","-3.9554","2.5725","-0.35727","2.7687","0.96542","0.50153","0.038515"
"-22.192","-10.096","-0.071267","1.7382","-0.80067","4.7552","1.0525","0.34846","-0.071432"
"-16.06","-1.6973","-2.5148","-0.42692","-0.25941","3.7353","1.102","0.18099","-0.15731"
"-1.9181","-26.462","-5.8761","-2.8306","-0.089741","1.9515","1.1515","0.011634","-0.23538"
"1.785","-21.18","4.0092","-3.164","0.45517","-2.6912","1.1346","0.0926","-0.2282"
"-3.4502","-5.5163","0.40712","-2.3133","0.011264","-2.6783","1.0861","0.20261","-0.17018"
"-10.46","-1.8342","3.5258","-1.7161","1.0462","-2.9213","1.0512","0.28669","-0.036779"
"-31.926","-0.25026","-6.3348","1.0956","0.65539","-3.7679","0.99206","0.36517","0.064638"
"-26.689","7.7971","5.2647","0.96091","0.39138","-4.2748","0.90613","0.51538","0.17389"
"-19.849","9.926","2.5323","-0.34706","1.2064","-4.0595","0.78808","0.65148","0.21289"
"-12.129","8.7113","2.0544","-0.039634","0.92097","-1.5728","0.69867","0.70122","0.19861"
"-4.0856","14.216","6.4781","5.1585","-0.17457","0.57047","0.69115","0.72279","0.088491"
"-0.56666","3.2176","0.3748","0.6437","-1.7052","2.7373","0.75729","0.67008","-0.077659"
"-1.7325","-14.499","-5.146","-1.8289","0.74194","2.9218","0.85511","0.60618","-0.12601"
"-7.576","-11.308","4.4753","3.2004","-0.26239","-0.6266","0.87811","0.59765","-0.07617"
"-13.877","-12.331","4.2465","-1.2446","0.57334","1.616","0.89242","0.58585","-0.019573"
"-13.317","37.75","-7.9051","1.2163","0.84917","-0.35426","0.86995","0.62477","0.048211"
"-18.425","4.8615","4.8734","-2.9911","-0.26884","4.7872","0.93495","0.56686","0.089899"
"-17.844","5.6998","-0.6649","2.6288","-0.44225","2.4563","1.0119","0.48959","0.022051"
"-19.645","-4.4139","-2.6873","1.5476","-0.93694","4.7281","1.0916","0.361","-0.088976"
"-14.685","-4.4891","-0.61659","-0.48645","-0.23599","3.5127","1.1658","0.19823","-0.17652"
"-5.6446","-22.805","-8.5811","-1.4882","-0.4657","2.195","1.1905","0.073635","-0.23568"
"6.5326","-30.945","-4.1393","-5.8303","-0.071764","-2.2107","1.1789","0.15189","-0.25802"
"-2.9119","-6.7029","1.5037","-2.5439","0.13776","-3.1022","1.1297","0.28285","-0.19357"
"-15.845","1.0754","-1.0545","-0.30438","0.82387","-2.3939","1.0909","0.35883","-0.079484"
"-24.599","-1.1624","-3.076","0.099496","1.628","-3.8544","1.0464","0.42246","0.03715"
"-29.559","5.11","-0.04269","0.48558","1.1587","-4.2364","0.94479","0.52259","0.13735"
"-18.573","6.9338","2.0528","0.91697","1.4654","-3.6154","0.81666","0.64401","0.18736"
"-10.692","6.5912","4.0451","1.2187","1.1162","-1.169","0.70196","0.69743","0.18694"
"-5.014","13.768","7.7536","4.0931","0.171","0.25566","0.67391","0.71431","0.098363"
"-0.83925","5.4192","1.3174","3.7","-0.18933","1.6337","0.70247","0.71288","-0.078216"
"1.7971","-9.1148","-5.0419","-0.10669","-0.44112","2.9142","0.78451","0.63541","-0.13195"
"-5.8453","-6.0987","3.54","1.3807","0.81243","0.052461","0.83751","0.60123","-0.051735"
"-29.24","-28.083","0.70989","-4.2124","2.2656","-2.0509","0.84823","0.58254","0.012376"
"-11.585","24.409","-6.089","-1.0316","0.39675","1.0554","0.80817","0.63509","0.11646"
"-24.64","6.7502","2.8537","-2.356","0.54739","5.9343","0.88414","0.55687","0.16558"
"-13.511","2.5677","-7.9658","3.7678","-0.57646","2.3829","0.98045","0.46903","0.072356"
"-26.137","-9.5526","1.5668","2.3011","-0.6567","4.8959","1.0712","0.30467","-0.056214"
"-15.542","-4.1439","-4.2009","-1.3271","-0.002226","3.8567","1.1611","0.090208","-0.19021"
"-0.16879","-27.953","-6.9188","-2.7012","-0.64723","0.88938","1.1672","-0.004744","-0.25722"
"-0.028821","-20.145","0.80647","-2.1848","0.60073","-2.4025","1.1225","0.090525","-0.22868"
"-5.4834","-5.3724","4.7059","-2.0556","0.71091","-2.7077","1.0957","0.18013","-0.13933"
"-8.2628","-0.57489","3.6261","-0.53334","0.42906","-3.4883","1.0583","0.27139","-0.008246"
"-36.931","0.46983","-9.0469","1.8151","2.1388","-4.3563","0.99267","0.40468","0.11985"
"-22.869","0.36407","2.4256","1.0685","-1.336","-4.9383","0.90152","0.51712","0.21226"
"-21.578","12.02","-0.11333","0.44239","0.47806","-3.5663","0.80226","0.61909","0.21697"
"-10.059","11.015","0.71355","-0.62905","0.99506","-1.5864","0.72579","0.68978","0.19402"
"-2.5661","16.244","9.8559","4.4441","0.42656","-0.11099","0.7106","0.70876","0.11937"
"-1.9076","1.7734","2.9031","1.2327","-1.2289","2.6863","0.7748","0.6872","-0.07505"
"-1.7799","-12.751","-2.7814","-0.78711","0.17181","2.9932","0.86865","0.60881","-0.14418"
"-7.8838","-8.8966","7.4796","2.9908","0.16816","0.22799","0.92025","0.55699","-0.09711"
"-27.322","-25.898","-2.86","-1.9912","2.4363","-1.2784","0.92236","0.5544","-0.032517"
"-6.6216","27.855","-6.9969","-0.70693","0.8451","0.94486","0.89113","0.60772","0.035382"
"-21.969","-1.9429","7.2977","-2.1469","0.39662","5.9338","0.97233","0.51626","0.11413"
"-16.933","6.339","-5.2345","3.1014","-0.17178","2.6238","1.0627","0.42438","0.013026"
"-19.555","-6.159","0.65621","1.7017","-0.73907","4.5265","1.15","0.26429","-0.11613"
