"AccX","AccY","AccZ","GyroX","GyroY","GyroZ","MagX","MagY","MagZ"
"-20.271","13.679","1.7614","-0.91591","0.62093","-2.9729","0.79649","0.61619","0.24852"
"-6.1155","10.28","6.3989","0.56519","0.31501","-1.2481","0.7565","0.66499","0.20475"
"-2.1193","7.2073","-0.26514","4.7573","-0.022158","0.9101","0.74751","0.70101","0.001055"
"5.5428","2.6605","-9.0824","-1.5321","-1.7105","2.5751","0.82241","0.64399","-0.10755"
"-1.0017","-18.886","-7.9512","-0.57982","1.3134","1.2274","0.89145","0.59613","-0.079588"
"-2.7883","-0.88756","-4.392","0.9099","-0.067702","-0.029885","0.89777","0.5983","-0.08127"
"-23.376","16.478","8.7386","-0.23154","1.7945","-2.8713","0.89844","0.60943","0.029395"
"-7.413","18.429","-2.3114","-2.5602","-0.055781","2.8925","0.92023","0.60217","0.098811"
"-33.331","-13.497","6.5174","1.3905","-0.5016","3.9204","1.0302","0.46248","0.082895"
"-20.098","3.2222","-3","2.9884","-0.6822","4.2025","1.0996","0.39377","-0.056996"
"-18.405","-5.7211","-2.6071","0.21848","-0.7984","4.3935","1.1665","0.21229","-0.17501"
"-13.434","-15.662","-3.3118","-2.5628","-0.51185","3.6804","1.1968","0.062914","-0.23897"
"9.6829","-40.788","-5.0807","-2.6545","0.095364","-0.97739","1.1984","0.012951","-0.30895"
"-4.8882","-5.6421","1.6256","-2.2934","-0.026035","-2.8624","1.1704","0.11992","-0.2477"
"-9.4675","-2.9104","1.9739","-1.5889","1.2376","-2.9152","1.1265","0.21406","-0.13656"
"-33.307","2.9958","-6.0476","1.7427","1.3978","-3.887","1.0631","0.28829","0.005925"
"-31.494","4.5351","-0.058943","0.48947","2.778","-4.3096","0.9552","0.40877","0.18906"
"-23.757","6.5786","3.3717","0.36526","-0.03982","-4.8038","0.83472","0.56754","0.27183"
"-14.377","13.017","1.5903","0.2759","0.66571","-2.4952","0.72972","0.68062","0.24192"
"-2.8088","15.636","8.4712","2.8889","-0.23412","-0.37824","0.67674","0.71989","0.14867"
"0.9609","4.4185","-1.5354","3.0137","-0.42465","1.6557","0.7126","0.69828","-0.043712"
"0.70494","-6.8564","-6.8292","-1.0554","-0.41105","2.3392","0.79639","0.62823","-0.096235"
"-7.435","-10.269","10.206","1.535","1.5374","0.016339","0.86328","0.57507","-0.028094"
"-12.132","-14.147","-0.20801","-1.5806","0.65814","1.2703","0.87249","0.58032","0.012124"
"-13.267","49.289","-5.6439","1.8157","1.1232","-1.4343","0.8168","0.64677","0.092726"
"-11.893","9.3544","-3.0988","-3.1986","-0.81799","4.1486","0.8799","0.59221","0.11772"
"-20.172","0.89563","2.3711","2.196","-0.96725","2.1613","0.9841","0.48545","0.076137"
"-17.465","1.2477","-3.6631","2.1416","-0.84433","4.6139","1.0537","0.40369","-0.047843"
"-16.275","-5.1398","-0.77664","-0.54551","-0.59806","3.8458","1.1249","0.24113","-0.14277"
"-15.221","-9.0918","-4.2208","-1.7412","-0.4813","3.4648","1.1774","0.10908","-0.20633"
"8.894","-37.872","-4.892","-4.0415","-0.15416","0.21309","1.1784","0.037105","-0.25158"
"-0.89033","-6.9765","1.8987","-2.2315","-0.29027","-2.6797","1.1584","0.14318","-0.2152"
"-5.8588","-2.943","0.077591","-3.335","0.79702","-2.5827","1.11","0.22943","-0.11907"
"-34.856","1.4486","-1.5658","1.8133","1.5321","-3.8276","1.0623","0.31927","0.017966"
"-29.209","-0.72561","1.7061","2.1778","1.4863","-3.5906","1.0058","0.40725","0.11579"
"-17.734","8.4418","0.80409","0.88484","-0.46965","-4.8072","0.91793","0.5263","0.11159"
"-16.424","10.472","3.7899","-0.67692","0.98039","-2.5566","0.81757","0.64078","0.12393"
"-5.3383","9.4112","6.081","0.81956","0.015756","-0.49133","0.75656","0.67375","0.089524"
"-0.045318","5.1782","2.5733","5.6775","0.96323","0.32207","0.76576","0.6715","-0.074178"
"6.4038","-1.1625","-10.684","-1.8622","-1.4391","1.929","0.82253","0.63149","-0.16063"
"-4.1786","-9.0362","5.7371","0.16197","1.2311","-0.002","0.85531","0.62527","-0.061527"
"-4.02","0.33467","-1.9294","-2.4716","0.38714","0.73454","0.85187","0.63977","-0.017406"
"-20.064","35.693","7.8603","2.9509","1.9239","-3.9171","0.84292","0.64891","0.053232"
"-9.5759","13.964","-8.5603","-4.7198","-0.75811","3.1601","0.88099","0.63918","0.059625"
"-31.858","-10.455","6.2741","0.33813","-0.45286","3.1392","0.95744","0.55726","0.094371"
"-18.091","2.312","-1.7135","2.7857","-0.89193","4.0497","1.0347","0.48738","-0.020897"
"-20.769","-5.0746","-0.59093","0.49849","-0.87286","4.444","1.1131","0.31569","-0.13991"
"-14.797","-6.8259","-3.3559","-2.1688","-0.79735","3.6977","1.1907","0.12792","-0.22601"
"3.5546","-32.302","-5.5349","-2.2695","-0.33945","0.92421","1.1932","0.04848","-0.28371"
"1.6819","-16.409","-2.1023","-2.4467","0.26292","-2.5624","1.1565","0.14774","-0.26445"
"-4.3469","-3.4494","-0.27175","-2.3996","0.76966","-2.537","1.1334","0.22824","-0.18597"
"-39.041","-1.7582","-1.7647","1.226","2.368","-4.1387","1.0907","0.30241","-0.042432"
"-26.125","-1.852","1.3965","1.5647","2.0288","-3.5551","1.0212","0.41923","0.090254"
"-19.836","5.4334","0.90987","1.2535","-0.93707","-4.7541","0.92817","0.52551","0.10903"
"-16.68","10.146","3.3664","0.21433","1.3844","-2.29","0.81468","0.61174","0.14254"
"-6.9558","9.56","6.2856","1.9117","0.57075","-0.9183","0.74982","0.65834","0.097493"
"-1.4121","11.478","3.5756","5.9136","0.37641","0.57934","0.73079","0.65944","-0.047421"
"6.0618","-3.0205","-4.3976","-1.5078","-1.3137","1.6588","0.76461","0.63336","-0.15645"
"-2.3109","-9.6961","-6.7384","-1.3466","1.301","0.088024","0.79589","0.62292","-0.10221"
"-2.0639","8.3232","0.94899","-1.7163","-0.01391","-0.13585","0.79255","0.62266","-0.057549"
"-50.52","-58.077","-0.47449","2.1122","3.4148","-2.3546","0.81746","0.59935","0.062684"
"-1.8124","38.13","-8.3491","-1.018","0.57256","1.891","0.77304","0.65731","0.075474"
"-23.908","-17.345","4.9182","0.16543","0.042054","4.9568","0.8702","0.5702","0.13085"
"-16.719","10.813","-7.8528","2.4246","-0.065064","2.8738","0.94851","0.50404","0.042013"
"-21.735","-9.614","0.022962","-0.26067","-0.95922","4.2904","1.0554","0.32872","-0.061416"
"-14.043","-5.362","-0.037312","-2.1195","-0.76204","3.3321","1.1043","0.19395","-0.13229"
"-8.0424","-14.612","-7.349","0.38528","-0.46599","2.4219","1.1128","0.088894","-0.2117"
"7.7217","-34.174","-7.6807","-5.0026","0.36192","-1.0461","1.0891","0.090984","-0.24119"
"-1.3712","-7.66","1.4853","-1.5539","0.35268","-2.3078","1.0667","0.17517","-0.16565"
"-8.3506","-1.6103","0.39766","-0.66511","0.72616","-3.2381","1.0499","0.24674","-0.055735"
"-30.207","3.2395","-7.2645","0.65668","2.6945","-3.7378","0.99082","0.33121","0.084723"
"-30.48","1.3614","0.42773","1.1257","2.4003","-2.9827","0.88948","0.42281","0.26215"
"-24.877","6.2597","-0.076967","-0.56089","-0.038662","-4.868","0.75981","0.58567","0.3119"
"-15.484","8.6301","3.756","0.85441","1.1463","-2.4239","0.65837","0.67758","0.31988"
"-8.3996","7.0853","4.5663","1.1971","0.61743","-0.89742","0.61816","0.70815","0.26985"
"-1.1421","12.574","1.8127","6.8148","-0.086449","0.74299","0.62631","0.73433","0.093219"
"6.5815","2.0496","-2.3881","-1.5096","-1.6585","2.0785","0.70338","0.68527","-0.013223"
"-0.62203","-11.493","-7.7755","-0.44347","0.094022","1.1335","0.79702","0.62363","0.005635"
"-15.667","-32.886","-5.1739","-1.034","0.53808","0.35596","0.82579","0.60521","0.025979"
"-8.3976","42.737","-9.8449","-1.202","0.44573","-0.30276","0.79642","0.64425","0.15308"
"-13.418","3.6239","3.516","0.3161","-0.76057","4.8269","0.88181","0.56613","0.14828"
"-23.158","7.2001","2.1434","2.0497","-1.0817","2.8611","0.99543","0.45411","0.05759"
"-21.128","-3.5278","-2.4081","1.0724","-1.2433","4.7966","1.0781","0.33617","-0.067018"
"-16.467","-1.5106","-4.4754","-0.82581","-0.63057","3.8715","1.1472","0.18532","-0.20752"
"-3.2589","-24.716","-8.2441","-1.7754","-0.55496","2.9965","1.2012","0.038115","-0.33289"
"4.5205","-29.763","-2.3667","-0.58861","-0.16819","-1.3314","1.1844","0.049786","-0.3759"
"-2.6247","-4.3875","0.8156","-0.80694","0.092582","-2.2097","1.1718","0.098751","-0.32547"
"-5.8977","-0.37253","2.0261","-4.2138","0.8046","-2.5715","1.1202","0.195","-0.17788"
"-45.322","4.4836","-1.0323","0.94563","0.85422","-4.359","1.0828","0.27497","-0.017822"
"-30.612","7.2787","0.29951","1.2879","3.2578","-2.8454","1.0451","0.3518","0.10858"
"-20.794","5.5995","-6.875","-0.96763","-1.2865","-5.8333","0.9639","0.49073","0.10949"
"-13.658","8.9899","0.97902","-1.3978","-0.055494","-1.6024","0.89132","0.58759","0.10514"
"-5.3997","9.7633","3.7352","-0.26016","1.3905","-0.64955","0.83029","0.61873","0.12079"
"-3.9698","4.9766","3.5224","6.3162","0.74865","0.92505","0.82769","0.62645","-0.014769"
"5.9799","-0.81159","-7.934","-1.3501","0.1055","2.1309","0.88253","0.58175","-0.12121"
"-5.1816","-15.134","1.3411","1.3364","1.1026","-0.56951","0.91819","0.56661","-0.029483"
"-12.141","-27.502","-9.1338","0.84241","1.3523","0.95822","0.91244","0.55984","-0.022696"
"-10.95","39.942","-10.426","0.29209","0.46316","-0.46153","0.88304","0.59009","0.060858"
"-13.873","6.6047","-0.23376","-1.6353","-0.37001","4.7186","0.94734","0.5264","0.069869"
"-17.23","2.3174","-2.2891","3.2812","-0.82418","2.9414","1.0211","0.44068","0.053782"
"-22.177","-6.0073","0.97394","3.1889","-0.65627","5.0673","1.0936","0.30191","-0.057995"
"-17.105","-0.50823","0.26766","0.43971","-0.19243","3.5994","1.1402","0.11263","-0.15676"
"-9.9765","-16.252","-5.9443","-1.787","-0.15323","3.1909","1.192","-0.088793","-0.28306"
"9.5899","-34.789","-3.1388","-5.2652","0.23518","-1.285","1.1802","-0.086532","-0.31902"
"-1.6355","-6.146","4.6524","-2.9869","0.036698","-2.3299","1.1397","0.043584","-0.24424"
"-7.7332","-1.4301","3.5685","-2.4272","1.0022","-3.3353","1.1154","0.14895","-0.12531"
"-29.325","-6.1682","-1.1194","2.4195","0.75604","-3.9504","1.062","0.26644","-0.006346"
"-22.387","15.542","10.366","6.2017","1.5388","-2.683","1.0103","0.39026","0.0911"
"-32.679","17.363","-9.7632","-5.408","-0.072599","-5.7832","0.9258","0.5589","0.095046"
"-9.907","3.76","0.49043","-3.8244","0.70685","-0.81588","0.87771","0.56961","0.14874"
"-5.6875","5.9425","7.3133","0.11818","-0.45016","-0.27352","0.8793","0.57418","0.13515"
"-2.0548","8.9775","-6.7435","5.9226","-0.55069","0.42414","0.89597","0.58428","-0.028804"
"3.357","-6.6837","-14.912","-3.0842","0.23931","1.3035","0.94644","0.56463","-0.089503"
"0.906","-15.38","-0.5588","2.8194","-1.385","-1.5495","0.92948","0.59842","-0.07355"
"-11.911","4.7532","-13.869","-1.8337","1.3982","-0.92493","0.92509","0.59668","-0.009149"
"-18.507","13.612","-2.7509","-1.383","-0.48268","2.3294","0.95286","0.57823","0.078699"
"-17.535","-1.2897","6.4437","1.7758","-0.068139","3.4869","1.0277","0.50455","0.060583"
"-21.693","10.214","-7.1317","1.7848","-0.63837","4.7804","1.1105","0.39849","0.003033"
"-20.942","-10.607","0.93759","0.5208","-1.2331","4.091","1.1781","0.22495","-0.095626"
"-15.053","-7.6169","-3.2577","-1.3348","-0.66517","3.7835","1.2239","0.068333","-0.21332"
"2.9352","-34.565","-7.0306","-0.69982","-0.18184","0.70649","1.2146","-0.029598","-0.29199"
"-1.1957","-14.751","1.7008","0.15719","0.3622","-1.6244","1.1969","0.016531","-0.26852"
"-3.5119","-3.8885","4.567","-2.0929","0.18109","-2.2055","1.1491","0.063584","-0.18612"
"-10.88","2.4754","3.877","-1.3017","0.1877","-3.6226","1.1169","0.16037","-0.064784"
"-26.372","-3.2423","-4.4382","1.9802","2.3135","-4.2778","1.0732","0.27335","0.026006"
