"AccX","AccY","AccZ","GyroX","GyroY","GyroZ","MagX","MagY","MagZ"
"11.981","0.008000000000000007","0.9725","0.527","1.8935","-1.1495","-24.259999999999998","17.677500000000002","-12.446"
"5.868499999999999","1.145","2.0735","-1.254","1.1375000000000002","-0.7665","-24.891","18.4005","-10.525500000000001"
"0.1765","5.6274999999999995","2.5309999999999997","0.665","0.21600000000000003","-0.643","-25.365","19.302","-10.572"
"1.9340000000000002","2.088","-1.0035","0.20650000000000002","-0.062","-0.3385","-25.681","19.4815","-10.9145"
"0.1765","-0.47050000000000003","-1.3265","0.0805","-0.3385","-0.132","-25.523","19.8455","-11.2645"
"-1.428","0.20400000000000001","0.4505","0.093","-0.091","0.0815","-25.365","19.848","-11.592"
"-0.3585","0.7969999999999999","1.013","-0.2175","0.022500000000000003","0.1815","-25.365","19.305","-11.397"
"3.4615","3.9055","-0.0005000000000000004","-0.43","-0.0655","0.256","-25.049","18.761499999999998","-11.219999999999999"
"24.091","2.8385","3.6045000000000003","0.5565","-0.7144999999999999","0.5825","-24.575499999999998","18.0415","-12.6455"
"25.657","2.266","1.322","-1.192","-2.2305","0.9604999999999999","-22.997","16.433","-14.9875"
"11.560500000000001","-0.0925","-12.503","1.267","-0.49649999999999994","0.1035","-23.155","17.519","-16.5225"
"16.565","-3.058","-1.4905","-0.5855","0.657","-0.496","-23.628","17.1475","-14.7165"
"9.689","1.764","-2.511","-1.076","0.905","-0.23450000000000001","-24.259999999999998","17.319","-12.591000000000001"
"6.8614999999999995","0.09949999999999999","0.5945","0.023999999999999994","0.8069999999999999","-1.1880000000000002","-25.207","19.487000000000002","-11.3845"
"6.593999999999999","2.1470000000000002","2.371","0.9435","0.51","-1.047","-25.997","20.750500000000002","-10.989"
"9.039","2.138","-3.0860000000000003","-0.669","0.663","-0.35250000000000004","-26.1545","20.93","-9.859"
"10.491","5.3325","-0.5645","-0.2375","0.005499999999999998","-0.0015000000000000013","-26.312","20.924","-10.016"
"9.8415","2.3585","1.52","0.194","-0.1565","0.065","-26.312","20.924","-10.344000000000001"
"9.956","-0.394","-0.724","0.8105","-0.2455","0.0365","-26.1545","21.288","-11.0235"
"9.383","-0.132","-2.418","0.3025","0.0545","-0.06","-26.312","21.288","-11.026"
"10.0705","1.0555","-1.8255","-0.2895","0.1385","0.012","-25.997","21.291","-10.6815"
"9.2685","1.728","-1.5405","0.0015000000000000013","0.156","-0.087","-26.312","21.47","-10.384"
"9.688500000000001","0.5735","-1.298","0.37649999999999995","0.3435","-0.212","-26.312","21.652","-10.065999999999999"
"9.688500000000001","0.053","-1.4435","0.357","0.3465","-0.177","-26.628","22.011","-9.751"
"9.689","0.276","-1.3705","-0.1485","0.34550000000000003","-0.091","-26.786","22.008499999999998","-9.091"
"9.498000000000001","0.5","-1.825","-0.1905","0.20900000000000002","-0.028999999999999998","-26.628","22.011","-8.924"
"9.4215","0.4635","-2.0125","0.0165","0.20750000000000002","-0.057499999999999996","-26.628","22.375","-8.604"
"9.842","-0.1335","-1.702","0.0115","0.2365","-0.0615","-26.786","22.372500000000002","-8.288499999999999"
"9.842","-0.5425","-1.9965000000000002","-0.2275","0.156","-0.055","-26.786","22.372500000000002","-7.796"
"9.574","0.5745","-1.8255","-0.314","0.078","-0.071","-26.786","22.372500000000002","-7.629"
"9.842","2.0605","-0.7155","-0.16599999999999998","-0.0895","-0.0125","-26.628","22.372500000000002","-7.7940000000000005"
"9.383","4.48","1.2765","-0.013000000000000005","-0.599","0.273","-26.628","21.8265","-8.761"
"8.084","4.41","2.7264999999999997","0.352","-1.2730000000000001","0.6685","-25.9965","20.929499999999997","-11.496500000000001"
"8.619","1.842","1.4135","0.6795","-1.678","0.8855","-24.891","20.0355","-14.2345"
"14.273","3.0865","0.2455","0.5495","-2.0815","1.3864999999999998","-23.1545","17.883499999999998","-17.554000000000002"
"10.032499999999999","1.168","-1.9409999999999998","-0.346","-2.3745000000000003","1.976","-20.6285","15.56","-20.192500000000003"
"4.0735","-0.7815","-4.368","0.3645","-1.6715","1.518","-18.576","14.505","-22.249"
"6.785500000000001","-2.54","-4.248","-0.119","-0.121","0.399","-18.418","14.141","-21.897"
"17.2905","-0.5625","0.7725","-0.6595","0.531","-0.036500000000000005","-19.05","13.769","-20.563499999999998"
"23.518","4.0584999999999996","-0.028499999999999998","-1.3845","0.632","-0.15","-19.680999999999997","13.384","-18.3995"
"21.2255","7.3775","-1.775","-0.5680000000000001","1.537","-1.267","-21.734","14.813500000000001","-15.8795"
"17.52","4.0425","-0.0020000000000000018","1.104","2.4215","-2.0709999999999997","-24.102","17.8675","-13.6085"
"8.275500000000001","1.1","2.44","0.618","1.772","-1.4035","-25.365","19.302","-11.582"
"2.9275","0.44399999999999995","1.566","-0.758","0.9804999999999999","-0.463","-25.365","19.484","-10.2545"
"0.291","2.839","3.657","-0.233","0.37","-0.4205","-25.839","19.843","-10.104"
"2.125","3.0175","0.7484999999999999","0.379","-0.34750000000000003","-0.20350000000000001","-25.681","20.386499999999998","-10.639"
"-0.511","-0.208","-1.3365","1.1190000000000002","-0.009000000000000001","-0.278","-25.997","21.109","-11.506"
"1.017","-0.6975","-0.7555000000000001","0.48750000000000004","0.33899999999999997","0.036500000000000005","-25.997","20.747999999999998","-11.154"
"1.666","0.862","-0.352","-0.911","-0.2215","0.378","-25.681","20.025","-10.947"
"7.5115","6.8345","4.442","-1.5274999999999999","-0.33199999999999996","0.602","-25.049","18.759","-11.032499999999999"
"28.713","2.5564999999999998","2.2344999999999997","1.706","-0.6415","0.7505","-24.575499999999998","18.4105","-12.8305"
"17.902","6.2455","-4.9030000000000005","-0.08700000000000002","-1.134","0.482","-23.786","17.872999999999998","-14.419"
"12.133500000000002","-0.476","-9.064","2.2655","-0.606","0.2475","-23.47","18.606","-16.113999999999997"
"13.776","-8.180499999999999","-1.988","0.07050000000000001","0.958","-0.21550000000000002","-23.944000000000003","18.78","-14.4815"
"11.1405","2.1345","0.38","-1.8010000000000002","0.998","-0.6964999999999999","-24.891","19.126","-12.04"
"6.709","0.845","-1.1385","-0.965","0.5015","-0.766","-25.365","19.848","-11.1095"
"6.250500000000001","2.334","-0.973","0.078","0.14400000000000002","-0.7949999999999999","-25.997","21.112000000000002","-11.011"
"5.792","3.0795000000000003","0.2135","0.6205","0.332","-0.599","-26.312","22.016","-10.559000000000001"
"8.772","-0.353","-2.5615","-0.14900000000000002","0.9159999999999999","-0.2765","-26.628","22.372500000000002","-9.113"
"12.401","-1.4805000000000001","-0.8775","-0.4545","0.2745","-0.2595","-26.786","22.5545","-8.631"
"14.0815","1.19","-1.153","-0.773","-0.23149999999999998","0.019999999999999997","-26.628","22.372500000000002","-8.771"
"9.6125","4.44","-1.5365","-0.5655","-0.4035","0.10550000000000001","-26.628","22.011","-9.091"
"9.650500000000001","-0.058499999999999996","-3.8129999999999997","0.4605","0.031","0.064","-26.312","22.377499999999998","-9.274000000000001"
"9.039000000000001","-0.9115","-0.5","0.8845","0.0465","-0.006","-26.47","22.377499999999998","-9.767"
"8.7335","-0.241","-1.0350000000000001","0.14500000000000002","-0.0595","0.196","-26.628","22.0135","-9.751"
"9.765","-0.728","-1.096","-0.16349999999999998","-0.075","0.154","-26.312","21.652","-9.561"
"10.4525","-0.3215","-1.282","-0.193","-0.1455","0.075","-26.312","21.834","-9.901"
"9.612","1.2435","-2.47","0.0485","-0.2005","0.056999999999999995","-26.312","21.652","-10.221"
"9.727","0.425","-2.4219999999999997","0.187","-0.0425","0.047","-26.312","21.652","-10.056"
"10.109","-0.7295","-1.9545","0.078","0.1225","-0.027999999999999997","-26.312","21.655","-10.058499999999999"
"9.4215","-0.0205","-1.259","-0.082","0.088","-0.056","-26.312","21.652","-9.7285"
"9.498000000000001","0.4255","-0.999","-0.1855","0.0395","-0.016999999999999998","-26.47","21.8315","-9.751"
"9.345","1.4675","-0.786","-0.247","-0.2325","0.2425","-26.312","21.288","-10.046"
"6.9","3.559","0.3295","-0.14100000000000001","-0.786","0.5895","-25.839","20.386499999999998","-11.299"
"8.8865","5.2625","0.471","0.21850000000000003","-1.0715","1.25","-24.575499999999998","18.4055","-13.150500000000001"
"13.8525","7.2895","0.7955","0.3195","-1.839","2.0045","-22.839","15.705","-15.7795"
"5.1045","0.40400000000000014","-3.6695","1.2595","-2.153","2.1235","-20.4705","14.8345","-20.3155"
"-0.6255","-7.8695","-0.7150000000000001","1.4100000000000001","-1.0965","1.0165","-19.05","14.861","-21.448500000000003"
"16.5265","0.8845000000000001","3.526","-0.758","0.088","0.0545","-19.05","14.13","-20.421"
"22.2185","4.6205","-0.383","-1.648","0.23800000000000002","-0.11149999999999999","-19.681","13.3945","-18.915"
"21.34","5.4425","-2.724","-1.022","1.0065","-1.3955000000000002","-21.576","14.816","-16.5365"
"22.4865","3.3185000000000002","-1.8649999999999998","0.2235","2.5220000000000002","-2.35","-24.102","17.6855","-13.4335"
"13.012","0.9715","1.9415","0.04599999999999999","2.269","-1.576","-25.523","19.299500000000002","-10.08"
"4.799","1.4835","1.4065","-1.3940000000000001","1.1560000000000001","-1.1095000000000002","-26.47","20.7395","-7.874"
"-1.1985000000000001","8.164","0.09250000000000003","-0.3015","0.544","-0.9824999999999999","-26.628","21.647","-7.411"
"3.347","7.102500000000001","2.0415","0.411","-0.23349999999999999","0.058","-26.786","21.8265","-7.9285000000000005"
"0.253","-4.1530000000000005","0.9670000000000001","1.104","-0.2885","-0.0765","-26.628","22.011","-8.928"
"-0.549","-2.142","0.7484999999999999","0.8745","-0.14550000000000002","0.1905","-26.312","21.4675","-9.376"
"0.444","-0.658","-0.91","-1.0614999999999999","-0.28800000000000003","0.576","-25.997","20.747500000000002","-9.339500000000001"
"-0.8165","0.42500000000000004","-2.9945","-1.1915","-0.419","0.5595000000000001","-25.839","20.0225","-9.1345"
"5.2575","6.632","-1.9635","-0.0945","0.3385","0.672","-25.365","18.576999999999998","-8.575"
"24.2055","-5.2045","-0.8634999999999999","2.5934999999999997","0.0325","0.7150000000000001","-25.365","18.938000000000002","-9.892"
"33.067499999999995","-0.3835000000000002","3.939","-0.39050000000000007","-0.46099999999999997","-0.458","-25.049","18.58","-10.528"
"8.963000000000001","9.8655","-13.142499999999998","-2.245","-1.749","0.354","-24.575499999999998","17.8595","-11.4605"
"12.21","-2.412","-8.2865","1.4985","1.145","-0.3125","-25.049","19.125500000000002","-10.3925"
"9.689","-5.823","1.0995","1.178","1.975","-1.088","-26.1545","20.744999999999997","-8.354500000000002"
"5.1045","-2.7590000000000003","0.7995000000000001","-0.536","0.8009999999999999","-0.6945","-26.628","21.283","-7.0715"
"5.7155000000000005","-0.491","-0.5425","-1.3079999999999998","0.2215","-0.32399999999999995","-26.944","21.6445","-6.271"
"6.0215","5.904999999999999","-1.3545","-0.5215","-0.583","-0.2305","-26.786","22.008499999999998","-6.786"
"8.046","4.336","-2.556","0.332","0.2445","-0.1345","-26.786","22.372500000000002","-6.802"
"11.5225","-3.3","-3.263","1.2225000000000001","0.263","-0.041999999999999996","-26.944","22.37","-6.971"
"13.203","-2.3025","-1.7565","0.11499999999999999","-0.2005","-0.028999999999999998","-26.944","22.37","-7.301"
"12.057500000000001","1.272","-4.212","-0.489","-0.226","-0.0495","-26.944","22.552","-7.144"
"8.7335","1.877","-3.797","-0.203","0.0735","-0.128","-26.944","22.552","-6.973"
"7.664","0.022999999999999993","-1.7595","0.263","0.41400000000000003","-0.16249999999999998","-26.944","23.098","-6.517"
"9.001000000000001","-1.915","-0.6025","0.132","0.256","-0.092","-27.26","23.092","-6.191"
"8.5045","0.020500000000000018","-1.6775","-0.326","-0.028999999999999998","-0.088","-26.944","23.098","-6.187"
"9.116","0.8005","-3.4059999999999997","-0.0695","-0.08399999999999999","-0.001","-27.26","23.095","-6.191"
"12.1335","1.3465","-3.162","0.189","-0.074","0.0485","-27.26","23.092","-6.521"
"9.574","0.537","-1.3725","0.0955","-0.1395","0.14450000000000002","-27.102","23.095","-6.8385"
"8.008","-0.164","-2.9895","-0.124","-0.0915","-0.0125","-27.102","23.092","-6.836"
"11.14","0.0855","-2.0315","0.1915","-0.018000000000000002","0.1015","-27.26","22.728","-6.833"
"10.681999999999999","0.496","0.616","0.325","-0.079","-0.049","-26.944","23.098","-7.0135000000000005"
"10.185500000000001","2.469","-0.9830000000000001","-0.36550000000000005","0.02","-0.042","-27.26","23.092","-6.851"
"10.758500000000002","0.794","-2.082","-0.193","-0.065","0.145","-26.944","22.734","-7.156"
"8.6955","1.7675","-1.5495","0.3245","-0.5475","0.391","-26.786","22.1905","-8.1135"
"7.625500000000001","2.5525","-1.2665000000000002","0.3375","-0.994","0.7705","-25.997","21.112000000000002","-10.022"
"8.199","3.3655","-0.7415","0.722","-1.5299999999999998","1.1375000000000002","-25.207","19.668999999999997","-12.7345"
"10.6435","3.992","-2.192","0.993","-1.6749999999999998","1.597","-23.4705","17.514","-16.0535"
"3.6145","-2.8245","0.6734999999999999","1.109","-1.9420000000000002","1.679","-21.8915","16.445999999999998","-19.2705"
"4.226","-4.4645","1.112","-0.509","-0.9790000000000001","1.068","-20.313","15.201","-19.344"
"15.1515","0.472","1.5825","-1.1720000000000002","-0.008499999999999999","0.052","-20.4705","15.014","-18.181"
"28.331","1.1005","-1.1855","-1.2014999999999998","0.2655","-1.0405","-21.734","15.536","-16.7445"
"23.1355","5.7705","-5.873","-1.3325","1.353","-1.6404999999999998","-23.628","16.9655","-13.881499999999999"
"16.6795","7.3185","-2.034","0.0855","2.3105","-1.8570000000000002","-25.365","19.12","-10.5765"
