"AccX","AccY","AccZ","GyroX","GyroY","GyroZ","MagX","MagY","MagZ"
"9.926","10.0395","-1.865","-0.151","0.581","-1.984","-39.735","-20.799","-2.3605"
"4.129","1.0979999999999999","2.235","1.3824999999999998","1.1815","-1.366","-41.6635","-19.3","-2.2969999999999997"
"-0.4855","1.5194999999999999","4.6455","0.376","0.158","-0.7444999999999999","-42.821","-18.444","-1.859"
"2.146","3.761","-1.035","-1.698","-0.08399999999999999","0.105","-42.242000000000004","-19.092","-1.038"
"0.46799999999999997","1.5545","-2.5054999999999996","-1.1159999999999999","-0.7384999999999999","0.773","-40.892","-19.944","-1.2695"
"-0.1045","1.7805","0.1065","0.08249999999999999","-0.5385","0.47250000000000003","-40.506","-20.156","-2.3369999999999997"
"0.2005","0.619","-0.474","0.7035","-0.266","0.257","-40.506","-20.595","-3.3979999999999997"
"4.5485","2.556","0.573","0.5095","-0.623","0.07050000000000001","-40.121","-21.027","-4.2575"
"20.5275","5.705","-11.171","0.1795","-0.061","0.38849999999999996","-39.3495","-21.671","-4.07"
"21.481","16.167","1.0200000000000002","-0.6405000000000001","-0.4055","1.594","-36.649","-23.374000000000002","-4.5375"
"18.4305","-10.6165","-10.686499999999999","0.07300000000000001","0.259","1.4685000000000001","-34.335","-24.865","-3.301"
"13.625","5.013","-8.487","-1.232","0.3765","-0.5905","-35.492000000000004","-23.5695","-2.399"
"8.743500000000001","3.3735","-1.6070000000000002","1.355","0.9295","-1.482","-38.771","-21.439","-2.573"
"6.074","0.41999999999999993","0.21050000000000002","0.9950000000000001","0.909","-1.1315","-40.699","-20.375500000000002","-2.3375000000000004"
"5.006","-2.2750000000000004","-0.6855","-0.037500000000000006","0.383","-0.685","-41.278","-19.512","-1.4685000000000001"
"5.616","2.1445","-1.6115","-1.2525","-0.003","-0.2295","-41.471000000000004","-19.08","-0.606"
"7.409","6.186","-3.6005000000000003","-1.1440000000000001","-0.1435","-0.07550000000000001","-41.664","-18.86","-0.177"
"17.133499999999998","11.262","-4.36","0.482","0.0345","-0.3395","-42.049","-18.428","-1.217"
"8.4","5.2105","-0.46699999999999997","2.1055","0.45899999999999996","0.3","-41.664","-19.08","-1.4515"
"9.277000000000001","-3.6685","-3.8795","0.0315","0.4505","0.027999999999999997","-41.664","-18.86","-0.599"
"9.888","-1.572","-4.0355","-0.456","-0.08650000000000001","-0.14700000000000002","-41.8565","-18.86","-0.599"
"7.6754999999999995","5.586499999999999","-3.8925","-0.0865","-0.18","-0.224","-42.435","-18.436","-1.011"
"9.392","4.4595","-2.622","0.505","0.33099999999999996","-0.361","-42.821","-18.005","-0.576"
"10.04","0.9750000000000001","-2.926","0.7384999999999999","0.3845","-0.234","-43.013999999999996","-17.789","-0.5785"
"9.5825","1.088","-3.4175","-0.0195","0.012499999999999999","0.023","-43.013999999999996","-18.009","-0.5785"
"8.82","3.2245","-1.647","-0.262","-0.28400000000000003","0.195","-42.628","-18.436","-1.011"
"8.553","5.622","-0.8025","-0.2825","-0.5495","0.5165","-42.049","-19.08","-1.457"
"8.057500000000001","8.5445","-1.2825","0.0085","-0.645","1.1095000000000002","-40.313500000000005","-20.575499999999998","-2.1335"
"5.6545000000000005","4.878500000000001","-1.9295","0.2485","-0.41000000000000003","1.5635","-37.998999999999995","-22.522","-3.454"
"8.4385","-3.627","-1.5225","0.655","-0.543","1.564","-35.105999999999995","-24.221","-4.5465"
"10.002","-1.496","-5.1535","0.075","-0.7995","1.2195","-32.599000000000004","-25.4965","-5.414"
"11.07","5.3925","-5.38","-0.197","-0.7795","0.46849999999999997","-32.02","-26.136","-5.646"
"19.3455","3.8415","-3.911","0.3065","-0.315","-0.025","-32.599000000000004","-26.14","-6.2805"
"22.015","2.2635","-9.2255","-1.079","0.0655","-1.0565","-34.5275","-24.869","-4.779"
"15.6465","9.542","-7.926","-1.3864999999999998","0.5615","-1.6635","-37.998999999999995","-22.302500000000002","-3.444"
"9.315999999999999","8.8045","0.6835","-0.1325","0.7175","-1.8014999999999999","-41.085","-19.728","-2.7375"
"2.146","1.2890000000000001","0.6805","0.6599999999999999","0.8215","-1.0735000000000001","-42.435","-18.66","-2.2880000000000003"
"0.163","0.2065","2.2575000000000003","0.0315","0.2685","-0.632","-43.207","-18.2285","-1.6444999999999999"
"0.16249999999999998","1.293","-1.798","-1.343","-0.1335","0.07","-42.821","-18.439999999999998","-1.0139999999999998"
"0.239","3.128","-1.472","-0.3035","-0.35250000000000004","0.34199999999999997","-42.242000000000004","-18.872","-1.2389999999999999"
"1.421","2.5645","0.0485","0.5185","-0.17149999999999999","0.236","-42.049","-18.868","-2.079"
"1.612","2.076","0.434","1.0755","-0.14950000000000002","0.20850000000000002","-42.242000000000004","-19.311999999999998","-2.944"
"3.824","1.8115","0.3895","0.789","0.0034999999999999996","0.146","-42.242000000000004","-19.528","-2.957"
"18.087","6.503","-8.6905","-0.21999999999999997","0.34550000000000003","0.6075","-40.699","-20.599","-2.139"
"23.616500000000002","12.7105","-0.273","-0.504","-0.596","1.3479999999999999","-38.771","-22.0945","-2.583"
"18.087","-5.4485","-7.7795000000000005","0.7105","-0.11449999999999999","1.0390000000000001","-37.998999999999995","-22.741999999999997","-3.04"
"11.7945","-0.1865","-7.9595","-0.368","0.072","-0.434","-38.385000000000005","-22.0905","-2.597"
"9.5825","3.9725","-5.3165","-0.47","0.23299999999999998","-0.8460000000000001","-39.735","-20.802999999999997","-2.5595"
"6.7219999999999995","2.5540000000000003","-1.4925000000000002","0.6759999999999999","0.618","-0.8725","-41.085","-19.951999999999998","-2.539"
"4.968","-0.026999999999999996","0.081","-0.0515","0.251","-0.5125","-41.8565","-19.308","-1.888"
"5.769","2.0315","-0.634","-0.6105","0.051000000000000004","-0.151","-41.8565","-19.304000000000002","-1.464"
"8.0185","2.814","-1.6185","-0.31499999999999995","-0.11","0.0010000000000000009","-42.049","-18.868","-1.447"
"9.087","2.0999999999999996","-4.106999999999999","-0.1785","-0.071","0.16799999999999998","-41.664","-19.3","-1.6720000000000002"
"10.4215","2.9595000000000002","-4.2085","-0.22749999999999998","-0.1275","0.217","-41.085","-19.292","-1.456"
"12.0615","2.3195","-4.4055","0.0775","0.1295","0.017","-41.278","-19.512","-1.4655"
"12.481","0.7085","-3.0","0.2","0.1035","-0.133","-41.471000000000004","-19.3","-1.4615"
"9.087","2.4000000000000004","-2.317","-0.35150000000000003","0.0235","-0.14300000000000002","-41.8565","-19.08","-1.0230000000000001"
"7.599500000000001","2.927","-2.5629999999999997","-0.20400000000000001","-0.0915","-0.029","-41.6635","-19.08","-1.4515"
"7.18","3.677","-2.648","0.0014999999999999996","-0.29800000000000004","0.3145","-41.278","-19.728","-1.684"
"6.646000000000001","3.0415","-0.7405","0.3065","-0.4095","0.6495","-40.1205","-20.587","-2.342"
"6.5315","3.0415","1.171","0.29900000000000004","-0.633","0.9295","-38.771","-22.0985","-3.2344999999999997"
"7.1415","4.2015","1.02","-0.011999999999999997","-1.2000000000000002","1.1840000000000002","-36.456","-23.5975","-4.1195"
"11.184000000000001","4.717","-0.3405","-0.324","-1.12","1.669","-33.3705","-25.7285","-4.173"
"8.6675","0.4895","-5.454","-0.1575","-0.898","1.5939999999999999","-30.0915","-27.1995","-5.0365"
"6.989","2.5534999999999997","-4.4435","-0.24100000000000002","-1.228","0.7935","-28.741500000000002","-27.826999999999998","-5.887499999999999"
"15.6465","6.3205","-6.8165","-0.77","-0.4685","0.14150000000000001","-28.549","-27.823","-5.466"
"17.057499999999997","6.841","-6.3865","-0.1535","0.338","-0.5845","-30.0915","-27.195500000000003","-4.8260000000000005"
"22.511000000000003","5.483499999999999","-6.073","0.066","1.083","-1.338","-33.563500000000005","-25.508499999999998","-3.952"
"20.451500000000003","4.963","-4.15","-0.3425","1.029","-1.688","-36.4565","-23.5895","-3.2714999999999996"
"10.879","6.8535","-0.6","0.0295","1.0115","-1.714","-39.542500000000004","-21.235","-2.7845"
"3.0229999999999997","2.3735","0.1855","1.1469999999999998","1.096","-1.5145","-41.8565","-19.088","-2.2995"
"-1.401","-0.05349999999999999","4.0725","1.8239999999999998","1.0","-1.099","-43.592","-18.017000000000003","-2.6955"
"2.832","0.9505000000000001","1.2055","-0.14849999999999997","0.5615","-0.2245","-43.592","-17.801000000000002","-1.419"
"1.536","-0.507","-1.733","-1.615","-0.2715","0.5585","-42.435","-18.436","-1.011"
"-0.5615","1.7435","-0.4245","-0.326","-0.3915","0.434","-41.8565","-19.084","-1.033"
"0.08650000000000001","1.8925","0.5585","0.2645","-0.114","0.4025","-41.278","-19.735999999999997","-1.2675"
"3.1755","1.1385","2.6715","0.5185","-0.497","0.513","-40.699","-20.599","-2.771"
"7.1035","2.172","-6.274","-1.218","-0.8825000000000001","1.131","-38.771","-22.305999999999997","-2.3914999999999997"
"22.5875","11.439","-9.3835","-0.895","-0.6335","1.1320000000000001","-36.070499999999996","-23.573500000000003","-1.791"
"23.8455","-5.1525","-4.105","0.103","-0.28049999999999997","1.346","-33.949","-24.860999999999997","-1.6125"
"11.489","0.8975","-7.2170000000000005","-0.495","-0.051","-0.1535","-33.756","-24.853","-0.9755"
"11.908999999999999","7.563000000000001","-8.602","-0.10450000000000001","0.5025","-1.029","-36.070499999999996","-23.142000000000003","-0.943"
"9.6205","1.276","0.8065","1.5259999999999998","0.7050000000000001","-1.2349999999999999","-38.385000000000005","-21.878999999999998","-1.5390000000000001"
"6.1885","-0.254","-1.0310000000000001","0.8215","0.8475","-0.7895","-39.349","-21.231","-1.0990000000000002"
"3.786","1.174","-0.9904999999999999","-0.2545","0.1845","-0.48950000000000005","-39.928","-20.587","-0.6535"
"6.340999999999999","3.9779999999999998","-1.7195","-0.493","0.385","-0.2165","-40.121","-20.148","-0.004500000000000004"
"8.896","4.4605","-2.1455","-0.061000000000000006","0.3255","-0.125","-40.313500000000005","-19.712","0.4265"
"9.773","3.5975","-4.737500000000001","0.228","0.186","0.097","-39.928","-20.144","0.209"
"13.625499999999999","4.451499999999999","-2.7775","0.45399999999999996","-0.0175","0.22949999999999998","-39.928","-20.363500000000002","-0.22499999999999998"
"10.4215","-1.7975","-3.9130000000000003","0.26949999999999996","0.112","0.0945","-39.735","-20.579","-0.4405"
"8.591000000000001","-0.10899999999999999","-4.2595","-0.389","-0.017","-0.193","-40.121","-20.363500000000002","0.1965"
"6.341","3.941","-3.713","-0.5275000000000001","-0.035500000000000004","-0.2145","-40.313500000000005","-19.716","0.635"
"6.683999999999999","4.989","-1.3905","-0.017","0.0615","0.028499999999999998","-40.121","-19.924","0.219"
"10.192499999999999","8.803","1.522","0.586","-0.6465000000000001","0.4565","-39.542","-21.015","-1.089"
"9.3915","1.6125","1.8925","0.017500000000000016","-0.6265000000000001","1.4420000000000002","-37.2275","-22.726","-1.5579999999999998"
"5.883","-1.864","-3.9065000000000003","-1.4585","-0.885","1.4205","-34.5275","-24.213","-0.755"
"7.752000000000001","5.999499999999999","-7.2635","-0.4235","-0.6065","1.2945","-32.213","-25.700499999999998","-1.412"
"6.15","6.3004999999999995","-1.691","1.6945000000000001","-0.6699999999999999","0.5960000000000001","-31.634","-26.568","-3.553"
"14.731","1.8275","-2.825","1.6065","-0.1545","0.16","-31.827","-26.568","-5.0235"
"20.528","2.4905","-7.9559999999999995","-0.705","-0.044","-0.2475","-32.02","-26.144","-4.171"
"22.015","3.761","-11.2735","-1.7770000000000001","0.328","-0.7205","-33.563","-25.069000000000003","-2.4575"
"19.765","8.748000000000001","-5.464","-0.1275","0.8265","-1.8245","-36.842","-22.497999999999998","-2.4035"
"11.375","3.6694999999999998","2.0775","0.378","0.9204999999999999","-1.8679999999999999","-40.699","-19.939999999999998","-1.4775"
"-0.4475","0.6545","2.8305","-0.55","0.1475","-0.722","-41.471000000000004","-18.86","-0.814"
"-0.06599999999999998","4.552","-0.137","-1.4165","-0.0955","0.1525","-40.892","-19.28","0.659"
"0.6205","1.1425","-2.053","-1.1280000000000001","-0.2855","0.4565","-40.121","-19.712","0.647"
"-1.0575","2.3064999999999998","-2.01","0.064","-0.33099999999999996","0.5345","-39.349","-20.3555","0.418"
"-0.7525","1.894","-0.841","0.766","0.045","0.32399999999999995","-39.349","-20.571","-0.643"
"0.5825","0.05600000000000001","0.35350000000000004","1.316","0.2365","0.0445","-39.349","-20.791","-1.287"
"1.7265000000000001","-0.7324999999999999","1.389","1.117","0.10099999999999999","0.051","-39.349","-21.006999999999998","-2.1375"
"7.218","6.2155000000000005","-0.4595","0.2115","-0.5409999999999999","0.6455","-37.998999999999995","-22.0825","-2.383"
"21.634","10.392","-5.296","-0.523","-0.791","1.294","-35.1065","-23.777500000000003","-2.8315"
"22.511","6.907","-4.362500000000001","-0.17200000000000001","-0.753","1.7389999999999999","-32.019999999999996","-25.4765","-2.8775"
"18.7735","-5.5595","-8.7365","-0.1535","-0.4495","0.522","-31.249","-26.34","-2.482"
"12.824000000000002","7.0","-8.142","-0.7885","0.16999999999999998","-0.523","-32.213","-25.268500000000003","-1.829"
"11.146","7.003","-4.1505","0.5395","0.3315","-1.006","-34.5275","-23.988999999999997","-2.628"
"8.286","1.465","-1.2305000000000001","1.0895000000000001","0.793","-0.977","-36.456","-22.722","-2.6075"
"5.54","-1.0395","-0.6525","0.1585","0.41400000000000003","-0.652","-37.421","-22.73","-2.403"
"4.51","2.3335","-1.968","-0.952","0.147","-0.355","-37.806","-21.859","-1.3155000000000001"
"5.6165","4.990500000000001","-1.4820000000000002","-0.65","0.1935","-0.192","-38.192","-21.643","-0.889"
"7.3325","4.1635","-3.2119999999999997","0.14250000000000002","0.1975","-0.0205","-37.998999999999995","-21.859","-0.6759999999999999"
"9.658999999999999","2.96","-3.6605","0.7635000000000001","0.20550000000000002","0.057499999999999996","-37.998999999999995","-21.863","-1.11"
"12.0235","2.694","-4.7829999999999995","0.623","0.3015","-0.024","-38.192","-21.647","-1.311"
"13.587","1.8665","-2.9139999999999997","0.5465","0.26","-0.031","-38.192","-21.430999999999997","-1.5145"
"9.735","-0.636","-2.6550000000000002","-0.009999999999999995","0.063","-0.11049999999999999","-38.385000000000005","-21.435","-1.306"
