"AccX","AccY","AccZ","GyroX","GyroY","GyroZ","MagX","MagY","MagZ"
"0.06600844052639317","-0.09270266833184847","-0.003879012395283158","0.0006532074971023538","-0.0074471468340183145","-0.001125646989921628","-0.26362448026086455","0.8213317428822867","0.06909034301043591"
"0.06593622907640866","-0.09270162961444","-0.004190245896821729","0.0001856000166592752","-0.0068935772251814695","0.005247592041105453","-0.25872044699678715","0.8231127526076718","0.06718306276473933"
"0.06593622907640866","-0.0928574372257093","-0.003728248987105882","0.000652052197583038","-0.007227920823774237","-0.0009035871402057081","-0.2615346933585587","0.8213449355469193","0.06804109372360026"
"0.06593622907640866","-0.09270266833184847","-0.0035731485493782993","0.0004549773545797475","-0.006927083383952397","0.0034898002471246774","-0.26473903327542747","0.8209887336018421","0.06624658326106823"
"0.06579180617643965","-0.09301220611957012","-0.00357996388152878","0.00028370420084117704","-0.008661027100347963","0.0026030169784230684","-0.26083809772445693","0.8208304216262523","0.06763087320803056"
"0.06600844052639317","-0.0928574372257093","-0.003879838496149884","0.00133069439022114","-0.010391141541455422","0.0014844663255917283","-0.25950063410698115","0.8225850460223726","0.06674505838954933"
"0.06593622907640866","-0.09293430231393547","-0.0041914850481218156","-4.854068592206446e-05","-0.008288869408285146","-2.8452912800671845e-05","-0.25941704263088916","0.8232710645832616","0.06760145500372675"
"0.06593622907640866","-0.09293534103134393","-0.0035743877006783878","0.0009805423609085032","-0.007368886020317644","0.002605686550386866","-0.26317865905503934","0.8223871560528854","0.06711442028803045"
"0.06564738327647063","-0.09270059089703155","-0.0038922300091507544","-0.0001319148012326896","-0.004855684782792477","-1.5145048023471087e-06","-0.2616461486600152","0.82257185335774","0.06735793764587858"
"0.06593622907640866","-0.0928574372257093","-0.0035739746502450225","-0.00021750324062200344","-0.004648664587529239","-0.00022211822435619567","-0.26301147610285486","0.82257185335774","0.06537220885537183"
"0.06579180617643965","-0.09285535979089238","-0.0041962351281054815","-0.0009144376756492724","-0.007660868261035738","-0.0004563124920893791","-0.26234274429411714","0.8220441467724408","0.06779267333170148"
"0.06571959472645514","-0.09285535979089238","-0.004198919955922339","0.0006477198243856037","-0.005269007184202435","0.0004292573348105035","-0.2599743191381706","0.82257185335774","0.06891383378461309"
"0.06593622907640866","-0.09270162961444","-0.003881697223100013","-0.0002300189854145915","-0.008478657864751908","0.001288374130432752","-0.2656306756870779","0.8195771184861664","0.06756876811005587"
"0.06579180617643965","-0.09285639850830084","-0.003887686454383768","-0.0010959159751417994","-0.007850896047208006","0.0008607572395043898","-0.26680095635236933","0.8227169726686974","0.06791034614891667"
"0.06593622907640866","-0.09270162961444","-0.003727422886239156","0.0003207700604192263","-0.005353490570246277","-0.00352316530177253","-0.25899908525042786","0.8208172289616199","0.07027851159537288"
"0.06593622907640866","-0.09270266833184847","-0.0035731485493782993","0.0006466607998262309","-0.005700039983819884","0.0004236755025225624","-0.26139537423173836","0.8222024587480306","0.06933059167891699"
"0.06564834609580376","-0.09270059089703155","-0.0035834748102123583","0.0005480752408446141","-0.005440127923639679","0.002624373554133452","-0.26306720375358295","0.8218594494675862","0.0677828672636002"
"0.06600844052639317","-0.0928574372257093","-0.00357128982242817","0.00029660504547353707","-0.007848742079858447","0.0004105703310639179","-0.2637637993876849","0.8204742196811753","0.0649717944079034"
"0.06593622907640866","-0.09270266833184847","-0.0035731485493782993","0.0009127647891086416","-0.007011088110585226","-0.0009038298285660532","-0.26111673597809765","0.8224003487175179","0.06584780315828336"
"0.06593622907640866","-0.0928574372257093","-0.0038825233239667386","0.00012908661517274298","-0.008734022660527486","-0.0009106251026557208","-0.26083809772445693","0.8211734309066969","0.06762270148461282"
"0.06564834609580376","-0.09262268709139691","-0.004046091295578251","-0.0005695807691334998","-0.005708655853218123","0.00043435379037775414","-0.26094955302591333","0.8211866235713293","0.06674996142359998"
"0.06579180617643965","-0.09270059089703155","-0.004041134690377902","-0.0003286045443962081","-0.005632549006867013","0.004163503135443141","-0.2623706081194811","0.82273016533333","0.06777632988486601"
"0.06593622907640866","-0.0928574372257093","-0.0038825233239667386","0.0006257691335186032","-0.009713599145166141","0.003469899801576365","-0.2635966164355006","0.8208040362969875","0.06932078561081573"
"0.06593622907640866","-0.09285639850830084","-0.004191071997688452","-4.468968752434513e-05","-0.0070106094511742136","-0.00045873937569283193","-0.26379166321304903","0.8229016699735522","0.06818001302170155"
"0.06593622907640866","-0.0928574372257093","-0.0035739746502450225","0.0005704110315513867","-0.0046635030292706495","-0.0013246514454047476","-0.2626492463731218","0.8213449355469193","0.06801984724271419"
"0.06579180617643965","-0.09285639850830084","-0.003579137780662052","-5.171775960018306e-05","-0.006340007616344624","0.0008646402532699141","-0.2606709147722726","0.821885834796851","0.06630378532499229"
"0.06593622907640866","-0.09270162961444","-0.004190245896821729","0.0009905549567425737","-0.007403588827616106","0.000849108198207817","-0.2635408887847722","0.8232578719186292","0.06730563861600516"
"0.06579180617643965","-0.0928574372257093","-0.0034248634438011952","-0.0009171333745276759","-0.009163140822500882","-0.00046626271486353496","-0.2604758679947239","0.8211734309066969","0.06762923886334701"
"0.06593622907640866","-0.09285847594311776","-0.003265425976523309","0.00018973983993682362","-0.006482887450532084","0.004372700502060762","-0.2643768035456944","0.8225454680284752","0.06948422007917018"
"0.06608065197637768","-0.09285847594311776","-0.003568811519827993","0.0006299089567961514","-0.009947184937740616","0.0025886983651626973","-0.26133964658101033","0.8224003487175179","0.06693137368347345"
"0.06571959472645514","-0.09285639850830084","-0.0038903712822006254","-0.0011006334481790056","-0.003953890452443479","0.0026440313113214185","-0.26301147610285486","0.8239438904795183","0.06882394482701813"
"0.06550392319583474","-0.09269955217962308","-0.003897393139567784","0.0008190892530841172","-0.009783962078585092","-0.00025876416676833095","-0.2629836122774906","0.8211602382420645","0.06845294858385349"
"0.06593622907640866","-0.09270162961444","-0.003881697223100013","-0.00022039148942029288","-0.004420822707886923","0.00043775142742258783","-0.2634572973086802","0.8239438904795183","0.06816203523018255"
"0.06593622907640866","-0.0928574372257093","-0.003728248987105882","0.000632315830794726","-0.008015315554891064","0.0026032596667834133","-0.2615346933585587","0.8225454680284752","0.07127873054170221"
"0.06593622907640866","-0.09270266833184847","-0.0035731485493782993","-0.0005672701700948682","-0.0074447535369632474","-0.00045849668733248663","-0.2623984719448452","0.8210019262664747","0.0669444484409418"
"0.06593622907640866","-0.09277953342007465","-0.003882110273533376","-0.001454155101089647","-0.006090626063206711","0.0032876408429570693","-0.2622034251672968","0.8222024587480306","0.06887951254625867"
"0.06607968915704454","-0.09301324483697858","-0.0038781862944164327","-5.8360731836248995e-05","-0.0065300354025168905","0.002177098906017123","-0.26301147610285486","0.8216879448273637","0.06822250598347372"
"0.06593622907640866","-0.09270162961444","-0.004035971559960872","0.00012600581645456747","-0.010445469384605428","-0.0007028838662001712","-0.26390311851450526","0.8208172289616199","0.06691993327068863"
"0.06564834609580376","-0.09270059089703155","-0.0035834748102123583","0.0003017076183505153","-0.009159550876918283","-0.0009113531677367565","-0.25938917880552487","0.8199597057605086","0.06702453133043547"
"0.06579180617643965","-0.09270059089703155","-0.004041134690377902","-4.728911144280566e-05","-0.0031222197258079258","0.0008859968289802977","-0.26217556134193254","0.8209887336018421","0.06890893075056245"
"0.06600844052639317","-0.09293534103134393","-0.0035717028728615304","0.0027364050803486656","-0.008067489430691509","-0.0009230022090333292","-0.26331797818185987","0.8230731746137744","0.06905602177208149"
"0.06593622907640866","-0.09285639850830084","-0.004191071997688452","0.0011695301072765828","-0.006990745085617162","-2.7239470998945345e-05","-0.2620641060404764","0.8208040362969875","0.06956757165803097"
"0.06571959472645514","-0.0928574372257093","-0.0032732739347571954","-0.0007447049212697898","-0.006140406641952091","0.00043192690677430133","-0.25966781705916564","0.8218726421322186","0.06828134239208132"
"0.06579180617643965","-0.09285639850830084","-0.003579137780662052","0.0003072915660272084","-0.006595372412120203","-0.0013346016681789034","-0.25980713618598616","0.8208304216262523","0.06699674747081523"
"0.06593622907640866","-0.09293430231393547","-0.0038829363744001017","-0.00022934506069499042","-0.006972795357704164","0.0015182000076797207","-0.2611445998034618","0.823086367278407","0.06866214470334722"
"0.06593622907640866","-0.0928574372257093","-0.0038825233239667386","0.0004666266247328488","-0.006322775877548146","0.0015182000076797207","-0.2630950675789472","0.8209887336018421","0.06736610936929632"
"0.06571959472645514","-0.09285639850830084","-0.0038903712822006254","0.00012995308981222987","-0.007874350358347658","-0.0009023736984039818","-0.26122819127955405","0.8232578719186292","0.06800186945119517"
"0.06572055754578826","-0.09270162961444","-0.0035809965076121857","-0.0013525850183497977","-0.01002448843261926","-0.00046868959846698777","-0.2679155093669324","0.8213185502176541","0.06770441871879004"
"0.06593622907640866","-0.09270162961444","-0.004190245896821729","0.0011677008830376662","-0.0065527717245400215","0.00041469603318978733","-0.2663272713211799","0.8220177614431757","0.06858859919258772"
"0.06593622907640866","-0.0928574372257093","-0.0035739746502450225","0.000135633312448866","-0.004882011050398207","-0.0013234380036030214","-0.2617576039614714","0.8211602382420645","0.06934856947043598"
"0.06579180617643965","-0.09270059089703155","-0.0038868603535170427","-0.0009114531518910398","-0.006811965795603707","-0.0008895112153056824","-0.26446039502178675","0.8227433579979624","0.06577589199220737"
"0.06593622907640866","-0.09270162961444","-0.003727422886239156","0.00044563868346527796","-0.00796864626231727","0.0050192222940205556","-0.2613117827556461","0.8217011374919964","0.06694771713030889"
"0.06593622907640866","-0.0928574372257093","-0.003728248987105882","0.00029092482283690096","-0.0048097334793352035","0.002188262570593006","-0.2598628638367142","0.8220441467724408","0.06979801425841074"
"0.06593622907640866","-0.0928574372257093","-0.0038825233239667386","-4.786676120246364e-05","-0.007430872414043863","-2.2628392152385272e-05","-0.2620362422151122","0.8217011374919964","0.06715201021575197"
"0.06593622907640866","-0.0928574372257093","-0.0038825233239667386","-3.9779664567252824e-05","-0.006599441017113816","-0.0013341162914582132","-0.26242633577020913","0.8220441467724408","0.06713730111360007"
"0.06593622907640866","-0.09293534103134393","-0.0035743877006783878","-4.430458768457323e-05","-0.006153091116343942","-0.0004529148550445454","-0.2626492463731218","0.8208172289616199","0.06803292200018253"
"0.06593622907640866","-0.09301324483697858","-0.0035748007511117483","-4.353438800502924e-05","-0.005509533538236603","-0.0004483037761979853","-0.26033654886790353","0.822215651412663","0.06891383378461309"
"0.06579180617643965","-0.09270059089703155","-0.004195615552455439","0.0003849854587011973","-0.0069878731291510825","0.00041809367023462114","-0.2646554417993353","0.8243000924245953","0.06769624699537234"
"0.06579180617643965","-0.09285639850830084","-0.003579137780662052","-0.0008247094129824104","-0.006596808390353242","-0.0008885404618643012","-0.26315079522967527","0.8204742196811753","0.06694281409625825"
"0.06571959472645514","-0.09285639850830084","-0.0035818226084789093","0.00047452117144817347","-0.00807730194861728","-0.0004667480915842258","-0.2620641060404764","0.8217011374919964","0.06693464237284054"
"0.06593622907640866","-0.0928574372257093","-0.0038825233239667386","0.0010865410918057298","-0.004422019356414457","-0.00022867081008551792","-0.2637637993876849","0.8236008811990737","0.06860003960537253"
"0.06593622907640866","-0.0928574372257093","-0.0038825233239667386","-0.0003975374157153854","-0.007210928414683265","0.00042003517711738345","-0.2632622505311315","0.82257185335774","0.06645577938056194"
"0.06579180617643965","-0.09293430231393547","-0.003888099504817131","0.00012273246781650596","-0.008062942166286884","0.0004127545263070253","-0.26078237007372873","0.8215164401871415","0.0682699019792965"
"0.06564834609580376","-0.09262268709139691","-0.003891816958717394","-0.0007608791145402112","-0.006506820421082748","0.0035031481069436672","-0.25961208940843755","0.8232842572478942","0.06607334272461252"
"0.06564738327647063","-0.09285639850830084","-0.003584300911079084","-6.375212959305621e-05","-0.0065094530478433206","0.003060241849313553","-0.2594727702816172","0.8232578719186292","0.0702131378080311"
"0.06593622907640866","-0.09270162961444","-0.003881697223100013","0.0006610057688577356","-0.005752692519031342","-0.002210949337385666","-0.26306720375358295","0.8236008811990737","0.06817837867701801"
"0.06564834609580376","-0.09254478328576227","-0.003891403908284031","0.0005440316925270088","-0.00908655531673876","0.0025996193413782343","-0.2629836122774906","0.8211602382420645","0.06845294858385349"
"0.06607968915704454","-0.09293534103134393","-0.004032047580843929","0.00048337846776292813","-0.00530849658561103","-0.0013302332776926888","-0.2655470842109859","0.8236008811990737","0.06617140340562518"
"0.06593622907640866","-0.09293534103134393","-0.0035743877006783878","0.0002220882264776666","-0.005310171893549576","-0.001326835640647855","-0.26242633577020913","0.8227433579979624","0.06712095766676461"
"0.0663694977763157","-0.09215941912722293","-0.004943236836841388","-0.00023454390853191163","-0.005657199966534196","0.003058057654070446","-0.26880715177858283","0.8244715970648177","0.0641301068958779"
"0.06572055754578826","-0.09262372580880536","-0.003272034783457107","-0.0009273385202816325","-0.005677782321207766","0.00219214558435853","-0.26315079522967527","0.82273016533333","0.06732525075220769"
"0.06579180617643965","-0.09301116740216166","-0.003888512555250494","-0.00039426406707732397","-0.006360589971018194","-1.146472757650294e-05","-0.2629000208013986","0.8216747521627313","0.0690968803891701"
"0.06593622907640866","-0.0928574372257093","-0.0038825233239667386","-5.4220908558700584e-05","-0.007837972243110648","0.0010721388013651182","-0.26301147610285486","0.8213317428822867","0.06823067770689142"
"0.06600844052639317","-0.09285639850830084","-0.004188593695088278","0.00125232657282755","-0.010422493732876792","-5.17509953938175e-05","-0.26557494803634984","0.8216747521627313","0.06861148001815735"
"0.06593622907640866","-0.0928574372257093","-0.0038825233239667386","0.0006340487800736999","-0.00866772833210215","0.0021598680324326092","-0.26050373182008796","0.8223739633882527","0.07064950783853752"
"0.06571959472645514","-0.09285639850830084","-0.003736096945339766","-0.0002248201375776701","-0.00785137470661902","0.00041712291679324003","-0.2642096205935101","0.8230731746137744","0.06795120476600529"
"0.06600844052639317","-0.09254686072057919","-0.004186734968138149","0.0003083505905865812","-0.006382129644513792","-0.0013358151099806303","-0.26362448026086455","0.8239570831441507","0.0668529251386633"
"0.06593622907640866","-0.09293534103134393","-0.0037286620375392445","0.0002987230945922827","-0.006132030102259358","0.0004231901258018717","-0.26133964658101033","0.8213581282115517","0.06673852101081516"
"0.06593622907640866","-0.0928574372257093","-0.0035739746502450225","-0.0002310780099739642","-0.009122454772564754","0.0012842484283068826","-0.26178546778683554","0.8225586606931076","0.06931424823208153"
"0.06593622907640866","-0.09293430231393547","-0.0038829363744001017","0.00117588425463282","-0.005292461495342085","-0.0008936369174315523","-0.2640145738159617","0.8220177614431757","0.06928483002777774"
"0.06579180617643965","-0.09270059089703155","-0.0038868603535170427","-6.307820487345522e-05","-0.008235020224546153","0.002607628057269628","-0.2619805145643841","0.8232578719186292","0.06798879469372683"
"0.06579180617643965","-0.09277849470266619","-0.004041547740811264","-5.3161883999327774e-05","-0.006978778600341831","0.0010796621405358216","-0.2611445998034618","0.8229148626381846","0.06866541339271431"
"0.06579180617643965","-0.09270162961444","-0.003578311679795329","0.0006569622205401303","-0.004876267137466048","-0.0013251368221254382","-0.26331797818185987","0.8218594494675862","0.0688664377887903"
"0.06593622907640866","-0.09270162961444","-0.004190245896821729","0.0002074544325663329","-0.006329477109302332","0.001300023171729325","-0.2635966164355006","0.8218594494675862","0.06668458763625819"
"0.06593622907640866","-0.09270162961444","-0.003881697223100013","0.000303344292669546","-0.008303468520321051","-0.0009089262841333039","-0.25961208940843755","0.8215164401871415","0.06872588414600546"
"0.06572055754578826","-0.09262372580880536","-0.003580583457178823","0.0006348189797532437","-0.005654328010068117","0.002621703982169654","-0.26267711019848594","0.8211602382420645","0.06780574808916982"
"0.06564738327647063","-0.09285535979089238","-0.00389305611001748","0.00012831641549319907","-0.005282170318005299","-5.882895288561879e-06","-0.2635687526101365","0.8221892660833982","0.06994347093524624"
"0.06600844052639317","-0.09270059089703155","-0.0044963162679432685","-0.0007412390227118422","-0.006579337321851258","-1.3648922819610431e-05","-0.2632622505311315","0.8215032475225091","0.069093611699803"
"0.06608065197637768","-0.0928574372257093","-0.004031634530410566","-0.00022578288717710007","-0.005262066622742743","0.0013085172643414091","-0.26120032745419","0.8215164401871415","0.06782536022537236"
"0.06593622907640866","-0.09270162961444","-0.003881697223100013","0.001156147887844508","-0.006080095556164418","0.002612967201197224","-0.26228701664338877","0.8223871560528854","0.06822087163879018"
"0.06593622907640866","-0.09270162961444","-0.003881697223100013","0.0006340487800736999","-0.00866772833210215","0.002159625344072264","-0.2603922765186317","0.8217011374919964","0.06827153632398004"
"0.06579180617643965","-0.09270059089703155","-0.0038868603535170427","-0.0007335370259164035","-0.009196407651566305","-0.0022238118204839655","-0.26613222454363133","0.8223739633882527","0.06727785475638492"
"0.06579180617643965","-0.09285639850830084","-0.003887686454383768","0.0001340929130897782","-0.006382129644513792","-0.0013319320962151058","-0.25922199585334044","0.823442569223484","0.06912466424879037"
"0.06593622907640866","-0.09277953342007465","-0.003573561599811662","-4.632636184337585e-05","-0.006792101430046656","-0.00023789296777863785","-0.2624820634209375","0.8216747521627313","0.06953978779841069"
"0.06593622907640866","-0.09285639850830084","-0.004036797660827596","-0.0001530952924201462","-0.008223532398681834","0.003265313513805304","-0.26211983369120445","0.82257185335774","0.06669602804904301"
"0.06579180617643965","-0.09270059089703155","-0.004195615552455439","0.0001297605398923439","-0.008303707850026558","-0.0009062567121695058","-0.25710434512567065","0.8210019262664747","0.07074593417486665"
"0.06593622907640866","-0.09270162961444","-0.004190245896821729","-0.0001344179501912071","-0.003552773866014361","0.0008821138152147734","-0.26184119543756373","0.8234293765588514","0.06907563390828401"
"0.06593622907640866","-0.09277953342007465","-0.003573561599811662","0.0013382038370966928","-0.004818110019027936","0.0013034208087741583","-0.2657142671631702","0.8211470455774321","0.06731381033942287"
"0.06600844052639317","-0.09270162961444","-0.0041875610690048715","0.0003197110358598535","-0.005778061467815046","-0.0033074153494255867","-0.261256055104918","0.8211734309066969","0.06739716191828367"
"0.06579180617643965","-0.09285639850830084","-0.003887686454383768","0.000988051807784056","-0.005240048289836132","0.0017434148060801293","-0.25788453223586494","0.8234557618881164","0.0680607058598028"
"0.06593622907640866","-0.09262372580880536","-0.00388128417266665","0.0006391513529506779","-0.00631679263491048","0.0017366195319904617","-0.26195265073901985","0.8237855785039286","0.06819472212385345"
"0.06593622907640866","-0.09285639850830084","-0.004036797660827596","0.0005587617613982854","-0.00698739446974007","0.00041566678663116854","-0.2581353066641414","0.8224003487175179","0.06873405586942319"
"0.06579180617643965","-0.09285639850830084","-0.003887686454383768","0.0011672195082379512","-0.006552053735423502","0.00041639485171220423","-0.26646659044800025","0.8216747521627313","0.06728766082448617"
"0.06593622907640866","-0.0928574372257093","-0.0038825233239667386","-0.0007346923254357192","-0.0063912241733230435","-0.0013282917708099268","-0.2658257224646266","0.8230731746137744","0.06683167865777721"
"0.06600844052639317","-0.0928574372257093","-0.004034319358227421","-0.0002242424878180123","-0.007853289344263072","0.0004137252797484063","-0.26585358628999056","0.8216615594980987","0.06925868051284102"
"0.06593622907640866","-0.09301220611957012","-0.003883349424833462","0.0016754550217769695","-0.003912486413390832","0.0035029054185833214","-0.26000218296353456","0.8227433579979624","0.06869156290765102"
"0.06608065197637768","-0.0928574372257093","-0.003877360193549709","0.0004675893743322786","-0.0065427198769087425","0.00129565478124311","-0.26250992724630146","0.822215651412663","0.06647866020613155"
"0.06608065197637768","-0.0928574372257093","-0.003877360193549709","-0.00022867113597538967","-0.006544873844258303","0.001519413449481447","-0.2645439864978791","0.82273016533333","0.06817020695360028"
"0.06593622907640866","-0.09270266833184847","-0.0035731485493782993","-0.0009177110242873341","-0.007868127786004483","-2.0201508548932693e-05","-0.2645439864978791","0.8215032475225091","0.06776325512739767"
"0.06579180617643965","-0.09293430231393547","-0.0035795508310954172","0.000471729197609827","-0.006558515637472181","0.00042076324219841903","-0.26407030146668975","0.8215032475225091","0.06864253256714468"
"0.06571959472645514","-0.09270059089703155","-0.0038895451813338996","0.0004665303497729058","-0.005244356224535252","0.0017472978198456537","-0.26000218296353456","0.8232578719186292","0.06889585599309411"
"0.06593622907640866","-0.0928574372257093","-0.0035739746502450225","0.000980638635868446","-0.004352613741817533","0.003284485894272581","-0.26106100832736945","0.8234293765588514","0.06930771085334736"
"0.06593622907640866","-0.0928574372257093","-0.0038825233239667386","-0.00012565692883639558","-0.005742162011989051","-0.0013278063940892358","-0.2661600883689956","0.8209755409372097","0.0666551694319544"
"0.06593622907640866","-0.0928574372257093","-0.0038825233239667386","-4.141633888628362e-05","-0.007886316843622987","-0.0013428530724306428","-0.263735935562321","0.8206325316567651","0.06823394639625852"
"0.06593622907640866","-0.09293430231393547","-0.004037210711260958","0.0011655828339189205","-0.007192021367948242","0.0006299606088160401","-0.2634572973086802","0.8225586606931076","0.06775835209334703"
"0.06593622907640866","-0.0928574372257093","-0.0038825233239667386","0.0013233774932654733","-0.008639248097146859","0.0032534217841483867","-0.2620919698658402","0.822215651412663","0.06670419977246071"
"0.06600844052639317","-0.09270266833184847","-0.003570463721561442","0.0006230734346401995","-0.0077664126611641645","0.004360323395683153","-0.26560281186171397","0.8228884773089198","0.06858206181385351"
"0.06571959472645514","-0.09285639850830084","-0.0038903712822006254","-0.00039349386739778014","-0.005716553733499841","-6.368272009252269e-06","-0.2589712214250638","0.82257185335774","0.0680607058598028"
"0.06593622907640866","-0.0928574372257093","-0.0038825233239667386","-5.258423423966979e-05","-0.007413401345541879","0.0008556607839371392","-0.26050373182008796","0.822215651412663","0.06760472369309384"
"0.06600844052639317","-0.09270266833184847","-0.003879012395283158","0.00011984421901821643","-0.005683047574728912","0.001523781839967662","-0.26245419959557326","0.8223739633882527","0.06995981438208167"
"0.06571959472645514","-0.09285535979089238","-0.004198919955922339","-0.0007569318411825488","-0.006520222884591119","0.0028440065202459193","-0.2595284979323452","0.8218726421322186","0.06937308464068914"
"0.06593622907640866","-0.09270162961444","-0.003881697223100013","0.000632700930634498","-0.0078008761387571195","0.002604715796945485","-0.2624820634209375","0.8208040362969875","0.06934203209170181"
"0.06593622907640866","-0.09270162961444","-0.003881697223100013","0.0004752913711277174","-0.003985481973570355","0.00043629529726051623","-0.2625935187223938","0.8232446792539968","0.06884845999727131"
"0.06571959472645514","-0.09285639850830084","-0.0035818226084789093","-0.0002356992080512276","-0.006949341046564514","0.002618549033485165","-0.26412602911741795","0.8222024587480306","0.06840718693271426"
"0.06608065197637768","-0.09270266833184847","-0.0035679854189612677","-0.0012828819473510763","-0.008883364396763627","0.003046651301134218","-0.26139537423173836","0.8220309541078084","0.06933386036828408"
