"AccX","AccY","AccZ","GyroX","GyroY","GyroZ","MagX","MagY","MagZ"
"0.06008228753099799","0.08215502020862107","-0.09295416445075198","-9.436756685492536e-05","-0.004290148688680301","-0.0037835699124230023","0.3030142723429929","-0.4675124357234793","0.5998633911277634"
"0.0601544989809825","0.08207711640298644","-0.09279720528607427","0.0010768173208514883","-0.005978141101618592","-0.0007975323267348256","0.3033765020727261","-0.4671694264430347","0.599879734574599"
"0.06008228753099799","0.08215502020862107","-0.09295416445075198","-0.0007924573014015102","-0.002390828145779651","-0.0020570849169267665","0.30563347192721624","-0.4668132244979577","0.5990789056796619"
"0.060153536161649375","0.08223292401425572","-0.09279720528607427","0.0008853264255248909","-0.008082806531843935","0.0013296311516914476","0.30476969334092974","-0.4664306372236157","0.5977550864859908"
"0.060153536161649375","0.08223292401425572","-0.09279720528607427","0.0002220882264776666","-0.003868689077283118","-0.0007820002716727285","0.3078347141309781","-0.4666153345284704","0.5974118741024466"
"0.060370170511602886","0.08223396273166418","-0.09278687902524022","0.0012500159737889184","-0.002610532815434741","-0.0007730208023399535","0.3055498804511241","-0.4644253521994784","0.5988500974239658"
"0.06008228753099799","0.08223292401425572","-0.09279927053824108","0.0005508672146829607","-0.0021826113019888797","0.000943271282021781","0.30727743762369664","-0.46686599515648763","0.6004190683201686"
"0.06008228753099799","0.08207711640298644","-0.09295416445075198","0.0002253615751157281","-0.005342960063203985","-0.0012215088922580089","0.30602356548231335","-0.46682641716259016","0.5990952491264975"
"0.06022574761163387","0.08223396273166418","-0.09310492785892927","5.264429697801277e-05","-0.007240126638755075","-0.0012343713753563083","0.3050483315945705","-0.46706388512597485","0.6016448268328272"
"0.0601544989809825","0.08215502020862107","-0.09279720528607427","0.0007330194388950885","-0.0051342645600022","-0.0005771712955413226","0.30841985446362385","-0.4667076831808979","0.6002229469581433"
"0.06008228753099799","0.08223188529684725","-0.09248948271321929","-5.046618512092417e-05","-0.004708497013905897","0.0009253123433562311","0.309590135128915","-0.4663778665650858","0.6006969069163712"
"0.0601544989809825","0.08215502020862107","-0.09279720528607427","0.0013300204655015391","-0.00555739947933793","-0.0003657897336805944","0.30451891891265326","-0.4676707476990691","0.5992586835948519"
"0.060080361892331735","0.08238977034293346","-0.09326601752794059","0.0010788390950102911","-0.0030281631515438182","-0.0007754476859434065","0.30362727650100285","-0.46693195847965","0.5977223995923201"
"0.06008228753099799","0.08223292401425572","-0.09279927053824108","-0.00028807278626021145","-0.004287755391625235","-0.0012132574880062699","0.3052155145467551","-0.46662852719310294","0.598637632615105"
"0.060153536161649375","0.08223292401425572","-0.09279720528607427","0.0010980940869988879","-0.0013447180030101528","-0.0029055234246938236","0.30440746361119686","-0.46711665578450484","0.5979675512948517"
"0.0601544989809825","0.08223292401425572","-0.09264231137356337","0.0009283613326194052","-0.0042937386342629","-0.0033544968913325696","0.3061350207837698","-0.4663646739004533","0.6010237758530801"
"0.05993690181169584","0.082388731625525","-0.09311731937193013","0.0008882146743231805","-0.00407762391019041","0.0013587537549328798","0.30524337837211907","-0.4651377560896324","0.5999287649151053"
"0.06022574761163387","0.08223292401425572","-0.09279307478174065","0.0008963980459183342","-0.00808448183978248","4.483897202359911e-05","0.3075003482266095","-0.4664702152175131","0.598490541593586"
"0.060081324711664864","0.08223396273166418","-0.09326601752794059","0.00031460846298287526","-0.005343438722614999","-0.0016493684715467158","0.30376659562782327","-0.4664966005467781","0.6001085428302951"
"0.06022671043096701","0.0819992125973518","-0.09263818086922976","-4.103123904651163e-05","-0.008081849213021908","-0.00038471942578752487","0.30727743762369664","-0.46720900443693214","0.6004190683201686"
"0.06022671043096701","0.08207711640298644","-0.09279307478174065","0.0006304866065558094","-0.005976465793680046","0.001343707076591473","0.30513192307066295","-0.46542799471154706","0.5981963595505478"
"0.060298921880951505","0.08215502020862107","-0.09248122170455204","0.001342439935334184","-0.003031753097126418","-0.001632865663043238","0.3053269698482115","-0.46718261910766723","0.5999287649151053"
"0.060081324711664864","0.08238769290811654","-0.092646441877897","0.0002267094245549299","-0.0068174703788303585","-0.0016585906292398364","0.3048811486423862","-0.46715623377840226","0.5990625622328265"
"0.06029795906161838","0.08223292401425572","-0.09263611561706293","4.1380126664683604e-05","-0.009136096565778632","-0.00017697818933197574","0.3032929105966336","-0.46544118737617945","0.599225996701181"
"0.06022671043096701","0.08207711640298644","-0.09279307478174065","-0.0006339887173353567","-0.007237733341700009","-0.001021048306612818","0.30290281704153676","-0.46712984844913724","0.5985722588277632"
"0.060153536161649375","0.08223292401425572","-0.09279720528607427","0.000898612369997023","-0.010190583248240863","-0.00039830997396686","0.3057727910540366","-0.4667208758455303","0.601236240661941"
"0.06008228753099799","0.08223292401425572","-0.09279927053824108","0.0007273392162584524","-0.005133067911474667","6.571017101329218e-05","0.30379445945318717","-0.4665097932114106","0.600321007639156"
"0.06022574761163387","0.08223292401425572","-0.09248328695671884","0.0012440469262724534","-0.00513641852735176","-0.0003623920966357606","0.30633006756131836","-0.46830399560142827","0.5973791872087756"
"0.060081324711664864","0.082388731625525","-0.09280133579040789","0.0007509265814444838","-0.005134503889707707","-0.0027174399454262406","0.30867062889190067","-0.46698472913818","0.5982944202315607"
"0.06022671043096701","0.08207711640298644","-0.09279307478174065","0.0008866742749640927","-0.006819863675885425","0.0013378825559431865","0.3048532848170219","-0.46698472913818","0.5990625622328265"
"0.06022671043096701","0.08215502020862107","-0.09263818086922976","0.001090006990363677","-0.007665415525440363","-0.0025223185037086446","0.30256845113716785","-0.4649530587847776","0.6000595124897888"
"0.0601544989809825","0.08207711640298644","-0.09279720528607427","0.0003761281623864427","-0.002604070913386062","0.0013677332242656545","0.30875422036799277","-0.46702430713207743","0.5996018959783964"
"0.06022574761163387","0.08223396273166418","-0.09310492785892927","0.0005719514309104744","-0.004292781315440874","-0.001641845132376013","0.3080297609085267","-0.46687918782112015","0.6004354117670042"
"0.06008228753099799","0.08215398149121261","-0.09264437662573018","6.59302414501448e-05","-0.003446990136180428","-0.0024924678353861773","0.30220622140743497","-0.4666549125223679","0.599847047680928"
"0.0601544989809825","0.08223188529684725","-0.09248741746105246","-0.0013424761475557842","-0.0059688072431038335","0.0017727800976819067","0.3071381184968763","-0.4651245634249999","0.599111592573333"
"0.06022671043096701","0.08207711640298644","-0.09279307478174065","1.9429435797683015e-05","-0.007237733341700009","0.002619519786926546","0.30633006756131836","-0.4644517375287433","0.5993077139353582"
"0.06008228753099799","0.08223292401425572","-0.09279927053824108","0.0005448018922065526","-0.005552852214933304","0.0013475900903569973","0.3042124168336483","-0.46567865533956415","0.6011872103214345"
"0.06008228753099799","0.08223188529684725","-0.09264437662573018","-0.0014337448095817342","-0.0038605518672958925","0.002644273999681764","0.30920004157381814","-0.46687918782112015","0.6004680986606749"
"0.06022671043096701","0.0820781551203949","-0.09294796869425155","0.00106622707525776","-0.0030288811406603377","0.0007221821857472418","0.30496474011847835","-0.4678686376685563","0.600141229723966"
"0.060081324711664864","0.082388731625525","-0.09280133579040789","0.0005782093033067685","-0.004712565618899511","-0.002500233862917226","0.30563347192721624","-0.4661535912663336","0.5995038352973836"
"0.06022671043096701","0.08207711640298644","-0.09263818086922976","-0.0006196437483038521","-0.004921261122101296","-0.0025036314999620597","0.30574492722867264","-0.4685414635648129","0.5997326435530799"
"0.060370170511602886","0.0820781551203949","-0.09263198511272931","0.00039557570429492577","-0.0059788590907351126","-0.0012261199711045688","0.3032929105966336","-0.4662855179126584","0.5990135318923202"
"0.06022671043096701","0.0820781551203949","-0.09294796869425155","0.0005739732050692771","-0.006821060324412959","-0.002088634403771651","0.30465823803947367","-0.46772351835759896","0.5956140949505474"
"0.06008325035033111","0.08207607768557798","-0.09248948271321929","0.00011965166909833044","-0.00934383475015839","0.0006777702158040578","0.30382232327855146","-0.46585015997978646","0.5957938728657373"
"0.06029795906161838","0.08223292401425572","-0.09263611561706293","0.0006338562301538139","-0.00555596350110489","0.0009192451343475994","0.304491055087289","-0.46731454575399206","0.5990462187859912"
"0.06008228753099799","0.08223188529684725","-0.09248948271321929","0.0006310642563154672","-0.0013396920791945133","0.001591734580864337","0.3059399740062209","-0.46678683916869274","0.5977877733796617"
"0.06008228753099799","0.08223292401425572","-0.09279927053824108","0.002259844028630889","-0.000923737051023983","0.0013805957073639537","0.3052155145467551","-0.46714304111376975","0.598637632615105"
"0.06022574761163387","0.08215502020862107","-0.09279307478174065","0.0005288202488560171","-0.007660389601624724","0.0030454378593324912","0.30293068086690106","-0.46747285772958186","0.5987847236366239"
"0.06022574761163387","0.08223292401425572","-0.09263818086922976","0.0019611991028877494","-0.009143755116354844","-0.004459456995984574","0.30393377858000753","-0.466575756534573","0.602478342621435"
"0.06008325035033111","0.08192130879171716","-0.09279927053824108","0.0002171782035205744","-0.009345270728391432","-0.0006079927173051713","0.3064136590374105","-0.46682641716259016","0.5990952491264975"
"0.060298921880951505","0.0820781551203949","-0.09279100952957384","0.0007390847613714965","-0.004715198245660083","-0.0012171405017717943","0.30992450103328395","-0.46619316926023097","0.599847047680928"
"0.06022478479230075","0.082388731625525","-0.09279514003390747","0.00012321384261622094","-0.003868210417872104","0.0007175711069006818","0.30568919957794444","-0.4670111144674449","0.5997326435530799"
"0.06022574761163387","0.08223292401425572","-0.09279307478174065","0.000909683990390466","-0.004925329727094908","-0.0012176258784924849","0.3041009615321922","-0.4678290596746589","0.5988174105302949"
"0.0601544989809825","0.08207711640298644","-0.09279720528607427","0.0007407214356905272","-0.0023960933993007966","-0.0012006376932683159","0.30727743762369664","-0.4685546562294454","0.5997653304467508"
"0.06022574761163387","0.08223292401425572","-0.09279307478174065","0.001311054298392771","-0.005978141101618592","0.0017730227860422519","0.3092279053991821","-0.46756520638200927","0.6004680986606749"
"0.06022574761163387","0.08223292401425572","-0.09248328695671884","0.0004919469391978539","-0.005556681490221409","-0.0025070291370068933","0.3090607224469978","-0.4666417198577354","0.598310763678396"
"0.06022671043096701","0.0820781551203949","-0.09310286260676245","0.0007637311511169007","-0.0017666562738183492","-0.003766096350478143","0.3033207744219979","-0.4669715364735475","0.5990135318923202"
"0.060153536161649375","0.08223292401425572","-0.09279720528607427","0.0009138238136680146","-0.004292781315440874","-0.0016416024440156676","0.3052712421974833","-0.4673277384186245","0.5990625622328265"
"0.06022574761163387","0.08223292401425572","-0.09279307478174065","2.7323982513007753e-05","-0.005974072496624979","0.0017727800976819067","0.30382232327855146","-0.4665229858760431","0.6007459372568776"
"0.0601544989809825","0.08215502020862107","-0.09279720528607427","0.0009211407106236814","-0.00471471958624907","-0.0025014473047189527","0.3048811486423862","-0.46548076537007693","0.6001248862771307"
"0.06022574761163387","0.08223396273166418","-0.09310492785892927","0.0012310498066801503","-0.006610450183567121","0.0011257729290014224","0.30878208419335706","-0.46736731641252205","0.5998143607872571"
"0.06022767325030013","0.08192130879171716","-0.09279307478174065","-0.00048043015622629563","-0.00934383475015839","0.0008906079078268578","0.30691520789396376","-0.46822483961363337","0.6001902600644723"
"0.06022671043096701","0.08215502020862107","-0.09248328695671884","0.0013336789139793727","-0.004926287045916935","-0.0007895236108434318","0.3064693866881387","-0.46567865533956415","0.5950093874176358"
"0.060081324711664864","0.082388731625525","-0.09280133579040789","0.0013905774153056766","-0.0089257257546383","0.0021812246081429924","0.304491055087289","-0.46548076537007693","0.5945190840125725"
"0.06008228753099799","0.08215398149121261","-0.09264437662573018","0.0009190226615049356","-0.0021854832584549586","-0.002055143410044004","0.3075560758773374","-0.4681720689551034","0.5982780767847251"
"0.06029795906161838","0.08223396273166418","-0.09279100952957384","0.00023007904815293433","-0.005556442160515903","-0.0018648757355333137","0.3043795997858329","-0.46592931596758136","0.5981800161037125"
"0.0601544989809825","0.08207711640298644","-0.09279720528607427","-3.621749104936241e-05","-0.006606620908279014","-0.0008021434055813857","0.30900499479626925","-0.4652828754005897","0.598310763678396"
"0.06022574761163387","0.08223396273166418","-0.09310492785892927","0.0009150753881472733","-0.008296767288566865","-0.002098341938185462","0.3019275831537942","-0.46802694964414615","0.6004844421075105"
"0.06022574761163387","0.08223292401425572","-0.09248328695671884","0.00038575565838074125","-0.00597622646397454","-0.00015440817181986577","0.30691520789396376","-0.46805333497341106","0.6004027248733332"
"0.060081324711664864","0.08223292401425572","-0.0931111236154297","0.0007143420966661493","-0.008503069494713585","0.001326476203006959","0.30315359146981324","-0.4667340685101628","0.5966437321011804"
"0.059937864631028966","0.08223188529684725","-0.09280546629474153","-0.0003076166031286374","-0.0059700038916313675","0.0009163328740234561","0.3064693866881387","-0.46752562838811174","0.5997489869999153"
"0.06008228753099799","0.08223188529684725","-0.09248948271321929","-0.00026621837035315367","-0.004078581229012436","-0.003781385717179895","0.30340436589809033","-0.4686865828757703","0.5992423401480166"
"0.06022574761163387","0.08215502020862107","-0.09279307478174065","0.0006550367213412706","-0.0021859619178659718","-0.0011986961863855534","0.30376659562782327","-0.4666681051870004","0.594502740565737"
"0.06008228753099799","0.08215398149121261","-0.09264437662573018","0.0013203929695072406","-0.008505223462063144","0.0004700289793485084","0.30471396569020187","-0.4664174445589832","0.5971176920594083"
"0.06008228753099799","0.08207711640298644","-0.09279927053824108","3.974345234565281e-05","-0.009765533691261081","3.197648892529989e-05","0.30563347192721624","-0.4668132244979577","0.5988664408708012"
"0.06022574761163387","0.08223396273166418","-0.09310492785892927","0.001563390968403335","-0.007664218876912831","0.0021892333240343866","0.3039059147546436","-0.4663910592297183","0.5966600755480159"
"0.06008228753099799","0.08215398149121261","-0.09248948271321929","0.0010634351014194134","-0.0032373373141566164","0.0009355052544907324","0.30385018710391537","-0.4657050406688292","0.5962188024834589"
"0.06008228753099799","0.08215502020862107","-0.09279927053824108","0.0008886960491228954","-0.00892500776552178","0.0008952189866734179","0.3073888929251531","-0.4670902704552398","0.6021351302378904"
"0.060081324711664864","0.08238769290811654","-0.0924915479653861","-0.0003116601514462428","-7.244128853688452e-05","0.0018154932491026739","0.3020390384552503","-0.4672485824308296","0.6026417770897894"
"0.0601544989809825","0.08215398149121261","-0.09217762963603067","0.0010637239262992423","-0.002184765269338439","0.000943271282021781","0.3032093191205418","-0.46575781132735905","0.5981473292100415"
"0.06008228753099799","0.08207711640298644","-0.09279927053824108","0.002300375786766886","-0.0013480686188872457","-0.0033343537574239113","0.30691520789396376","-0.4675520137173767","0.6004027248733332"
"0.06022574761163387","0.08215605892602953","-0.09310286260676245","0.00022343607591686837","-0.008083285191254948","-0.001240681272725285","0.30382232327855146","-0.4668528024918551","0.6007459372568776"
"0.06008228753099799","0.08207711640298644","-0.09279927053824108","0.0005691594570721278","-0.005554766852577357","-0.0014370161562446066","0.30867062889190067","-0.4678290596746589","0.597869490613839"
"0.060153536161649375","0.082388731625525","-0.09279720528607427","0.001265323692419853","-0.003872997011982237","-0.002708460476093466","0.3071102546715124","-0.4657973893212565","0.5986866629556113"
"0.060298921880951505","0.0820781551203949","-0.09279100952957384","-0.00029442693361644845","-0.003447229465885935","-0.0003517138087805685","0.31098332639711895","-0.46532245339448713","0.599225996701181"
"0.06008228753099799","0.08215398149121261","-0.09248948271321929","0.00041049832308608845","-0.00513354657088568","-0.0029324618326921474","0.30825267151143954","-0.46629871057729083","0.5980656119758643"
"0.06008228753099799","0.08223292401425572","-0.09279927053824108","0.0013358932380580612","-0.0021859619178659718","-0.0007698658536554652","0.3080297609085267","-0.46736731641252205","0.6000104821492825"
"0.06008228753099799","0.08215398149121261","-0.09248948271321929","0.0006486825739850335","-0.005343678052320505","-0.0007924358711675754","0.3032929105966336","-0.4646100495043331","0.5998633911277634"
"0.06008228753099799","0.08207711640298644","-0.09295416445075198","0.0006353003545529586","-0.007239169319933048","0.000692331517424774","0.3057170634033087","-0.46567865533956415","0.6007949675973838"
"0.060370170511602886","0.08215605892602953","-0.09278687902524022","0.0007534297304030013","-0.004927723024149975","-0.002931491079250767","0.303710867977095","-0.465810581985889","0.599667269765738"
"0.060370170511602886","0.08215605892602953","-0.09278687902524022","0.0009016931687151983","-0.003451776730290561","-0.00013717729823535177","0.30340436589809033","-0.466166783930966","0.6005171290011814"
"0.060153536161649375","0.08223396273166418","-0.09310699311109608","0.0007375443620124088","-0.004292063326324354","-0.0009992063541817433","0.30591211018085696","-0.46542799471154706","0.5980002381885224"
"0.06008228753099799","0.08223292401425572","-0.09279927053824108","0.0010911622898829932","-0.005978380431324099","-0.002509941397331036","0.30465823803947367","-0.46756520638200927","0.6014160185771309"
"0.06022671043096701","0.08215502020862107","-0.09248328695671884","0.0012405810277145058","-0.005136179197646253","6.546748265294688e-05","0.3057170634033087","-0.46785544500392384","0.5997326435530799"
"0.06008228753099799","0.08207711640298644","-0.09310905836326287","0.0010818236187685236","-0.004713762267427044","-0.0012171405017717943","0.30446319126192506","-0.46529606806522217","0.5996836132125736"
"0.06015546180031562","0.08207607768557798","-0.09248741746105246","0.0003751654127870129","-0.008502830165008078","0.0008978885586372158","0.30351582119954645","-0.46773671102223147","0.6016121399391562"
"0.060370170511602886","0.0820781551203949","-0.09263198511272931","0.0005520225142022765","-0.005978380431324099","0.00048701716457267733","0.30574492722867264","-0.46569184800419666","0.601236240661941"
"0.06022671043096701","0.08207711640298644","-0.09248328695671884","0.001582645960391932","-0.005769206268711301","6.061371544604151e-05","0.30872635654262853","-0.4670111144674449","0.5991606229138393"
"0.060081324711664864","0.08223396273166418","-0.09326601752794059","0.000567522782753097","-0.005554766852577357","-0.00122247964569939","0.30451891891265326","-0.46599527929074375","0.6001248862771307"
"0.060369207692269757","0.08238977034293346","-0.09278894427740703","-0.0001322999010724615","-0.004712086959488497","0.0004974527640675238","0.3017046725508814","-0.46625913258339347","0.5980982988695352"
"0.060081324711664864","0.082388731625525","-0.0929562297029188","-0.0004037952881116795","-0.002389392167546611","0.002441143842072774","0.3058006548794005","-0.4682380322782658","0.6008113110442194"
"0.06008228753099799","0.08215502020862107","-0.09279927053824108","0.00039990807749236006","-0.005133067911474667","-0.0016479123413846448","0.3064136590374105","-0.4666549125223679","0.5990952491264975"
"0.06008228753099799","0.08215398149121261","-0.09248948271321929","-0.0002791192149855137","-0.0017601943717696694","-0.0020522311497198605","0.3048532848170219","-0.46797417898561616","0.5981963595505478"
"0.060153536161649375","0.082388731625525","-0.09279720528607427","0.00036515281695294246","-0.0013389740900779936","0.0026629610034283498","0.30393377858000753","-0.466575756534573","0.5970850051657376"
"0.06022574761163387","0.08215605892602953","-0.09310286260676245","0.000910743014949839","-0.004293499304557393","-0.0012137428647269605","0.30730530144906093","-0.46687918782112015","0.6008439979378902"
"0.06022671043096701","0.08215502020862107","-0.09248328695671884","0.0017461208423751207","-0.005980055739262646","0.000916090185663111","0.3061071569584055","-0.4681984542843684","0.5997489869999153"
"0.0601544989809825","0.08207711640298644","-0.09279720528607427","0.0009734180138727222","-0.005133785900591187","0.0013497742856001047","0.3045746465633815","-0.46752562838811174","0.6001248862771307"
"0.06022574761163387","0.08215502020862107","-0.09279307478174065","0.0007407214356905272","-0.007242519935810141","-0.0016627163313657058","0.30072943866313884","-0.4666681051870004","0.6006642200227003"
"0.06008228753099799","0.08223188529684725","-0.09264437662573018","0.0007068326497905966","-0.005131392603536121","0.002421486084884808","0.3065529781642309","-0.46739370174178696","0.6010401192999156"
"0.060081324711664864","0.082388731625525","-0.09280133579040789","-0.00028816906122015434","-0.003866535109933558","-0.0012096171626010909","0.3052712421974833","-0.4664834078821456","0.5995038352973836"
"0.060153536161649375","0.08223396273166418","-0.09310699311109608","0.0008895625237623821","-0.010611324870521526","0.0006692761231919734","0.3006737110124106","-0.4668132244979577","0.5997980173404217"
"0.060370170511602886","0.08215605892602953","-0.09263198511272931","0.00021332720512285495","-0.005766812971656235","6.061371544604151e-05","0.30568919957794444","-0.4676839403637016","0.5995038352973836"
"0.06022574761163387","0.08215502020862107","-0.09279307478174065","0.0005772465537073386","-0.00429302064514638","-0.0022844839105702827","0.3025405873118039","-0.46745966506494935","0.5985559153809279"
"0.060153536161649375","0.08223396273166418","-0.09310699311109608","0.0002213180267981227","-0.005554288193166343","-0.0007941346896899919","0.3064693866881387","-0.4665229858760431","0.600173916617637"
"0.06022574761163387","0.08223292401425572","-0.09248328695671884","0.0017502606656526688","-0.005137615175879294","0.0004942978153830353","0.3034879573741825","-0.4667076831808979","0.6013833316834599"
"0.06008228753099799","0.08207711640298644","-0.09279927053824108","-0.0003063650286493785","-0.004708018354494884","0.00092434158991485","0.30387805092927933","-0.46805333497341106","0.6009747455125738"
"0.060081324711664864","0.08238769290811654","-0.0924915479653861","3.415950466895969e-05","-0.0055514162367002635","0.0009202158877889805","0.30574492722867264","-0.46619316926023097","0.6010237758530801"
"0.06015546180031562","0.08192234750912562","-0.09310699311109608","0.0005669451329934392","-0.0072410839575771015","-0.0012358275055183796","0.3042124168336483","-0.4660216646200087","0.6009747455125738"
"0.060153536161649375","0.08238769290811654","-0.09248741746105246","0.0010874075664452166","-0.004925329727094908","-0.0020733450370698987","0.3025963149625318","-0.4668132244979577","0.5996345828720672"
"0.06008228753099799","0.08223292401425572","-0.09295416445075198","0.0002336412216708248","-0.0034474687955914412","-0.002063880191016434","0.30769539500415777","-0.466219554589496","0.6012852710024473"
"0.06022574761163387","0.08223292401425572","-0.09279307478174065","-0.0004916943265396248","-0.008500197538247505","0.0021829234266654094","0.3061350207837698","-0.46703749979670994","0.6005988462353586"
"0.06008228753099799","0.08207711640298644","-0.09310905836326287","0.0004019298516511627","-0.005765376993423195","-0.0018670599307764211","0.30722170997296877","-0.4670111144674449","0.5995528656378899"
"0.06022574761163387","0.08223396273166418","-0.09310492785892927","0.00019522751265357375","-0.005974551156035994","0.002200882365330959","0.3065529781642309","-0.46571823333346163","0.6019063219821944"
"0.0601544989809825","0.08207711640298644","-0.09279720528607427","0.00039865650301310117","-0.007240605298166089","-0.0016632017080863964","0.3065529781642309","-0.46739370174178696","0.6010401192999156"
"0.06022574761163387","0.08223292401425572","-0.09263818086922976","0.0002108240561643373","-0.003868689077283118","0.0005027919079951196","0.3085591735904442","-0.46726177509546213","0.6019553523227007"
