"AccX","AccY","AccZ","GyroX","GyroY","GyroZ","MagX","MagY","MagZ"
"0.06592852652174365","-0.09271513294075003","-0.004436630480322402","-0.0007607828395802682","-0.007398323574094961","0.0006518025612471143","-0.26384739086377706","0.8224135413821504","0.07519298605879164"
"0.06607294942171266","-0.09271513294075003","-0.0047398094984104034","-0.0009184812239668778","-0.0031502213013522014","-0.0012957715305236608","-0.2628164293253063","0.8213845135408165","0.07436600764891803"
"0.06600073797172815","-0.09286990183461084","-0.004743320427093987","0.00012013304389804543","-0.006572396760391565","-0.0013244087570444027","-0.26560281186171397","0.8220705321017058","0.07298988942537345"
"0.06592852652174365","-0.09286990183461084","-0.004437456581189126","9.539037919269823e-05","-0.007342081093300901","0.0030616979794756242","-0.26184119543756373","0.8220837247663382","0.07349653627727229"
"0.06592852652174365","-0.09286990183461084","-0.004437456581189126","0.00011426027134152331","-0.007198004610585907","-0.00044951721799971157","-0.2659371777660829","0.8218990274614836","0.07342462511119632"
"0.06592852652174365","-0.09263619041770692","-0.0047447661036107555","0.0009640793427582526","-0.0077628227155815644","0.00305320388686354","-0.2644046673710587","0.8229412479674496","0.07386426383106985"
"0.06592852652174365","-0.09271513294075003","-0.004436630480322402","-0.00042930815249657054","-0.005179737204048461","0.004176850995262131","-0.2626213825477579","0.8217407154858938","0.07305362886803168"
"0.06621640950234854","-0.09287197926942777","-0.004426923795138384","0.0002702257064491591","-0.005622018499824721","0.003288368908038105","-0.264488258847151","0.8208568069555173","0.07282155192296835"
"0.06578410362177463","-0.09286886311720238","-0.004442619711606157","9.962647743018955e-05","-0.005633745655394546","0.0026357799070696793","-0.26841705822348555","0.8215428255164066","0.07120681937562624"
"0.06592852652174365","-0.09263515170029846","-0.005361863451054185","-0.0005178811156441167","-0.006462305095858514","0.0043879898687625134","-0.26610436071826754","0.8218990274614836","0.07211388067499352"
"0.06592852652174365","-0.09286886311720238","-0.004900279591771698","0.0004568065788186642","-0.006957956915962753","0.0006474341707608994","-0.26384739086377706","0.8217143301566288","0.0752093295056271"
"0.06600073797172815","-0.09271513294075003","-0.004433945652505547","0.00011349007166197941","-0.003963224310958239","0.0004494004687191606","-0.2664387266226363","0.8211998162359619","0.0721236867430948"
"0.06592852652174365","-0.09271409422334156","-0.0047451791540441155","0.00027465435460653645","-0.006928758691890944","0.002185107621908517","-0.2610331445020053","0.821912220126116","0.0739508840992977"
"0.06607294942171266","-0.09271513294075003","-0.00443126082468869","0.0002676262825306985","-0.008628478260399062","0.003050048938179052","-0.26228701664338877","0.821912220126116","0.07283952971448734"
"0.06607198660237952","-0.09294780564024549","-0.004741255174927175","0.0013210668942268413","-0.006933545286001076","0.0015186853844004113","-0.26368020791159263","0.8227697433272272","0.07366323943499385"
"0.06600073797172815","-0.09271409422334156","-0.005051042999948977","-0.0009430313387523391","-0.008227122344264435","0.0021829234266654094","-0.26195265073901985","0.8215692108456715","0.07241786878613284"
"0.06607294942171266","-0.0928709405520193","-0.004432086925555414","0.0006266356081580899","-0.006944554452454382","0.0013034208087741583","-0.2635966164355006","0.8234689545527488","0.0745212703938548"
"0.06578410362177463","-0.09286886311720238","-0.004751168385327871","-0.0008427128304917485","-0.007415555312891438","-0.00022405973123895784","-0.26301147610285486","0.8217407154858938","0.07282972364638607"
"0.06607198660237952","-0.09271409422334156","-0.005202839034209659","0.0008214961270826917","-0.0018470710548685783","-0.0012977130374064228","-0.26515699065588877","0.821912220126116","0.07060538053208179"
"0.06592852652174365","-0.09255932532948073","-0.004744353053177393","-0.0004992037734151776","-0.006966812115066498","0.0006530160030488406","-0.2635408887847722","0.8211998162359619","0.07457356942372823"
"0.06607198660237952","-0.0928709405520193","-0.0045865677876329525","0.00029275404707581763","-0.005490147832090566","-0.0008798036808918716","-0.26278856549994223","0.8225982386870051","0.07477295947512065"
"0.06592852652174365","-0.09294780564024549","-0.0045921439684833455","-0.00032022862288116856","-0.007416273302007958","-0.0004483037761979853","-0.26122819127955405","0.821556018181039","0.07526326288018406"
"0.06578410362177463","-0.0927130555059331","-0.004750342284461145","0.00026935923180967225","-0.007339209136834822","0.00306194066783597","-0.26590931394071865","0.8213713208761843","0.07343606552398114"
"0.06578410362177463","-0.09271409422334156","-0.0044417936107394316","0.00046643407481296274","-0.007211407074094279","-0.001328534459170272","-0.26811055614448087","0.8222288440772956","0.07381033045651286"
"0.06592852652174365","-0.09271409422334156","-0.0047451791540441155","-0.0002443639544460961","-0.006942400485104822","0.0017492393267284157","-0.26680095635236933","0.8224135413821504","0.07252410119056323"
"0.06607198660237952","-0.09286990183461084","-0.00474084212449381","0.0013216445439864994","-0.007366971382673591","0.0012961401579638006","-0.2628164293253063","0.8226114313516376","0.07172327229562635"
"0.06592852652174365","-0.09255932532948073","-0.004744353053177393","0.0005472087662051273","-0.004816674040794896","0.0004413917528277669","-0.2637637993876849","0.8208568069555173","0.07261725883752528"
"0.06563968072180561","-0.09286886311720238","-0.004447782842023186","0.000988244357703942","-0.006776544999188725","-0.001326835640647855","-0.26671736487627706","0.8236272665283386","0.07336905739195582"
"0.06592852652174365","-0.09286990183461084","-0.004437456581189126","-0.00042911560257668455","-0.009920858670134886","0.0030473793662152537","-0.26468330562469944","0.8212130089005945","0.0712852679204364"
"0.06621640950234854","-0.09279303674638466","-0.0047350594184267375","-0.0011036179719372383","-0.0039713615209454635","0.0006738872020385335","-0.2640981652920537","0.821556018181039","0.07303074804246208"
"0.06600073797172815","-0.0927919980289762","-0.004742907376660621","0.0011425731184925472","-0.003900759257821007","0.003077472722898067","-0.26340156965795186","0.8231259452723044","0.07300786721689245"
"0.06621640950234854","-0.09302674816328858","-0.004582024232865967","0.0006322195558347831","-0.006534104007510504","0.0004265877628467055","-0.26585358628999056","0.822756550662595","0.0742761186913231"
"0.06607294942171266","-0.09271513294075003","-0.00443126082468869","-0.0008443495048107792","-0.005688552157955565","0.0004428478829898385","-0.26487835240224783","0.8208568069555173","0.07259601235663919"
"0.06592852652174365","-0.09271409422334156","-0.00505372782776583","0.0006315456311151822","-0.006312724029916867","0.0006503464310850427","-0.26256565489702954","0.821556018181039","0.07349490193258874"
"0.06607294942171266","-0.09271513294075003","-0.0047398094984104034","0.0013283837911825084","-0.005668448462693008","0.0004295000231708489","-0.26390311851450526","0.8215692108456715","0.07172654098499344"
"0.06607198660237952","-0.09286990183461084","-0.00474084212449381","0.00011676342030004093","-0.0035434400074996013","1.2318731737333105e-05","-0.2601415020903549","0.8222816147358254","0.07221684439005682"
"0.06607294942171266","-0.09271513294075003","-0.0047398094984104034","-6.45223292726001e-05","-0.007826245087540823","0.0004234328141622171","-0.26515699065588877","0.8211998162359619","0.07345404331550014"
"0.06592852652174365","-0.09286990183461084","-0.004591730918049982","0.00021149798088393823","-0.006588671180366017","-0.002202212556413236","-0.2630950675789472","0.8217143301566288","0.07522403860777899"
"0.06592852652174365","-0.09271409422334156","-0.004590904817183259","0.00044053611058829975","-0.009483842627879772","0.0030447097942514554","-0.2636523440862287","0.822242036741928","0.07389368203537364"
"0.06607294942171266","-0.09271513294075003","-0.00443126082468869","-0.0002275158364560737","-0.00442249801582547","-0.0008696107697573703","-0.26496194387834016","0.8231259452723044","0.07254207898208222"
"0.06592852652174365","-0.09271409422334156","-0.00505372782776583","-6.866215255014835e-05","-0.005653610020951596","0.001756762665899119","-0.2652127183066168","0.8226114313516376","0.07037166924233493"
"0.06607198660237952","-0.09286990183461084","-0.00474084212449381","-7.203177614815294e-05","-0.00822879765220298","0.001737832973792188","-0.2637080717369567","0.8224267340467828","0.07345404331550014"
"0.06571189217179012","-0.09286886311720238","-0.004599578876283869","8.739955751743041e-05","-0.010111125786012662","0.003923484347061672","-0.26610436071826754","0.8201575957299958","0.07171836926157572"
"0.06592852652174365","-0.09271409422334156","-0.0047451791540441155","-0.00040735746162957003","-0.0067691257783180185","-0.00022430241959930296","-0.2634572973086802","0.8196430818093289","0.07178047435955041"
"0.06592852652174365","-0.09286990183461084","-0.004437456581189126","0.0016825793688127505","-0.005690945455010631","-0.000888055085143611","-0.26178546778683554","0.8222552294065606","0.07392963761841163"
"0.06607294942171266","-0.09271513294075003","-0.0047398094984104034","0.0009012117939154834","-0.007423692522878664","-0.0013358151099806303","-0.2620919698658402","0.8222684220711931","0.071527150933601"
"0.06592852652174365","-0.09271409422334156","-0.0047451791540441155","0.00028120105188265943","-0.007384203121470069","0.0008648829416302594","-0.2585254002192384","0.8205401830043377","0.07272349124195568"
"0.06592852652174365","-0.09271409422334156","-0.0047451791540441155","-0.00024166825556769264","-0.005659832593294768","0.0015383431415883777","-0.2645997141486071","0.8220837247663382","0.07213676150056314"
"0.06578410362177463","-0.09263515170029846","-0.005058477907749498","0.00020446990880810032","-0.007852332025441045","-0.0011118137533819479","-0.26412602911741795","0.8218990274614836","0.07302257631904435"
"0.06600073797172815","-0.09271513294075003","-0.004742494326227261","0.0006183559616029933","-0.004325569485095283","0.003516738655123002","-0.2641538929427821","0.8210283115957396","0.07260581842474045"
"0.06607198660237952","-0.09286990183461084","-0.00474084212449381","-0.00041842908202301317","-0.008236456202779194","0.0015206268912831733","-0.26418175676814604","0.8217275228212612","0.07258947497790501"
"0.06621640950234854","-0.09286990183461084","-0.005044021142581814","0.0006363593791123314","-0.007409332740548265","-0.0004577686222514507","-0.2654077650841655","0.8224267340467828","0.07167914498917063"
"0.06563968072180561","-0.0927130555059331","-0.00460123107801732","0.0006239399092796864","-0.005207499449887231","0.002197970105006816","-0.26331797818185987","0.8205137976750728","0.07306997231486714"
"0.06571189217179012","-0.09263619041770692","-0.004444065388122923","0.00027176610580824693","-0.006918706844259665","0.0026265577493765594","-0.26120032745419","0.8224399267114152","0.07262869925031008"
"0.06592852652174365","-0.09271513294075003","-0.004436630480322402","0.0002786016279641988","-0.008238131510717742","0.0010786913870944404","-0.2640145738159617","0.8217275228212612","0.07390021941410783"
"0.06592852652174365","-0.09286990183461084","-0.004746005254910842","-0.00040851276114888565","-0.004825289910193135","0.00044770165019674394","-0.26476689710079176","0.8236404591929712","0.07405875084841165"
"0.06578410362177463","-0.09286886311720238","-0.004442619711606157","-7.164667630838095e-05","-0.004567053157951476","0.0024246410335692966","-0.2618133316121995","0.8217143301566288","0.07655602952486787"
"0.06592756370241051","-0.09286886311720238","-0.005054553928632555","-6.683292831123164e-05","-0.009969921259763747","0.0004105703310639179","-0.2664387266226363","0.8210283115957396","0.07212695543246189"
"0.06607198660237952","-0.09286990183461084","-0.00474084212449381","0.0017644130847642879","-0.004377504031190222","0.00043556723217948054","-0.2662436798450879","0.8213713208761843","0.07364853033284194"
"0.06592852652174365","-0.09263619041770692","-0.0047447661036107555","0.0015019675439597105","-0.004803510906992031","0.0006552001982919478","-0.2623706081194811","0.8226114313516376","0.07238518189246193"
"0.06592852652174365","-0.09286990183461084","-0.004746005254910842","-5.60501327976173e-05","-0.006564498880109846","-0.0008834440062970509","-0.26387525468914136","0.8198277791141838","0.07155003175917062"
"0.06578410362177463","-0.09279095931156774","-0.004596480998033651","0.0006378035035114763","-0.0074153159831859316","-0.000891938098909135","-0.2647111694500637","0.8208699996201498","0.07107443745625913"
"0.06592756370241051","-0.09302467072847163","-0.004746831355777567","-0.00024012785620860483","-0.007388989715580202","0.0008685232670354384","-0.2606430509469083","0.8226114313516376","0.07416008021879143"
"0.06592852652174365","-0.09271409422334156","-0.0047451791540441155","0.0008951464714390755","-0.006538172612504117","-1.1222039216157852e-05","-0.2634572973086802","0.8233106425771592","0.07278396199524681"
"0.06592852652174365","-0.09286990183461084","-0.004437456581189126","-0.00040504686259093824","-0.0035472692827877086","1.7415187304583775e-05","-0.26301147610285486","0.8213845135408165","0.0728378953698038"
"0.06607294942171266","-0.09271513294075003","-0.004894290360487943","0.00046248680145530036","-0.0071953719838253345","-0.00045364292012558107","-0.2615904210092868","0.8240098538026807","0.07280357413144938"
"0.06578410362177463","-0.09294676692283703","-0.004443032762039518","0.0006314493561552393","-0.00868472074119312","-2.2143015431694884e-05","-0.2614232380571025","0.8220837247663382","0.07372207584360145"
"0.06592756370241051","-0.09286886311720238","-0.005208828265493412","0.0006353003545529586","-0.00826517576743999","-0.0004601955058549033","-0.26518485448125284","0.8210283115957396","0.07323994416195577"
"0.06578410362177463","-0.09302467072847163","-0.0044434458124728805","0.0006236510843998574","-0.007362663447974472","0.0017429294293594387","-0.26306720375358295","0.8227829359918598","0.07258620628853792"
"0.06578410362177463","-0.0927130555059331","-0.004750342284461145","0.00012253991789662003","-0.004425848631702563","-0.0013074205718202336","-0.26273283784921414","0.8227829359918598","0.07237374147967714"
"0.06592756370241051","-0.09286886311720238","-0.005054553928632555","0.00019984871073083706","-0.006973274017115178","-9.765909054086051e-06","-0.26568640333780624","0.8231127526076718","0.0727463720675253"
"0.06607198660237952","-0.09286990183461084","-0.005049390798215526","-0.00023319605909270983","-0.007845152134275847","-0.00045364292012558107","-0.26133964658101033","0.8224531193760478","0.07153695700170225"
"0.06607294942171266","-0.09263619041770692","-0.005202425983776294","-0.0005086387194895903","-0.006498922540801029","0.0026301980747817384","-0.26657804574945665","0.8217143301566288","0.07406855691651293"
"0.06592852652174365","-0.09271409422334156","-0.0047451791540441155","-7.655669926547317e-05","-0.006056401915319262","0.00307116282552909","-0.26476689710079176","0.8217275228212612","0.07366814246904448"
"0.06592852652174365","-0.09271513294075003","-0.004436630480322402","-0.0009383138657151328","-0.005661986560644329","0.00176234449818706","-0.26487835240224783","0.8213845135408165","0.07280193978676583"
"0.06600073797172815","-0.09286990183461084","-0.004743320427093987","0.001335123038378517","-0.007848263420447433","-0.0013404261888271902","-0.26565853951244217","0.8213713208761843","0.07256986284170248"
"0.06607198660237952","-0.09286990183461084","-0.005049390798215526","-5.479855831835849e-05","-0.003982610017104276","-0.0004286460190100185","-0.2621476975165684","0.8220837247663382","0.07392636892904454"
"0.06621640950234854","-0.0928709405520193","-0.0047354724688601","0.00029516092107439225","-0.0057143997661502815","-0.0013219818734409496","-0.2604201403439957","0.8213977062054492","0.07266792352271514"
"0.06592756370241051","-0.09294676692283703","-0.004746418305344204","0.0012384629785957603","-0.007165455770637005","0.0006411242733919224","-0.2624820634209375","0.8203422930348505","0.07396069016739898"
"0.06592852652174365","-0.09286990183461084","-0.004746005254910842","0.0011508527650476437","-0.004793459059360753","0.0013162832918724577","-0.2632065228804033","0.8227697433272272","0.07454415121942441"
"0.06607198660237952","-0.09286990183461084","-0.00474084212449381","-0.00024176453052763555","-0.007814517931970999","0.0010833024659410004","-0.26273283784921414","0.8226114313516376","0.07237864451372775"
"0.06592852652174365","-0.09271409422334156","-0.0047451791540441155","0.0009041000427137731","-0.003986199962686875","-0.001091427931112945","-0.26487835240224783","0.8234689545527488","0.07318927947676591"
"0.06592756370241051","-0.09286886311720238","-0.005054553928632555","0.000619800086002138","-0.007345671038883501","0.0026192770985662014","-0.26323438670576754","0.820329100370218","0.07372861322233563"
"0.06607294942171266","-0.09271513294075003","-0.0047398094984104034","-5.3932083678871596e-05","-0.004849701540154812","-0.0008734937835228947","-0.26050373182008796","0.8214108988700817","0.07201255130461374"
"0.06592852652174365","-0.09271513294075003","-0.004436630480322402","0.0006291387571166075","-0.008677062190616907","0.00041493872155013274","-0.2652127183066168","0.8218990274614836","0.07322033202575325"
"0.06607294942171266","-0.09271409422334156","-0.0050485646973488","0.00046903349873142334","-0.004848983551038292","-0.0010962816983198507","-0.2630950675789472","0.8226114313516376","0.07237210713499359"
"0.06600073797172815","-0.09286990183461084","-0.004743320427093987","-0.0002459043538051839","-0.006290466367304751","0.0021919028959981844","-0.26167401248537914","0.8224399267114152","0.07196678965347451"
"0.06607198660237952","-0.09286990183461084","-0.00474084212449381","0.0008114835312486213","-0.007844673474864835","-0.000898976061359148","-0.26657804574945665","0.8225982386870051","0.0714356276313225"
"0.06571189217179012","-0.0927130555059331","-0.005061575785999716","0.0009027521932745712","-0.005271400481257502","-0.001097737828481922","-0.26195265073901985","0.8226114313516376","0.07261072145879112"
"0.06621640950234854","-0.09271513294075003","-0.00504319504171509","0.00020177420992969672","-0.007413401345541879","-0.0004550990502876528","-0.26267711019848594","0.8227829359918598","0.07281174585486708"
"0.06607294942171266","-0.09263722913511538","-0.005048151646915438","0.0006353003545529586","-0.007189388741187668","-0.00023522339581483998","-0.26106100832736945","0.8224399267114152","0.0737204414989179"
"0.06600073797172815","-0.09271513294075003","-0.004433945652505547","0.00028264517628180425","-0.007822894471663731","0.0004222193723604907","-0.26111673597809765","0.8227829359918598","0.07349490193258874"
"0.06607294942171266","-0.0928709405520193","-0.004432086925555414","0.00010559552494665458","-0.0067346623007250635","0.0013080318876207188","-0.2642096205935101","0.8220837247663382","0.0723623010668923"
"0.06592852652174365","-0.09271409422334156","-0.0047451791540441155","0.0004507412563422562","-0.006935938583056143","0.0017448709362422009","-0.2679155093669324","0.8229280553028172","0.07270878213980378"
"0.06592852652174365","-0.09286990183461084","-0.004437456581189126","-0.000593553234159303","-0.008018187511357144","0.0017443855595215103","-0.2632622505311315","0.8220705321017058","0.07390512244815846"
"0.06592852652174365","-0.09286990183461084","-0.004746005254910842","-0.0004920794263793968","-0.007855682641318138","-0.0008895112153056824","-0.2617576039614714","0.8232974499125266","0.07434149247866488"
"0.06607198660237952","-0.09286990183461084","-0.005203665135076383","-0.0011129566430517078","-0.005226167166916748","0.002203551937294757","-0.2641538929427821","0.8227697433272272","0.07300132983815827"
"0.06592852652174365","-0.09286886311720238","-0.004900279591771698","-0.00024648200356484185","-0.00693330595629557","0.002188505258953351","-0.2640424376413257","0.8201575957299958","0.07328243712372794"
"0.06607294942171266","-0.09271513294075003","-0.004894290360487943","-0.0005874879116828951","-0.007393058320573814","0.0008685232670354384","-0.2648226247515198","0.8206721096506626","0.07303728542119624"
"0.06592852652174365","-0.09271513294075003","-0.004436630480322402","0.0004553624544195195","-0.004799920961409432","0.0013204089939983274","-0.26557494803634984","0.8218990274614836","0.07321216030233553"
"0.06578410362177463","-0.09255828661207227","-0.0045952418467335625","0.0002103426813646224","-0.007445710855785275","-0.002206580946899451","-0.26457185032324315","0.8213845135408165","0.07215473929208213"
"0.06607198660237952","-0.09286990183461084","-0.005049390798215526","-5.845700679619191e-05","-0.006985719161801523","-0.00044878915291867566","-0.266661637225549","0.8213713208761843","0.07342299076651278"
"0.06607198660237952","-0.09286990183461084","-0.00474084212449381","0.00011965166909833044","-0.007001754252070468","-0.0013280490824495814","-0.26457185032324315","0.8231259452723044","0.07255025070549995"
"0.06571189217179012","-0.09286886311720238","-0.0047538532131447256","0.00011724479509975583","-0.00785281068485206","-0.0011101149348595309","-0.26535203743343716","0.8213581282115517","0.07497234952651312"
"0.06578410362177463","-0.0927130555059331","-0.005058890958182861","-6.538880391208683e-05","-0.008681848784727041","0.00042076324219841903","-0.26225915281802487","0.8222552294065606","0.07304872583398106"
"0.06600073797172815","-0.09255932532948073","-0.004741668225360535","0.0005546219381207372","-0.006568328155397952","-0.0013273210173685456","-0.2639867099905976","0.8226114313516376","0.07126565578423386"
"0.06607198660237952","-0.09286990183461084","-0.00474084212449381","0.0006185485115228792","-0.005188592403152206","0.0032907957916415574","-0.2629557484521268","0.8205137976750728","0.07307650969360131"
"0.06592852652174365","-0.09271409422334156","-0.0047451791540441155","0.0009837194345866218","-0.006112883725818828","-0.00022842812172517242","-0.2646275779739714","0.8222552294065606","0.07191449062360106"
"0.06592852652174365","-0.09271513294075003","-0.004436630480322402","0.0008027225098938098","-0.006950777024797555","0.0008646402532699141","-0.2629278846267626","0.8225982386870051","0.07368121722651284"
"0.06607294942171266","-0.09271513294075003","-0.0047398094984104034","0.0001946498628939158","-0.009110966946700435","0.0004129972146673705","-0.26565853951244217","0.8217275228212612","0.07256169111828475"
"0.06592852652174365","-0.0927130555059331","-0.005208002164626689","-4.8733235841950545e-05","-0.00874455316756978","-0.00265434097173647","-0.26568640333780624","0.8213713208761843","0.07235086065410751"
"0.06592852652174365","-0.09271409422334156","-0.00505372782776583","0.0008919693977609568","-0.0065247701489957455","0.0006474341707608994","-0.261256055104918","0.8210546969250045","0.07200764827056312"
"0.06592852652174365","-0.09286990183461084","-0.004746005254910842","0.00011454909622135222","-0.0063352210222344905","-0.00022430241959930296","-0.2662715436704517","0.8203422930348505","0.07040435613600583"
"0.06578410362177463","-0.09286886311720238","-0.004751168385327871","-6.173035543425342e-05","-0.004387555878821501","0.0006695188115523188","-0.2640424376413257","0.8217275228212612","0.07368121722651284"
"0.06592852652174365","-0.09286990183461084","-0.004746005254910842","0.0004479492825039096","-0.007356201545925792","0.0021812246081429924","-0.26418175676814604","0.8234689545527488","0.07276598420372783"
"0.06563968072180561","-0.09271409422334156","-0.004292682404295604","0.0011406476192936876","-0.0038940580260668207","0.0033012313911364045","-0.26418175676814604","0.821556018181039","0.07237537582436065"
"0.06571189217179012","-0.09263515170029846","-0.004752614061844639","0.0005305531981349909","-0.006907219018395347","0.0030641248630790775","-0.2645439864978791","0.8211866235713293","0.07542669734853853"
"0.06578410362177463","-0.09286886311720238","-0.004751168385327871","-0.0008392469319338013","-0.007428718446694303","-0.0008827159412160148","-0.2635687526101365","0.8210283115957396","0.07414210242727244"
"0.06592852652174365","-0.09286990183461084","-0.004746005254910842","-0.0004967006244566602","-0.007837972243110648","-1.1222039216157852e-05","-0.26507339917979644","0.8213713208761843","0.07410614684423444"
"0.06571189217179012","-0.09271409422334156","-0.004444478438556287","0.0006422321516688535","-0.005493259118262151","-0.0013171281062340444","-0.2639867099905976","0.8220705321017058","0.07410941553360154"
"0.06600073797172815","-0.09271513294075003","-0.004742494326227261","0.00020004126065072302","-0.006545113173963809","-7.82440217132407e-06","-0.26228701664338877","0.8208436142908849","0.07547736203372842"
"0.06571189217179012","-0.0927130555059331","-0.004907301449138859","0.0016563925797082584","-0.004296371261023473","0.004391872882528037","-0.2668566840030974","0.8213581282115517","0.07472556347929787"
"0.06607198660237952","-0.09286990183461084","-0.00474084212449381","0.0005334414469332804","-0.008643556031845977","0.0021703036319274554","-0.2647947609261557","0.822242036741928","0.07365506771157612"
"0.06592852652174365","-0.09271409422334156","-0.004590904817183259","-0.000582000238966145","-0.008276663593304309","-0.0004529148550445454","-0.26267711019848594","0.8229544406320822","0.07280684282081644"
"0.06578410362177463","-0.09294572820542853","-0.005060130109482947","0.0004622942515354143","-0.007407657432609719","-0.0004517014132428191","-0.2620641060404764","0.8213845135408165","0.0743790824063864"
