"AccX","AccY","AccZ","GyroX","GyroY","GyroZ","MagX","MagY","MagZ"
"0.05800741186810982","0.08774331986614589","-0.07085390101369665","0.00012311756765627787","-0.00737486926295531","0.0006993694798747867","0.37100200623133955","-0.498990133536583","0.4648828637138109"
"0.05829722048738099","0.08743170464360732","-0.07053172167567397","0.0009780392119499855","-0.004010132933237539","0.0011500417650359492","0.3659307900150775","-0.5007975285912332","0.463460983839127"
"0.05814990912941259","0.08790016619482363","-0.07115955833438482","0.0009701446652346607","-0.006957238926846234","0.0017737508511232877","0.36489982847660674","-0.4996629594328396","0.465585631927735"
"0.05800741186810982","0.08758855097228506","-0.07147347666374025","-0.0007100459356903149","-0.0031605124786889863","-0.0014134753852911156","0.3689400831543977","-0.5017737857740369","0.4669911683555835"
"0.058152797587411965","0.08735483955538113","-0.07115749308221801","0.0016763214964164565","-0.007171917672685684","-0.0005859080765137522","0.3704168658986938","-0.5005864459571134","0.4668113904403935"
"0.05815183476807884","0.08758855097228506","-0.07146728090723982","0.0006752544629292975","-0.0014823325836764672","-0.003114720791311444","0.37376052494238327","-0.49819857365863407","0.4660432484391276"
"0.05829529484871473","0.08759062840710198","-0.07177087297576118","0.0006626424431767664","-0.0042219397226109096","-0.001849343680471217","0.3707233679776985","-0.49954422545114724","0.4661739960138111"
"0.05815183476807884","0.08743274336101578","-0.07146728090723982","0.001684793692891439","-0.005908496157316162","-0.0014333758308394278","0.3687171725514852","-0.5003357853290963","0.4648338333733044"
"0.05815183476807884","0.08758855097228506","-0.07115749308221801","0.0008317012728366481","-0.008644752680373513","-0.0020944589244199373","0.3672125259818251","-0.5001774733535065","0.4652097326505198"
"0.05807769767942809","0.08790016619482363","-0.07162630532408434","0.0006569622205401303","-0.005693578081771205","-0.0014297355054342484","0.36843853429784446","-0.49937272081092504","0.4665498952910263"
"0.058440680568016865","0.0873558782727896","-0.07099020765670623","0.0023735447563235546","-0.004650339895467785","-0.0018529840058763964","0.3670174792042768","-0.5011009598777802","0.46757953244165945"
"0.05800741186810982","0.08774331986614589","-0.07100879492620754","0.0009947910549800648","-0.006114559033757374","-0.0010047881864696847","0.3691072661065823","-0.5000059687132842","0.46504629818216536"
"0.05815183476807884","0.08751168588405887","-0.07177706873226161","0.0004752913711277174","-0.004007978965887979","7.90580308322818e-05","0.3691072661065823","-0.498990133536583","0.4652587629910261"
"0.05808058613742746","0.08743274336101578","-0.07147141141157344","-0.0006968562661781262","-0.00842935594541754","-0.003378765727367096","0.36751902806082976","-0.4979611056952494","0.46543854090621606"
"0.057935200418125325","0.08774435858355435","-0.07147760716807387","0.0004993601111134637","-0.0023214225311827276","-0.0026914722908692964","0.3716986018654414","-0.49830411497569393","0.46426181273406386"
"0.057935200418125325","0.0876664547779197","-0.07147760716807387","0.00013303388853040538","-0.005268049865380408","-0.00014300181888363836","0.36788125779056297","-0.4989637482073181","0.464376216861912"
"0.05843971774868374","0.0874348207958327","-0.07145488939423894","0.0009906512317025165","-0.0035917846080119422","-0.0001325662193887917","0.37189364864298996","-0.4990560968597454","0.4666316125252035"
"0.05836750629869923","0.08766749349532817","-0.07114923207355077","-0.0007971747744387165","-0.004428241928757629","-0.0014222121662635452","0.3714478274371646","-0.5010481892192503","0.46489920716064626"
"0.05807962331809433","0.08766541606051124","-0.07116162358655163","0.0005684855323525269","-0.004428959917874149","-0.0009933818335334573","0.3706397765016067","-0.49800068368914685","0.46573272294925405"
"0.05800741186810982","0.08758855097228506","-0.07147347666374025","-0.0010781051075523472","-0.008213719880756063","0.0011204337850738266","0.3690794022812184","-0.4976312890794373","0.4654712277998868"
"0.05800067213277794","0.08742547233915657","-0.07115749308221801","-0.00039156836819892037","-0.00782002251519765","0.0002918957228550818","0.3695530873124074","-0.49945187679871994","0.46602690499229205"
"0.058286629474716585","0.08773916499651205","-0.07145695464640575","0.0004834747427228711","-0.006142081949890637","-0.0018364811973729175","0.3687171725514852","-0.4990824821890104","0.4651280154163426"
"0.058142206574747585","0.08773916499651205","-0.07177293822792799","0.0001311083893315457","-0.005296051440924685","-0.0005456218086964378","0.3701939552957813","-0.4993859134755575","0.46388591345684865"
"0.058288555113382844","0.0872717421627042","-0.07160978330674984","0.0015033153933989123","-0.005302513342973364","-0.0007618571377640713","0.3711691891835239","-0.5003357853290963","0.46650086495052"
"0.05814413221341383","0.08758127995042585","-0.07099846866537349","0.0013381075621367497","-0.002350860084960043","-0.0013814405217255402","0.36994318086750483","-0.49945187679871994","0.46602690499229205"
"0.057999709313444815","0.08742651105656501","-0.07177913398442844","0.0016617839774650655","-0.004877224456288075","0.0007411118778541727","0.37264597192782","-0.4987922435670958","0.46610862222646926"
"0.05843008955535248","0.08758439610265123","-0.07176054671492711","0.00012109579349747524","-0.004456243504301905","0.0007442668265386612","0.36799271309201936","-0.49976850074989954","0.465552945034064"
"0.058287592294049714","0.08758231866783431","-0.07114716682138394","0.0002939093465951335","-0.00866844632121867","7.250544510295975e-05","0.3654013773331603","-0.5008107212558657","0.4667787035467226"
"0.05814316939408071","0.08773708756169513","-0.07084357475286258","0.0010023005018556178","-0.007827681065773863","-0.002704334773967596","0.36888435550366977","-0.4999927760486517","0.4616958915808988"
"0.05814413221341383","0.08742651105656501","-0.07146108515073937","-3.082609329255519e-05","-0.00318947137305529","-0.0013887211725358984","0.36832707899638834","-0.49891097754878816","0.4651280154163426"
"0.057999709313444815","0.08742651105656501","-0.07146728090723982","0.00012196226813696213","-0.0031868387462947166","0.0007530036075110909","0.36651593034772323","-0.49860754626224096","0.4670075118024189"
"0.058070957944096196","0.08773708756169513","-0.0708456400050294","-0.00023155938477367912","-0.006134902058725438","0.0015905211390626103","0.37139209978643667","-0.4992539868292327","0.46476845958596275"
"0.058286629474716585","0.08766022247346895","-0.07114716682138394","0.0005451869920463246","-0.003191146680993836","0.00118231931696187","0.3705283212001502","-0.4987130875793009","0.4636734486479877"
"0.058286629474716585","0.0876612611908774","-0.07145695464640575","0.0014173418541698264","-0.006776784328894231","-0.0009844023642006823","0.3707233679776985","-0.4987922435670958","0.46627205669482386"
"0.058070957944096196","0.08758231866783431","-0.0716201095675839","0.0016693896993005618","-0.008881449759119572","-0.0005713467748930363","0.3687171725514852","-0.4995838034450447","0.46491555060748163"
"0.05807192076342932","0.08742651105656501","-0.07146521565507301","-0.0008712102186348722","-0.00740047754144452","-0.003560053932545011","0.3696366787884998","-0.4999927760486517","0.46689310767457076"
"0.0578552864134758","0.08781291393251282","-0.07054617844084166","-0.0005493630275454729","-0.0019193486259315817","-0.0009489698635902727","0.3684106704724805","-0.4987790509024633","0.46641914771634274"
"0.05785624923280894","0.08765814503865203","-0.07070107235335256","0.0014955171216435303","-0.005296290770630191","-0.000116548787606004","0.364621190222966","-0.49979488607916445","0.4615651440062151"
"0.058286629474716585","0.08742858849138194","-0.07207653029644935","0.00027744632844488304","-0.005717989711732881","0.0024476964278020968","0.36698961537891256","-0.5018529417618317","0.4612055881758353"
"0.058287592294049714","0.08742754977397348","-0.07160978330674984","-0.00020941614398679262","-0.003611409643863486","-0.0005351862092015912","0.3718100571668978","-0.4992671794938651","0.46499726784165885"
"0.058358840924701096","0.08758335738524277","-0.07145282414207213","0.0018386410788803294","-0.008674429563856334","-0.00035583951090643813","0.36776980248910657","-0.5011801158655751","0.4670565421429252"
"0.058142206574747585","0.08774020371392051","-0.0720827260529498","-0.001078971582191834","-0.007187713433249122","0.0007255798227920755","0.3684663981232087","-0.5006524092802759","0.466206682907482"
"0.058287592294049714","0.08742754977397348","-0.07145488939423894","-3.1114918172384186e-05","-0.003612366962685513","-0.0013918761212203868","0.3695252234870434","-0.49994000539012173","0.4653731671188742"
"0.058287592294049714","0.08758231866783431","-0.07114716682138394","0.0015099583656349783","-0.001721183629772088","-0.0013770721312393254","0.3684663981232087","-0.4988054362317283","0.46728535039862146"
"0.057999709313444815","0.08742651105656501","-0.07146728090723982","0.0008186078782844023","-0.004453850207246838","-0.0007548191753140587","0.36949735966167946","-0.5000983173657115","0.46494823750115255"
"0.058070957944096196","0.08766022247346895","-0.07146521565507301","0.0011781948536714515","-0.002771601707240706","-0.002669144961717532","0.36852212577393656","-0.4991616381768053","0.4679390882720393"
"0.058070957944096196","0.08758231866783431","-0.07146521565507301","0.001498983020201478","-0.00740622145437668","-0.0005609111753981893","0.3687171725514852","-0.4995838034450447","0.46491555060748163"
"0.058286629474716585","0.08766022247346895","-0.07114716682138394","0.001317023345909236","-0.00614327859841817","0.0007333458503231242","0.36735184510864544","-0.4998212714084294","0.4674651283138115"
"0.058286629474716585","0.0876612611908774","-0.07145695464640575","-0.0002298264354947055","-0.005295333451808166","0.001595374906269516","0.37011036381968915","-0.5012065011948401","0.4675468455479887"
"0.058286629474716585","0.08758439610265123","-0.07192163638393846","0.0005869703246615801","-0.003194497296870929","-0.0035297178875018523","0.37220015072199464","-0.49893736287805307","0.46543854090621606"
"0.05814316939408071","0.08758335738524277","-0.07177293822792799","-0.0021590803577921838","-0.002762028519020441","-0.002670358403519258","0.3668224324267279","-0.49891097754878816","0.46573272294925405"
"0.057998746494111686","0.08766022247346895","-0.07146934615940663","0.00036553791679271437","-0.005293418814164112","0.0020242052389996042","0.36919085758267445","-0.5013120425119","0.4653731671188742"
"0.058142206574747585","0.08789289517296438","-0.07084357475286258","-0.0007971747744387165","-0.010349976832108282","-0.002721808335912455","0.3726181081024557","-0.5006392166156434","0.46502995473532976"
"0.05792749786346031","0.08765814503865203","-0.07085183576152983","-0.00013287755083211941","-0.006134423399314425","9.119244884954533e-05","0.37141996361180063","-0.4992671794938651","0.46499726784165885"
"0.057999709313444815","0.08758231866783431","-0.07146934615940663","-0.00014693369498379534","-0.006766732481262952","0.0017989904405991957","0.36607010914189786","-0.499425491469455","0.46570003605558313"
"0.05814316939408071","0.08773708756169513","-0.07084357475286258","0.0009936357554607492","-0.004456243504301905","-0.001395516446625566","0.3662094282687183","-0.4998212714084294","0.46743244142014057"
"0.05814316939408071","0.08773708756169513","-0.07099846866537349","0.0016153794467725468","-0.004038373838487322","-0.003962431233997465","0.36888435550366977","-0.4994914547926174","0.4675141586543178"
"0.05814124375541445","0.08789393389037284","-0.07146315040290618","0.0016876819416897287","-0.0023525353928985897","-0.002236674303582265","0.3671289345057329","-0.5012328865241051","0.4633629231581142"
"0.058070957944096196","0.08766022247346895","-0.07146521565507301","0.0018895705326901684","-0.0015117701374537836","-0.0056580948077298516","0.3655964241107086","-0.4976972524025997","0.4652587629910261"
"0.057998746494111686","0.08766022247346895","-0.07177913398442844","0.0016805575946539477","-0.00614256060930165","-0.0016224300635483912","0.3694694958363152","-0.4994122988048224","0.4645069644365955"
"0.058286629474716585","0.08758439610265123","-0.07207653029644935","0.0009568587207625289","-0.0074052641355546525","0.0028648777192356125","0.36969240643922774","-0.49984765673769443","0.46753050210115316"
"0.05843201519401873","0.0872717421627042","-0.07144869363773851","-0.0007267977787203943","-0.004032629925555162","-0.00011072426695771764","0.37022181912114555","-0.5004281339815236","0.4640983782657094"
"0.05814316939408071","0.08758231866783431","-0.07146315040290618","-0.00080728364523273","-0.006135859377547464","-0.000980519350435158","0.3687450363768494","-0.4990824821890104","0.4653404802252033"
"0.058142206574747585","0.08789393389037284","-0.07115336257788439","0.001259162094983502","-0.007828638384595889","-0.00270360670888656","0.36776980248910657","-0.5008502992497631","0.46748147176064686"
"0.058070957944096196","0.0876591837560605","-0.0711554278300512","0.0016773805209758293","-0.006775109020955685","-0.0014122619434893894","0.3718100571668978","-0.500111510030344","0.4647848030327981"
"0.058287592294049714","0.08742754977397348","-0.07176674247142756","0.0010154901713678068","-0.007830792351945448","-0.003991311148878552","0.3695530873124074","-0.49893736287805307","0.46601056154545667"
"0.058286629474716585","0.08742858849138194","-0.07207653029644935","-0.0003770308492475296","-0.009931628506882685","-0.0014367734678842616","0.37027754677187347","-0.49826453698179646","0.46581444018343127"
"0.05800067213277794","0.08742443362174811","-0.0708477052571962","0.0002206441020785218","-0.004241325428756947","-0.0009671714906161679","0.3681041683934755","-0.5009954185607204","0.4666316125252035"
"0.05814413221341383","0.08758127995042585","-0.07099846866537349","0.000645890600146687","-0.007825527098424302","-0.0009919257033713855","0.3719215124683539","-0.5003225926644638","0.4660922787796339"
"0.058286629474716585","0.0876612611908774","-0.07145695464640575","0.0012377890538761594","-0.008250337325698577","-0.00013839074003707828","0.36854998959930085","-0.49950464745724993","0.4679390882720393"
"0.05843201519401873","0.08758231866783431","-0.0708291179876949","0.00014863043204116903","-0.005300359375623805","-0.0026875892771037724","0.36921872140803874","-0.5011537305363102","0.46601056154545667"
"0.05800067213277794","0.08742443362174811","-0.0708477052571962","0.0006886366823613723","-0.01014439261507808","-0.006148567983987638","0.3699710446928688","-0.5006392166156434","0.46560197537457054"
"0.05814413221341383","0.08742651105656501","-0.07115129732571758","0.0009707223149943185","-0.007404306816732626","0.001151740583558366","0.37033327442260167","-0.4996233814389422","0.46043744617456933"
"0.058287592294049714","0.08766022247346895","-0.07099227290887306","0.0014863710004489467","-0.0031940186374599154","0.0011825620053222152","0.3650670114287914","-0.5016814371216095","0.46158148745305067"
"0.058287592294049714","0.08758231866783431","-0.07099227290887306","0.0021962062801085757","-0.004462226746939571","-0.0018245894677159993","0.3686893087261212","-0.5007579505973357","0.4640493479252031"
"0.05814316939408071","0.08758231866783431","-0.07146315040290618","0.0008324714725161922","-0.007827441736068357","-0.0027055482157693224","0.37105773388206775","-0.49976850074989954","0.46498092439482347"
"0.05814413221341383","0.08742651105656501","-0.07146108515073937","0.001162887135040517","-0.00951304085195158","-0.0014331331424790822","0.3687171725514852","-0.4992539868292327","0.4651280154163426"
"0.05814413221341383","0.08758127995042585","-0.07084150950069577","0.0008339155969153369","-0.004456482834007412","-0.0026812793797347956","0.36888435550366977","-0.4998212714084294","0.46707288558976073"
"0.05843201519401873","0.08742754977397348","-0.07144869363773851","-3.6602590889134313e-05","-0.0061418426201851305","-0.0009814901038765387","0.3688007640275776","-0.4991088675182754","0.466206682907482"
"0.05807192076342932","0.08758127995042585","-0.0711554278300512","0.0001607610769939851","-0.004454328866657852","-0.003966314247762989","0.36877290020221337","-0.5004545193107885","0.46535682367203884"
"0.05814316939408071","0.08758231866783431","-0.07146315040290618","-0.0008878657867050083","-0.006978778600341831","-0.001628982649277714","0.36729611745791757","-0.5004677119754211","0.4661739960138111"
"0.057999709313444815","0.08758231866783431","-0.07146934615940663","-0.00012594575371622447","-0.005714878425561295","-0.0005490194457412716","0.3727016995785482","-0.4994914547926174","0.4667623600998872"
"0.057999709313444815","0.08758024123301739","-0.0708477052571962","0.00032693165785557734","-0.005717750382027375","-0.003546706072726021","0.36573574323752894","-0.49994000539012173","0.4661249656733048"
"0.058286629474716585","0.08758335738524277","-0.07161184855891665","0.0004927171388773977","-0.0044574401528294375","-0.002681764756455487","0.3687450363768494","-0.49994000539012173","0.46535682367203884"
"0.05814413221341383","0.08758127995042585","-0.07099846866537349","0.0001323599638108045","-0.007824091120191263","-0.0009921683917317307","0.36985958939141234","-0.499755308085267","0.4647357726922918"
"0.058287592294049714","0.08742754977397348","-0.07145488939423894","0.0009060255419126327","-0.004457918812240451","-0.0009693556858592754","0.3706676403269706","-0.49893736287805307","0.4656183188214059"
"0.05814413221341383","0.0872717421627042","-0.07161597906325028","0.0008189929781241742","-0.0074052641355546525","-0.0009909549499300043","0.36581933471362144","-0.5003225926644638","0.4672199766112796"
"0.058358840924701096","0.08758335738524277","-0.07145282414207213","0.00012744994085371226","-0.007826484417246328","-0.0003500149902581518","0.3679091216159272","-0.4987262802439334","0.46467039890495"
"0.05807192076342932","0.08742547233915657","-0.0711554278300512","0.0003302050064936388","-0.007404306816732626","-0.003987913511833718","0.37100200623133955","-0.4995838034450447","0.4643271865214057"
"0.057999709313444815","0.08758024123301739","-0.0708477052571962","0.0009825641350673059","-0.010352609458868853","-0.000581296997667192","0.37033327442260167","-0.5004677119754211","0.4653895105657096"
"0.05814413221341383","0.08742651105656501","-0.07115129732571758","0.0008246732007608103","-0.008248183358349018","-0.0018524986291557053","0.37178219334153356","-0.5007711432619681","0.46393494379735495"
"0.05785624923280894","0.0875033761447912","-0.07147554191590706","0.0011907105984640398","-0.0038234557629423637","-0.004176239679461646","0.3691072661065823","-0.5007579505973357","0.4642781561808994"
"0.05814316939408071","0.08758231866783431","-0.07146315040290618","0.0008120611810082793","-0.0027696870695966534","0.00011424784308234568","0.3733147037365579","-0.499755308085267","0.46418009549988665"
"0.05814316939408071","0.08758231866783431","-0.07146315040290618","0.0009780392119499855","-0.002348466787904977","0.0007597988816007583","0.3702496829465095","-0.499425491469455","0.4647521161391272"
"0.05843201519401873","0.08742754977397348","-0.0711389058127167","0.0007971385622171165","-0.010777898345554144","0.0011274717475238392","0.37172646569080564","-0.49838327096348883","0.46413106515938035"
"0.057998746494111686","0.08766022247346895","-0.07146934615940663","-0.0001077497862870003","-0.005716075074088828","-0.0026902588490675702","0.37033327442260167","-0.49996639071938676","0.4658307836302668"
"0.05814413221341383","0.08758127995042585","-0.07068661558818487","-0.0008482967781684416","-0.005290068198287019","0.003737099686316505","0.36829921517102404","-0.5007447579327032","0.4640493479252031"
"0.05814509503274695","0.08742547233915657","-0.07068661558818487","-3.7083965688849304e-05","-0.005295333451808166","-0.0009749375181472167","0.3705561850255142","-0.5004017486522587","0.457642716765708"
"0.058288555113382844","0.08742547233915657","-0.07068041983168444","0.0013955837132227117","-0.0055107301867641355","0.0015934333993867537","0.36991531704214053","-0.4999531980547543","0.459767364854316"
"0.05814509503274695","0.08726966472788728","-0.07099640341320668","0.0008194743529238891","-0.00024212604974108856","-0.0005116454382481002","0.3727016995785482","-0.5001642806888741","0.46071528477077195"
"0.057998746494111686","0.08766022247346895","-0.07146934615940663","0.0005514448644426186","-0.005295094122102658","0.000311068103322358","0.3696088149631356","-0.49964976676820716","0.4610584971543164"
"0.05814413221341383","0.08758127995042585","-0.07068661558818487","-0.000729493477598798","-0.005292700825047592","-0.00011751954104738521","0.3704168658986938","-0.4994914547926174","0.4615161136657088"
"0.05814413221341383","0.08758127995042585","-0.07068661558818487","0.0006368407539120464","-0.009510168895485501","-0.00014712752100950782","0.3703611382479659","-0.5013252351765324","0.4656183188214059"
"0.05814509503274695","0.08734756853352192","-0.07099640341320668","0.0006309679813555243","-0.0036111703141579795","0.0011781936148360002","0.37384411641847537","-0.501338427841165","0.46550391469355773"
"0.05807192076342932","0.08750441486219966","-0.07146521565507301","0.0015007159694804513","-3.2473227717277305e-05","-8.063091027490442e-05","0.3729524740068247","-0.49943868413408743","0.46481748992646904"
"0.058288555113382844","0.08742651105656501","-0.07114510156921715","-0.0004754238583092604","-0.005295094122102658","0.0003096119731602864","0.368633581075393","-0.499042904195113","0.4640493479252031"
"0.05835980374403422","0.08742651105656501","-0.07098814240453943","-0.00038694717012165717","-0.0061392099934245575","-0.00012455750349739785","0.3694694958363152","-0.5009294552375579","0.46408203481887406"
"0.05814316939408071","0.08773708756169513","-0.07084357475286258","0.0012737958888948359","-0.007829595703417916","-0.004417471909644842","0.37141996361180063","-0.5011141525424128","0.46413106515938035"
"0.058358840924701096","0.0876612611908774","-0.07145282414207213","0.0009055441671129178","-0.009514955489595635","-0.0014321623890377014","0.36637661122090287","-0.49939910614019","0.46485017682013996"
"0.05814413221341383","0.08742547233915657","-0.07099640341320668","0.0009117057645492688","-0.011197921978718287","-0.0023014720957944515","0.37100200623133955","-0.49840965629275374","0.46498092439482347"
"0.057999709313444815","0.08758127995042585","-0.07100466442187392","-0.00022645681189670098","-0.007609412374351812","0.0009367186962924587","0.3733147037365579","-0.49773683039649713","0.46504629818216536"
"0.058287592294049714","0.08758231866783431","-0.07114716682138394","0.0003048846920286338","-0.006141124631068611","-0.0009802766620748125","0.36985958939141234","-0.49823815165253155","0.4653731671188742"
"0.05814509503274695","0.08742443362174811","-0.07053172167567397","0.002023585276930804","-0.006144953906356716","-0.0018369665740936086","0.3671846621564611","-0.5007579505973357","0.46444159064925383"
"0.058287592294049714","0.08758231866783431","-0.07114716682138394","0.001594872880304691","-0.005302752672678871","-0.0016166055429001052","0.366794568601364","-0.50125927185337","0.46444159064925383"
"0.05814316939408071","0.08758231866783431","-0.07115336257788439","0.0013951023384229972","-0.004034544563199216","0.0018186481977871623","0.3694694958363152","-0.4992407941646002","0.46471942924545645"
"0.058215380844065204","0.08758231866783431","-0.07114923207355077","0.0011951392466214169","-0.0044598334498845045","-0.00482276147142144","0.37164287421471315","-0.5020508317313189","0.4667296732062163"
"0.05807288358276245","0.08734756853352192","-0.0708456400050294","0.0005576064618789696","-0.004242761406989988","-0.00032526077750293455","0.36715679833109716","-0.5015758958045496","0.4635917314138105"
"0.05814316939408071","0.08758231866783431","-0.07146315040290618","0.0013397442364557804","-0.00614327859841817","-0.0018367238857332627","0.3679091216159272","-0.49990042739622437","0.4644742775429246"
"0.058288555113382844","0.08742651105656501","-0.07083531374419534","0.00028765147419883947","-0.004454328866657852","0.0011723690941877138","0.3670732068550047","-0.49953103278651484","0.4635753879669751"
"0.05814413221341383","0.08758024123301739","-0.07053172167567397","-0.000529722935717104","-0.006137774015191518","-0.0035498610214105093","0.36763048336228615","-0.5011273452070452","0.4653241367783679"
"0.058287592294049714","0.08758231866783431","-0.07099227290887306","0.0015285394329039742","-0.0010903105260566001","-0.0035141858324397547","0.37033327442260167","-0.5004677119754211","0.4653895105657096"
"0.058287592294049714","0.08758127995042585","-0.07052552591917353","-0.0007530808427848293","-0.004449781602253226","0.0026721831611214697","0.37164287421471315","-0.5000455467071816","0.46241500324165846"
"0.05807384640209557","0.08726966472788728","-0.0708456400050294","-2.736019473460777e-05","-0.0027672937725415872","-0.0018143965565814984","0.3677976663144705","-0.5010349965546178","0.46231694256064565"
"0.05800067213277794","0.08758024123301739","-0.0705379174321744","0.00033848465304873554","-0.009510647554896515","-0.005286538928041247","0.36983172556604843","-0.4997421154206345","0.46408203481887406"
"0.058142206574747585","0.08781499136732973","-0.07099846866537349","0.0002848595003604929","-0.007401674189972053","0.001153439402080783","0.368661444900757","-0.4995574181157798","0.4640493479252031"
