"AccX","AccY","AccZ","GyroX","GyroY","GyroZ","MagX","MagY","MagZ"
"-11.985","0.46075","-1.9043","0.40513","-0.12298","0.89244","0.67302","0.40841","0.6399"
"-12.227","0.66334","-3.9772","0.020538","0.04871","1.1108","0.67376","0.36856","0.63747"
"-18.948","-13.481","-4.7415","0.21516","0.5263","0.84211","0.67169","0.33721","0.64172"
"-16.006","-4.5666","1.2865","0.87043","-0.23586","-0.38002","0.68489","0.34905","0.6149"
"-15.448","-0.61524","-1.4726","-0.65584","0.016356","-1.0045","0.68934","0.38255","0.60896"
"-10.166","-4.3168","-3.0011","-0.63177","0.084797","-0.83457","0.69092","0.39688","0.62405"
"-7.5931","-6.473","-2.941","0.55065","0.34295","-0.83593","0.69715","0.44242","0.61555"
"-7.3514","3.0543","-1.9027","1.1143","-0.094052","-1.0026","0.71026","0.51774","0.57345"
"-4.8721","-1.3865","-2.0894","-0.76386","0.17971","-0.64978","0.71536","0.55255","0.55301"
"-6.2009","-7.9641","-1.3676","-0.33514","0.48248","-0.92743","0.70919","0.56352","0.55992"
"-9.3554","-12.639","-1.8817","1.1653","0.51475","-1.6864","0.69614","0.62997","0.52128"
"-8.5403","-0.43825","-1.3121","1.2678","0.082135","-1.9861","0.68166","0.72894","0.44366"
"-6.6361","0.45643","-1.2177","-0.58281","0.41939","-2.0019","0.6561","0.78731","0.42552"
"-10.279","-6.0369","-0.15376","-1.0174","0.32134","-1.6821","0.61557","0.82327","0.44989"
"-11.744","-7.4807","-1.8783","2.0956","-0.069965","-1.5578","0.58748","0.88763","0.40574"
"-8.9914","8.4297","-3.0589","2.8965","-0.56889","-1.347","0.54677","0.99135","0.26253"
"-9.8044","4.6671","-0.52778","-1.276","-0.089895","0.39907","0.5281","1","0.24766"
"-16.573","-12.377","1.2842","-1.5063","-0.27106","0.25385","0.52402","0.97164","0.32097"
"-7.7319","-0.26145","-1.8717","-1.4323","-0.44057","0.56642","0.51433","0.9576","0.37556"
"-3.4326","-0.41566","-1.9713","-1.3639","-0.46576","1.531","0.53037","0.90221","0.45297"
"-7.3603","-5.2305","-4.1276","-0.31844","-0.025854","2.2398","0.57766","0.79222","0.55954"
"-8.687","-7.6272","-0.58535","-0.1304","-0.33255","2.011","0.619","0.7114","0.59592"
"-2.8964","-2.9851","-0.6543","0.21975","-0.38107","1.7582","0.6525","0.66621","0.57574"
"-3.7124","-7.6986","0.3726","0.43616","-0.17843","1.8031","0.68361","0.599","0.58252"
"-7.184","-4.6301","-0.87313","0.022382","-0.06509","1.0573","0.69835","0.54532","0.59198"
"-9.8483","-2.1007","-2.8612","-1.2078","-0.37043","0.94362","0.70481","0.46844","0.63701"
"-9.2388","-5.3635","-2.0379","-0.48966","-0.27047","0.97857","0.7091","0.39652","0.65352"
"-11.331","-3.0281","-0.5728","0.71004","-0.11501","0.88889","0.71021","0.36706","0.63974"
"-12.766","-0.041811","-2.4119","0.41326","-0.16717","0.82103","0.7096","0.35127","0.63229"
"-15.768","-3.2459","-2.8523","0.009834","0.019858","0.794","0.70897","0.32142","0.63283"
"-16.067","-3.8415","-0.90155","0.51642","-0.12666","0.63729","0.71859","0.30555","0.6321"
"-14.534","-0.96557","-0.77824","0.79367","-0.18308","0.47895","0.73457","0.31375","0.61716"
"-11.78","-2.1566","-1.3998","0.29117","-0.15134","0.22956","0.75056","0.32071","0.60916"
"-8.875","-6.4427","-3.6559","-0.30806","-0.051448","-0.091467","0.76921","0.32992","0.60346"
"-11.47","-12.203","-4.1934","0.10604","0.56449","-0.939","0.77843","0.35631","0.60114"
"-9.6677","-2.5711","-1.0515","0.74706","0.040235","-2.074","0.78497","0.45245","0.5587"
"-6.9165","-2.3215","0.80362","-0.80292","-0.02988","-2.1533","0.77748","0.54065","0.51809"
"-7.0692","0.68406","0.30113","0.066156","0.52363","-2.2857","0.75956","0.61276","0.49394"
"-6.1238","1.0569","1.364","-0.32641","0.12288","-1.5914","0.74172","0.67563","0.4693"
"-6.9838","-1.2161","-1.1818","0.2058","-0.025429","-1.2911","0.73297","0.71881","0.44147"
"-10.825","-3.6325","-3.5841","0.42484","0.52903","-1.3169","0.71256","0.76001","0.41609"
"-13.455","-9.2889","-1.7985","-0.19645","0.31541","-1.7794","0.67961","0.80384","0.40915"
"-12.2","-3.9398","0.69504","1.3439","-0.001792","-1.6811","0.65714","0.8706","0.37125"
"-7.551","9.0889","-1.4101","1.8772","-0.44176","-0.92462","0.6298","0.94859","0.27829"
"-10.06","5.0683","-1.8892","-1.33","-0.11135","0.66508","0.62862","0.94289","0.27929"
"-16.819","-14.694","-0.28608","-1.9476","-0.02937","0.39786","0.62033","0.89259","0.38217"
"-7.3143","-2.0606","-0.6368","-0.73991","-0.59044","0.70201","0.61632","0.88066","0.41607"
"-3.8959","0.70998","-2.8128","-1.4976","-0.54575","1.2714","0.63015","0.8253","0.48529"
"-7.4374","-7.2892","-2.7672","0.0461","-0.14926","1.7932","0.65647","0.7555","0.52789"
"-6.2112","-5.5935","-0.1122","0.69465","-0.28457","1.7449","0.68994","0.6986","0.53602"
"-2.8642","-1.4675","-1.0008","-0.38639","-0.27403","1.4926","0.71636","0.64732","0.54168"
"-6.8437","-7.262","-0.67276","0.025316","-0.12877","1.6303","0.73602","0.56637","0.56791"
"-7.4693","-4.3932","-2.0204","0.46147","-0.050997","1.0456","0.74508","0.51194","0.58159"
"-9.5207","-4.0795","-1.4117","-0.1953","-0.10508","0.9917","0.74605","0.46434","0.59169"
"-9.4672","-3.6631","-0.93151","0.26671","-0.12469","0.78327","0.74725","0.41888","0.59804"
"-11.36","-1.7915","-1.6756","0.067233","-0.062758","0.53259","0.73691","0.40047","0.59193"
"-11.63","-1.2258","-2.889","0.071742","-0.12202","0.60643","0.7324","0.37399","0.5948"
"-16.144","-3.8938","-2.9425","0.412","0.046354","0.82775","0.73299","0.34318","0.60085"
"-16.511","-4.9594","-1.069","0.50257","-0.13917","0.4593","0.74147","0.33558","0.58796"
"-15.299","-2.1216","-0.27881","0.11422","-0.14286","-0.070448","0.75759","0.34597","0.5807"
"-12.921","-3.2686","-2.3186","-0.389","-0.018021","-0.42218","0.7678","0.36644","0.57625"
"-8.5198","-5.2762","-2.3318","-0.51108","0.11656","-0.68338","0.78076","0.39402","0.57802"
"-7.5571","-7.7403","-1.7769","0.468","0.38782","-1.0805","0.78759","0.43599","0.5732"
"-7.4332","-1.1165","-1.2788","0.89816","0.01161","-1.7609","0.78859","0.52947","0.5257"
"-5.477","-0.52861","-1.1171","-0.71364","0.1395","-1.9352","0.77621","0.60127","0.49895"
"-6.4435","-1.2599","-0.052146","-0.63733","0.53808","-1.8373","0.74359","0.66169","0.49757"
"-6.3386","-0.87722","-0.6769","-0.48165","0.3799","-1.4932","0.71117","0.70321","0.49922"
"-9.1342","-5.7689","-1.589","-0.3427","0.42836","-1.4701","0.68118","0.73138","0.50438"
"-11.872","-10.85","-4.0994","0.69015","0.35504","-1.7413","0.6463","0.78097","0.4849"
"-12.179","-7.1184","-2.5555","0.78701","0.17278","-1.9064","0.60908","0.85829","0.44593"
"-10.207","-2.8393","-0.52342","1.6047","-0.10535","-1.5975","0.57326","0.93833","0.383"
"-5.1195","11.947","-1.8021","1.4426","-0.31675","-0.43913","0.55148","1.0093","0.28822"
"-10.829","2.2859","-1.9993","-1.8974","0.19306","1.1827","0.56304","0.99281","0.31192"
"-14.346","-13.616","-2.1539","-1.2431","0.079661","0.89856","0.58","0.92065","0.40617"
"-6.6543","-1.8416","-0.057275","-0.78265","-0.52241","1.0686","0.59295","0.88879","0.44232"
"-3.5315","2.4191","-0.71023","-1.4476","-0.71851","1.7674","0.63154","0.7876","0.52822"
"-6.0084","-8.2444","-2.8428","0.79009","-0.078075","2.399","0.6757","0.69646","0.55397"
"-7.8644","-8.6408","-0.20812","1.6932","0.065222","1.5973","0.69677","0.67323","0.53006"
"-3.6205","-1.4951","-0.65505","-0.68657","-0.25647","1.1248","0.71338","0.62768","0.53383"
"-6.8429","-6.4605","-1.2832","-0.84286","-0.25044","1.0057","0.72271","0.54931","0.57046"
"-9.7759","-4.5424","-1.1259","0.2671","-0.20973","0.73855","0.72929","0.49603","0.57074"
"-10.251","-1.3254","-1.8648","-0.054215","-0.28933","0.92883","0.7324","0.45988","0.57031"
"-11.332","-2.7021","-1.9466","0.22521","-0.21452","0.97079","0.73206","0.4194","0.5801"
"-11.616","-2.71","-1.4509","0.75136","-0.098858","0.7877","0.7312","0.39806","0.57196"
"-13.68","-0.21539","-2.8238","0.062427","0.063262","0.65742","0.7293","0.37475","0.57819"
"-17.403","-4.9155","-1.7413","-0.24772","-0.17838","0.68016","0.73808","0.33993","0.58444"
"-14.41","-3.5992","0.22531","0.2073","-0.46106","0.58171","0.75684","0.32407","0.57735"
"-12.513","-1.5693","-1.7394","0.60648","-0.10941","0.28363","0.77361","0.32916","0.57247"
"-9.8657","-3.8358","-2.2685","-0.19076","0.018746","-0.10721","0.78846","0.34335","0.5667"
"-9.6827","-7.3538","-0.52673","-1.0665","0.19059","-0.74149","0.8001","0.35223","0.57795"
"-8.6","-8.4585","-2.2447","-0.044351","0.24389","-1.7327","0.80475","0.4119","0.56847"
"-7.1683","-3.8511","-1.4908","-0.30498","0.006753","-2.2166","0.79487","0.50933","0.54225"
"-6.5177","-0.16452","-1.3056","-0.65072","0.39907","-2.3284","0.76694","0.58647","0.53699"
"-4.4226","-2.0905","-0.22195","-0.3193","0.38182","-1.8843","0.73484","0.6578","0.52651"
"-5.7106","-1.2287","-1.3994","0.042026","0.39165","-1.4893","0.70843","0.71262","0.5072"
"-8.4435","-4.5979","-2.015","0.33476","0.46792","-1.3588","0.67999","0.76724","0.47839"
"-10.095","-6.0726","-3.2048","0.57397","0.62131","-1.3784","0.6551","0.81057","0.44497"
"-12.228","-10.085","-2.2805","0.87681","0.38905","-1.5568","0.62947","0.85237","0.41941"
"-11.66","-2.7342","-0.87641","2.3446","0.066376","-1.4184","0.60355","0.93041","0.33847"
"-4.0999","12.3","-1.515","0.63802","0.015046","-0.13421","0.59123","0.98182","0.25287"
"-12.973","-0.27453","0.33326","-2.3774","0.29951","1.2816","0.60747","0.93636","0.30961"
"-15.334","-12.519","-2.7429","-1.0299","-0.023868","0.86518","0.62216","0.86923","0.39917"
"-7.8231","-2.038","-0.002845","-0.27901","-0.47171","1.2057","0.64252","0.83419","0.43042"
"-4.4289","3.3797","-0.78257","-1.4755","-0.63884","1.8434","0.66967","0.772","0.48023"
"-7.7081","-8.2467","-2.0497","0.45683","-0.18438","2.2353","0.70802","0.68096","0.51949"
"-7.143","-6.9912","-0.79662","1.5794","-0.19112","1.6244","0.7269","0.65431","0.49052"
"-3.1047","-2.3656","-0.22284","-0.40717","-0.21365","1.2925","0.74374","0.60924","0.50122"
"-6.5049","-5.7514","-1.5744","-0.64186","-0.20424","1.0415","0.75385","0.53536","0.53832"
"-9.8959","-4.3158","-1.7025","-0.42392","-0.29945","0.63658","0.7495","0.48749","0.55757"
"-9.735","-2.2253","-1.5597","-0.82097","-0.50282","0.71473","0.75137","0.43509","0.57365"
"-10.435","-4.0666","-1.7483","0.084837","-0.35365","0.91016","0.75175","0.38338","0.58407"
"-11.304","-3.5446","-2.4564","1.0738","-0.17371","0.70669","0.7526","0.36538","0.57432"
"-12.588","-1.0134","-2.5086","0.44739","0.12753","0.50269","0.75383","0.34987","0.56653"
"-16.728","-5.0487","-0.86368","-0.25048","-0.02096","0.23864","0.74867","0.32997","0.57259"
"-15.788","-3.8178","0.48533","-0.55619","-0.26689","-0.058476","0.75838","0.32054","0.57414"
"-13.116","-3.4335","-1.889","0.087887","-0.031234","-0.19179","0.76581","0.33965","0.57163"
"-11.365","-3.7424","-3.474","0.84393","0.18034","-0.21836","0.77945","0.37659","0.56073"
"-8.5784","-4.4239","-2.4426","0.051865","0.26674","-0.49744","0.79361","0.40297","0.54952"
"-7.3357","-5.9308","-0.43842","0.27046","0.2354","-1.2159","0.79918","0.45133","0.53602"
"-7.0616","-2.8138","-1.3368","0.54162","0.22875","-1.5018","0.79705","0.52605","0.50235"
"-7.4499","-2.6586","-0.32693","-0.34244","0.30357","-1.8047","0.78074","0.60282","0.47564"
"-6.8337","-1.6915","-0.000136","-0.35049","0.16586","-1.7787","0.75814","0.66661","0.46255"
"-6.0195","-2.822","-0.39285","-0.31453","0.27483","-1.5297","0.73979","0.71271","0.45338"
"-7.7826","-3.8029","-1.6356","-0.037485","0.40736","-1.4816","0.71286","0.75701","0.44503"
"-8.8787","-4.7359","-2.5531","0.25569","0.31298","-1.4798","0.68596","0.8035","0.42653"
