"AccX","AccY","AccZ","GyroX","GyroY","GyroZ","MagX","MagY","MagZ"
"0.10959719737570761","-0.04651609876459186","-0.04686393184400831","-0.011261588995521597","-0.29508483540805025","0.07804390723355133","-0.19446646570722692","0.1390862840780758","0.9208813738696036"
"0.09543911238955866","0.00912051404136907","0.037164983067072055","-0.025295589906410534","0.014491728610363836","0.0551050034137166","-0.1823457016738536","0.13518125534686093","0.9159783398189696"
"0.08887636250748673","-0.03053335400058921","0.013570303162111538","0.07188724290883691","-0.017118699563246912","0.013568890540624","-0.18268006757822255","0.13833430219402432","0.911124336108842"
"0.10295124064686688","-0.05331138805074935","-0.04683295306150613","0.06827500641177611","-0.0030355823724145235","-0.0070952952776945286","-0.1910670790128096","0.15515494960043974","0.9129711456012476"
"0.0425609013067573","-0.022745050871942184","-0.04669664641849653","-0.15971853997720406","0.5250741323926348","-0.025593730168291882","-0.2912096673713001","0.11867723189162507","0.9668554898177145"
"-0.30962685691901215","-0.2852985340566212","0.019671264588090903","-0.0015538959595905795","-0.14173432660467428","-0.4452091858560705","-0.4021076923203242","0.2243768609270765","0.9692743199493608"
"-0.05738744802646489","0.46390755831874936","0.07479594279855374","-0.04441772245028624","0.2501082337360627","0.36148692393160003","-0.5987705717399755","0.1677803296537257","1.0532959801303912"
"-0.10723260490243701","0.06612241700901227","-0.02665337413958595","0.05836446203524523","-0.006952691662441607","-0.2692843934417858","-0.5308664293277213","0.16179085991057857","1.034517359716463"
"-0.039912277130214294","-0.1123001496772984","0.017721873067837048","-0.08045440270654497","-0.3417780609523946","0.3180942451018661","-0.4277145478299105","0.18549807825515002","0.9931357523291126"
"-0.016612049268546817","0.03754730110222649","-0.01025423930901516","-0.007270895630924919","-0.28199350051683736","0.023274240759191607","-0.36624694907675787","0.1734135974517958","0.9720036755708802"
"0.11046277195618857","-0.05175435065546502","-0.026802072295596415","-0.021199090360836517","-0.19800552696339416","0.004786241468089099","-0.24751918920042823","0.16103887802652703","0.9284974200949216"
"0.11727375591872724","-0.03903317855403261","5.0749427726739774e-05","-0.04563656344316442","-0.03339694881298615","-0.007202806221327482","-0.12937656965674432","0.1848912156820558","0.8763291377961765"
"0.08303108633607419","0.016380317752590703","0.003735365818536052","-0.08646966220378269","-0.017554518956974494","-0.044040472438135705","-0.14227752080031175","0.16316289703235676","0.8928687059936482"
"0.10779768804209372","-0.011133228962747049","0.0026339668379752046","0.038487533805416516","0.012994003313303323","-0.09908219256444246","-0.2041630769339256","0.1406166331754438","0.9206525656139073"
"0.09207176731026781","-0.05345784720534247","-0.020381203308977865","-0.010023493010654805","0.07332734676358728","0.005230118479160594","-0.23197117464727382","0.15296496727144762","0.9263564285594783"
"-0.01176906802291924","-0.06369336854832564","-0.12371609547541691","0.10713639399276204","0.4366896721490348","-0.15034525492017342","-0.3583057588479962","0.14192270697405956","0.9809108540961985"
"-0.24185400406021984","-0.15057688617911794","-0.006465327683781841","-0.04336832538690769","0.39645834865336954","-0.01460747078382195","-0.48352579003415547","0.2248517968538459","0.9972543009316449"
"-0.04385020820270271","0.40456563277332325","0.07003140604971843","-0.10062496956419979","0.027366470118093227","0.24739912573328962","-0.5671172661263847","0.16764840300740086","1.0423785576443128"
"-0.15940778456457586","0.012751870101351731","-0.061849401566396275","0.12669946585317662","-0.17835177154718934","-0.24763659169898788","-0.5529345790160698","0.16179085991057857","1.0449608222443134"
"-0.026991241679653232","-0.046655286897325746","-0.017252346276257668","-0.04883385486287095","-0.26720292471652735","0.1974587149414404","-0.4255411694515125","0.17628959834167704","0.9936097122873406"
"0.006691067051120044","0.013635299257248544","-0.0697118165654496","-0.06846528194484505","-0.41608993451220455","-0.019432843452566913","-0.3281292359787014","0.1613027313191767","0.9627859715556883"
"0.12367554166468704","-0.09430125442347127","-0.006031005153101277","0.02670444145799457","-0.2324115654270279","0.21794889320539138","-0.13235799897070083","0.14708103884536033","0.8884232884544069"
"0.0833728871993342","-0.041269537134451","0.0009701996923914468","-0.019201384942019575","0.04383953374811487","-0.029942705585679085","-0.1299895738147543","0.1416588536814099","0.8944540203366865"
"0.10203848791906271","-0.003962027846467215","0.000612291491882927","-0.03491153290551589","0.04255193993248918","-0.01605340803475906","-0.17393082641390264","0.130563822725492","0.9112550836835257"
"0.1060049184438117","-0.0034334245573009728","-0.0024812497287847886","-0.03692656781712256","0.07717098183402382","-0.020023061544926602","-0.20878847194436212","0.11916536048302691","0.926274711325301"
"0.06637623751164759","-0.018711711174884786","-0.025445201622000924","-0.04251629199141228","0.1906491616999945","-0.020514748162986117","-0.26727464138355866","0.09781962910766989","0.9580136850797382"
"-0.21638743269901722","-0.22519834480301798","-0.049451692809023756","0.12056675090480845","0.3066618431472804","-0.3567007408381513","-0.40277642412906206","0.1663159438795201","0.992531044796201"
"-0.0827866220343487","0.13497691658113206","0.061157017488927205","-0.03525042076451519","0.3963626167711669","0.1536146357614643","-0.5637736070826955","0.14499659783342808","1.052299029873429"
"-0.08760071869998247","0.22342370391165947","-0.050711496630779083","-0.1335510058647007","-0.20825841154729838","-0.07403432689320735","-0.5656683472074527","0.11607827695902598","1.0603073188227976"
"-0.11606165818720934","-0.14116610645845348","-0.023456363785360954","0.12792215784445252","-0.4186028964200242","0.02170938621168532","-0.466556720387433","0.1644953561602375","1.0128622926594966"
"-0.03451086067137318","0.03628110458131149","-0.03312793968254161","-0.00022867113597538967","-0.10343439383244761","0.0828103066307324","-0.4029436070812465","0.161447850630134","0.9930703785417708"
"0.07088800890667955","0.00843174052781801","-0.030383219552848444","-0.05341076645856046","-0.38399582100376484","-0.04900344940719644","-0.24509503639375363","0.11448196453849556","0.952195418006319"
"0.1152710917058236","-0.06659554498756808","-0.02917711228743023","0.043297430804168056","-0.1080367040693402","0.12041729494983511","-0.16247879418926722","0.10954790796594703","0.9149977330088429"
"0.0928168931921746","-0.0007547801043595277","0.012329912710724244","0.008321219231681288","0.044598208914570905","0.0204542020119796","-0.18039523389836834","0.13485143873104888","0.9138536917303617"
"0.100778831385533","-0.03310314086912386","0.028645611353755825","0.0703805397857292","0.0036271172991846684","-0.026581471794897126","-0.19850672038501802","0.1439675699920944","0.9163542390961849"
"0.07575024653896967","-0.03124695286020251","0.015559347523968188","-0.024789183617110435","0.11365200884440008","-0.013332143450207569","-0.23879781186147256","0.16161935527035629","0.9271245705607443"
"0.009897255430432123","-0.045894945754331666","-0.11435017689892443","0.017491890541050333","0.46619902483800285","-0.14875321927630847","-0.3686153742327044","0.1413026517363329","0.9872357680215165"
"-0.2616303131626434","-0.20330218183264195","-0.013945877557191635","0.08633811439627898","0.08704572548322755","-0.22752258039357207","-0.5049530717391303","0.21791245525716002","1.0052625898810137"
"-0.04854876654836129","0.41146271636551","0.001701712009876263","0.03467408264207488","0.14592322633491467","0.1894597065844604","-0.612145207914732","0.18737143663296255","1.051498200978492"
"-0.14783469618039227","-0.01250641337673363","-0.07205794302694805","0.09461679820177626","-0.22904419647054958","-0.07315094126155058","-0.5620181860847586","0.18314978395056802","1.0421170624949458"
"-0.046652012462101586","-0.02946451378728196","-0.028982978583749902","-0.06804263487069534","-0.28804854206615516","0.07954614818408853","-0.44621612787165715","0.1755903871161555","1.0058346105202545"
"0.008861261827987738","0.013285666977560284","-0.05358839289914821","-0.038404388452247376","-0.34867075647098567","-0.07142785390309919","-0.3493614709061275","0.15015492970472882","0.9772008916645523"
"0.09208283973259876","-0.04585028090576781","-0.02219036420710519","-0.028884720413085017","-0.2906811688267282","0.14972434134512966","-0.230661574855162","0.13586727390775002","0.935901001511379"
"0.11171058581192085","-0.04255546928612678","-0.010352958362588774","-0.005970413472015076","-0.03459120404346425","0.08348498027249224","-0.1654880873285874","0.1278065558173031","0.9127750242392222"
"0.10577287898452815","-0.009614624111575812","-0.016562552052542454","0.02524298756606006","0.0415898345163525","0.015795313558431487","-0.1686366995947281","0.128650886353782","0.9144420558164376"
"0.09393925168880045","-0.02780775952078529","0.037528467448430976","0.028163969850730226","0.06005412129618934","-0.018839470411522733","-0.1927667723600181","0.13595962256017743","0.9218456372328949"
"0.05655548031375469","-0.03579238023963161","0.00835921758976813","-0.044467785429456584","0.175770033908647","-0.12188276401888039","-0.2639867099905976","0.1406957891632387","0.9434189870556843"
"-0.053372491407326327","-0.05220930888037131","-0.13673337988283302","0.07205764958793599","0.5353892426999708","-0.16787706207151556","-0.41899317049095464","0.1479253693818392","1.0011113543848105"
"-0.1467852231072841","-0.03555139780086846","0.1011258426732401","-0.11008879812659522","0.2644440830959101","0.19754122898395782","-0.49729051976400923","0.1937039156565542","1.0166049419848138"
"-0.07068398301694537","0.3449120920053586","-0.08200213221014789","-0.1386054412617074","-0.19658151521562967","0.034420674461489414","-0.5456899844214099","0.14405991864452178","1.0485400371012763"
"-0.12072170375954284","-0.10635868610089656","-0.08361302890026125","0.1440867236188797","-0.5110080957161357","-0.02027351593280292","-0.4487795998051521","0.15382249047255897","1.0101983108253187"
"-0.013935411522454451","-0.00405852469371332","-0.009145818471087152","0.014743240434678109","-0.1232102073984608","0.006881127394589451","-0.34638004159217145","0.1524504533507808","0.9747984049797416"
"0.06913760335905512","-0.007409427053411283","-0.0188054159057003","-0.0037631174654022582","-0.2604059610801389","0.036294228603354885","-0.25442941789071927","0.15189636143621651","0.939202377772139"
"0.11910503829033434","-0.06026040751335919","-0.0240656131745705","-0.0007060023873727097","-0.14736814787230046","0.08481248560358084","-0.15632088878380637","0.14615755232108654","0.90427643188479"
"0.09553445075992485","-0.012621711009072896","0.0015643727407832644","-0.01814717413064389","0.07754194287755911","-0.0564467014189858","-0.16654691269242244","0.13547149396877556","0.9091140921480821"
"0.09334509587832793","0.006798565146493428","0.0398539413882613","0.026241358900668817","0.03828229798625082","-0.02339011985635685","-0.19463364865941155","0.13751635698681036","0.9219927282544139"
"0.07249495437366811","-0.04134536350526872","0.03143390830416872","0.021098350540514555","0.10815939210302282","-0.05223848525059885","-0.26030868504253957","0.16128953865454423","0.9358356277240373"
"-0.012125311176176129","-0.054745856791835176","-0.1367953374478374","0.07401106852517916","0.44157199814137016","-0.1270665873958553","-0.3729064033387721","0.16235814448977529","0.9814665312886038"
"-0.2175235595121068","-0.1372813033508061","-0.0018094231989208398","-0.07784823954088838","0.214187238236572","-0.0418198739409765","-0.5057889865000526","0.20602586442329307","1.0137775256822814"
"-0.07596023296248","0.32466748971443693","-0.03092431562055319","-0.1316640166498182","0.11416656771123936","0.24334623011552367","-0.6090801871246837","0.15045836099127588","1.061745542144317"
"-0.10329467382994856","0.030767592577195926","0.03408982259068897","0.15929816728987137","-0.3821290493008131","-0.13394680241164364","-0.5047301611362176","0.15795179450252606","1.0292384263886138"
"-0.05137945538775393","-0.062035575564420506","0.01788440841336515","-0.0011730322180561303","-0.1853306257597628","0.1655282073708135","-0.4359065124869489","0.1936379523333918","0.9915014076455678"
"0.01762291775944121","-0.0016777843935187372","-0.0857526301450785","-0.11110931270199087","-0.31511673175895555","0.05449828251285343","-0.34551626300588517","0.1754584604698306","0.9662671257316386"
"0.091705703399813","-0.050465302351563844","-0.04444758680883826","-0.07601612705317336","-0.3415147982763373","0.11718953975724304","-0.2099308887842893","0.1424504135593589","0.9283176421797318"
"0.09995696880277599","-0.05305170869863388","0.03483537862290811","0.030250248232694718","0.05383633554712698","0.014205947486530328","-0.1679958316113543","0.13614431986503214","0.9123174077278295"
"0.09284077111163613","0.01117260415352632","0.024892222065791673","-0.03499529212066628","0.02984592586714196","-0.01011797880579484","-0.18276365905431488","0.13602558588333985","0.918773069227831"
"0.10277928111397044","0.0040749338425914985","0.017191309786183037","0.02757091609748144","0.025444652582874958","-0.041373327357941206","-0.2221631081191187","0.12568253681147337","0.9306547550772005"
"0.06666412049225248","-0.022067807121625052","-0.015579492021139937","-0.12317256518284692","0.1656966466038728","-0.00789009965782528","-0.26011363826499095","0.11946879176957402","0.9487469507240399"
"-0.07017368877038821","-0.10705462676456598","-0.2735584011862957","0.24331732483211446","0.6615877964136191","-0.19047134841965999","-0.39547610188367416","0.13117068529858616","1.0015199405556967"
"-0.10540324816949617","-0.04197067138516275","0.10305478819704252","-0.09305101846548514","0.33731997842268024","0.2020746475552074","-0.5070985862921642","0.17622363501851462","1.0233384420810177"
"-0.07169494331672846","0.4323824849719319","-0.04700849949568514","-0.059176673809545846","-0.23247379115045963","0.27288140356954277","-0.5758943711160688","0.13014165745725254","1.055894588177227"
"-0.16887229860921182","-0.10445783324341133","-0.013138363959968136","0.2655472130829497","-0.46546365275822316","-0.19269437380042267","-0.523120285876508","0.14197547763258953","1.03879934278735"
"-0.027540048699535486","0.008215479563376251","0.02190235650389792","0.006730564343503288","0.00019058205781490723","0.16025216241690737","-0.4236185655013913","0.14230529424840158","1.007240146948103"
"0.03877605850823602","0.0036692315971944655","-0.05409851018435079","-0.1231148002068811","-0.4580922978286189","0.018901967259211262","-0.2821817879533394","0.1319754378411676","0.9619361123202452"
"0.09558637560656037","-0.05558098558823851","-0.05852847608216256","-0.019342909133135765","-0.18611562719382457","0.05551029297549319","-0.19404850832676582","0.11663236887359027","0.9250979831531488"
"0.10830798228865089","-0.062325377721381366","0.03385231859150559","0.015866769217212744","0.07055830207087553","0.04461358559599067","-0.1606397817152382","0.11581442366637633","0.9161908046278304"
"0.09325642021774697","0.007024590054574729","-0.00026440805292877214","0.032704296961641406","0.05996556930515187","-0.016045399318867663","-0.2159773388882939","0.11438961588606819","0.9329755245278342"
"0.10388931552313228","-0.015194614029832923","-0.01558155727330675","0.0327976836727861","0.06848570682118806","-0.05867458056695536","-0.24417553015673912","0.13196224517653513","0.936816234534164"
"0.038417889716312874","-0.0008684157888452558","-0.031917701912789774","-0.1368243545027622","0.41593978668160964","-0.014591938728759853","-0.3101849324442362","0.1216983520924636","0.9698953709291076"
"-0.21167924616002734","-0.25515495486305806","-0.06024263538061652","0.3050103191635793","0.21546047226986725","-0.36859247049506944","-0.46669603951425337","0.1867777667245008","1.007795824140508"
"-0.02997598161234618","0.16876639387839637","-0.020835558785676507","-0.1453254334657278","0.6510812223418777","0.21596127553416364","-0.5892132796400972","0.1647196314589897","1.0489813101658332"
"-0.08579061835370418","0.17763704054666066","-0.053514043821142984","-0.12625336390102243","-0.30140313963342535","-0.20793034906289856","-0.5789593919061171","0.09874311563194368","1.0689366587519136"
"-0.09781623182445734","-0.14736724938697082","0.005560842208781189","0.0419312891225771","-0.4401425699156213","0.1698480601849593","-0.45449168400478773","0.1635190989774338","1.01116257418861"
"-0.023255502667121425","0.036357969669537665","-0.02099251795035422","-0.019921521642393105","-0.22053363214273364","0.032403934187020235","-0.35752557173780186","0.15445573837491816","0.9782468722620208"
"0.09385721948161806","-0.013864017029593282","-0.03753931831085207","-0.09172627501666968","-0.41972774603590535","0.01221396142481637","-0.21901449585297833","0.1251416375615416","0.9348550209139105"
"0.11865155038443162","-0.06735796356537908","-0.04664708036649304","-0.031331067145236265","-0.12345432369807756","0.13522128493089644","-0.13826512994788492","0.09648716997978915","0.9101110424050444"
"0.09321973680115483","-0.0182048170795554","0.006079220502651005","0.00760011978170833","0.0633568712321809","-0.017158853516131754","-0.15286577443866084","0.08628924021888","0.9154880364139063"
"0.09754568406489333","-0.02048584050853764","0.011315460846386181","0.08382148694336934","0.04305213901699804","-0.02571750123206797","-0.17551906445965504","0.10491728267994559","0.9224503447658063"
"0.09821830965101569","-0.03465602339477434","-0.051686295653514354","0.09320540728901211","0.05962093452922233","-0.040155031789007964","-0.20299279626863445","0.13241079577403955","0.925212387280997"
"0.012876218447126305","-0.06928790051030122","-0.1461509297634958","0.10469101001021021","0.6143441125466095","-0.1812346294249191","-0.3349558731929","0.14068259649860623","0.974634970511387"
"-0.20914703131390405","-0.13152680890792742","0.012565557982957495","0.04781946567269006","0.2897172999974107","0.034204681820782123","-0.5265475363962895","0.2245615582319313","1.0090542695468376"
"-0.09728668119123762","0.26507627199098005","0.07351961695946392","-0.18370063249900165","0.17481510838367556","0.10105561756148963","-0.6315105665427652","0.2116591322213632","1.0442743974772246"
"-0.07059732927696398","0.1067882035502941","-0.0028905827082469286","-0.049363367142557374","-0.04351102216769652","-0.10402818134827903","-0.5847550675818449","0.1562103627710384","1.0501253514443143"
"-0.08883312744638472","-0.09815697344368171","-0.07284686935467023","-0.0003509403351029808","-0.3345742368166449","0.17198129087239417","-0.527885000013765","0.1973714764243844","1.018991085222789"
"-0.015986216702014434","0.049338821123085526","-0.09873067476132519","-0.11169658995764307","-0.2745982126166824","0.07311005286773203","-0.4474142723623125","0.16515498939186163","1.0058346105202545"
"0.0689748868917567","-0.01686071675300575","-0.026884682382268894","-0.021210643356029676","-0.4845621632576526","0.03181905523858814","-0.30611681394108103","0.1360387785479723","0.9611843137658147"
"0.1268056673166821","-0.0805361713265347","0.01159111005309058","0.08434811097425747","0.02856551194268147","0.13809714200098788","-0.17869554055115952","0.1683212289036575","0.90226618792403"
"0.08129512307844666","0.006884155460950684","0.025685072372630804","-0.04314881847823769","0.0002776980706193212","0.07635479624554826","-0.18733332641402334","0.1706959085375044","0.9048647959708661"
"0.10281115043389694","-0.021373943892772532","0.01597590888601417","-0.02022478776621351","-0.010066131801377413","-0.014954272450755337","-0.20221260915844017","0.134363310139647","0.9199661408468186"
"0.09255991671216306","-0.05526417677865765","-0.05339012869113427","-0.009626840175689707","0.08720368308886195","-0.009833548047470185","-0.22968634096741944","0.14218656026670923","0.9275168132847947"
"0.014594850956757577","-0.07931983324122586","-0.1381191640867639","0.12262703504758835","0.45909093258445577","-0.17560183258130543","-0.3585286694509089","0.12190943472658332","0.9837546138455663"
"-0.2190640704451096","-0.11756644693820001","0.042677141100293324","-0.0626714548554762","0.5092305058880957","0.1515032470264605","-0.5168787889949549","0.2174902899889206","1.0076650765658246"
"-0.0642716062583212","0.45158836985439177","0.04208028322408465","-0.058455574359572875","-0.019311916984509705","0.2986063697661412","-0.6441328794326919","0.17482521256747147","1.05965358094938"
"-0.13041729444412925","0.043021341844820496","-0.016818643321227147","0.12486061411826559","-0.20659028349991712","-0.20996165063898847","-0.5896033731951943","0.16907321078770904","1.0466932276088705"
"-0.03858358645049937","-0.09297792844509085","0.015250592325029792","-0.09124875121535247","-0.24425838584960627","0.18181259634998098","-0.4606774532356129","0.2027276982651724","0.9940836722455685"
"0.0015120618582312242","0.025164750875952654","-0.08094678835290695","-0.14789597489620548","-0.32536004315463946","-0.059985097712819804","-0.3810426403450825","0.15935021695356927","0.9839834221012626"
"0.09576649984740174","-0.03269284749278142","-0.058090642622798415","-0.0611069867564027","-0.392731355254757","0.01746816442629142","-0.20115378379460527","0.10975899060006675","0.9348877078075813"
"0.12416850516324794","-0.05003838949668603","-0.02691359591260426","0.00032279183457802903","0.006733616876660781","0.09149126928028263","-0.13701125780650145","0.09630247267493436","0.9112223967898547"
"0.08416047341383187","-0.004921179501440896","0.023719984935909173","0.010162092740751106","0.007159145093051577","0.021610126672304105","-0.1766893451249462","0.10615739315539895","0.9191489685050463"
"0.09696674079988422","-0.01938064518593422","0.00250592120363286","0.08953925681438324","0.04968157185953181","-0.019118319337559447","-0.19137358109181427","0.12624982139067012","0.9190672512708691"
"0.07831327160375309","-0.045489845965031535","-0.01111648208865918","0.01833718468934974","0.09858859717981253","0.04949647540613746","-0.23007643452251658","0.14721296549168517","0.9284810766480863"
"-0.06360726091846372","-0.13069583498115794","-0.17208636647432107","0.13782885122258567","0.5717194919958779","-0.29627133911217957","-0.36451939190418525","0.16065629075218504","0.9829701283974648"
"-0.1834108705394259","-0.038569910589858626","-0.01902226738321556","-0.02412199814470554","0.641747363827119","0.08933134287320975","-0.5649160239226226","0.18908648303518524","1.035203784483552"
"-0.03763039531070388","0.3801869351967234","0.01519875449564281","-0.017929592721172744","-0.3446021514773729","0.19559001456678185","-0.6030616008460432","0.16113122667895444","1.055959961964569"
"-0.1620555377306744","-0.08197791108947977","-0.01755387309261222","0.2032284315118555","-0.3686787198513403","-0.1487289504402739","-0.5141481341092754","0.18855877644988592","1.0201024396075993"
"-0.02087733891429834","-0.01503569026633826","-0.012696399996270369","-0.07135353074313461","-0.0956489985123168","0.059932074900983984","-0.4058693087444745","0.1955904666989993","0.9802898031164518"
"0.06025655783029393","0.05110879558710454","-0.08824332425825378","-0.14136853261207108","-0.3666204843839832","-0.04695030587867546","-0.2890362889929021","0.13821556821233197","0.9588472008683457"
"0.12441017281586275","-0.06366843933052256","-0.08746059368703203","-0.05864427328106113","-0.4416503470603131","0.17398832361244954","-0.15894008836802956","0.10227874975344904","0.9121866601531461"
"0.08820932127349651","-0.003733925503568989","0.04300551619481643","-0.030405864780184186","0.09939274499031482","0.053612469997593205","-0.15685030146572373","0.09355839843137796","0.9178578362050461"
"0.08912505874123336","-0.05918741243041809","0.025306098600020803","0.04723218841703786","0.019159854516270742","0.016188226013830475","-0.16055619023914605","0.08274041343274215","0.9215024248493504"
"0.09564881444031366","-0.024759123926949733","-0.02441670604292854","0.09470344566572496","0.07095319608496146","-0.031721611267009904","-0.1954138357696054","0.11330781738620459","0.9281868946050483"
"0.053146137055152844","-0.0718649584006951","-0.07527354065067435","0.06380881102002103","0.2101593192928953","-0.12972402494163598","-0.27223440229836426","0.13019442811578247","0.9491391934480906"
"-0.20060682382906966","-0.09771447982767696","-0.047888296918747054","-0.05061782987061447","0.7208458314970617","-0.13142527034765633","-0.4781759355642527","0.1849703716698507","1.0104434625278504"
"-0.09328135276543031","0.2735418188699442","-0.02673391897409162","0.01783655489764622","0.1841106741455532","0.3296219422182664","-0.6204207640478628","0.15143461817407963","1.063249139253178"
"-0.14377159859459734","0.07635274476495313","-0.0032371320218379847","0.07881326352713526","-0.375667147252134","-0.17491987828873523","-0.534460862799687","0.16384891559324588","1.0359228961443117"
