"AccX","AccY","AccZ","GyroX","GyroY","GyroZ","MagX","MagY","MagZ"
"-0.07890646012184788","-0.12819252602676484","-0.06310300963165116","0.08772351106985854","-0.0025662568199160143","-0.018529800063722172","-0.08911334200565402","-0.5034888321762596","-0.7402338755915074"
"-0.057175627773177","-0.07927412967525355","-0.09279720528607427","-0.10033614468437084","-0.12737933086838638","-0.046015955691346186","-0.062252614354684425","-0.4986207389268735","-0.733075445877582"
"-0.07075138037026425","0.06723903822310877","0.04002742257027351","-0.020834208262652604","-0.24822407906985125","0.04001706805105129","-0.0686612941884219","-0.4859293955504252","-0.7586202532813849"
"0.02215105708313634","0.03389101582444074","0.009238126954398318","0.02635496335340154","-0.31016260685496816","0.06545808886604573","-0.10454990125735232","-0.4896629196414178","-0.7898525801839231"
"0.08759802727889433","0.051502469484911585","-0.04577760920426519","0.03195527777328498","-0.28989138079855625","0.13669440327819224","-0.15757476092518982","-0.5144387438212202","-0.8118345161775987"
"0.13251422314279065","0.048069508449945134","-0.025705423395019234","-0.07049475810044317","-0.07022979049045718","0.02511891498617599","-0.2074231445015224","-0.5171960107294091","-0.844537753295327"
"0.08306478501273364","0.017653785295364943","0.0007415762775253576","0.06311851955722983","0.0921266951311334","-0.027333805711967456","-0.18694323285892633","-0.5208899568265043","-0.8278674375231716"
"0.09285983493443205","0.01836219056793593","0.01727763732675578","-0.07800227947679714","0.09075294262152532","-0.07147881845877169","-0.17677293660103835","-0.5041352727432513","-0.8287009533117795"
"0.04817510083821941","0.013986593484790347","0.04371802819236657","0.07778504695494419","0.25345884961315557","-0.032575874295425244","-0.15425896570686468","-0.5063648330661409","-0.8046924299105086"
"-0.2455223457194328","0.1879515044126869","-0.22622282152296438","0.14039939265306337","0.7028721706135135","-0.13424773597847178","-0.05720926196378635","-0.5219057920032054","-0.7157023618915023"
"-0.051543134674385496","-0.23450525278283627","0.1656277983471129","-0.16194249155188703","-0.13770401436394258","-0.026569337376879863","-0.05492442828393227","-0.488304075184272","-0.7391225212066971"
"0.0017739487168417069","-0.16437105336349148","-0.03258477836267005","0.15458069425266507","-0.040861642327738076","-0.07747322095929982","-0.09226195427179455","-0.4795441458683035","-0.7740811539877174"
"-0.12152084380603807","0.08077144862054988","-0.09002770213037936","-0.16492701531011955","-0.029459975157402014","-0.09655337984964477","-0.03260550416730718","-0.48443862444695457","-0.7368017517560637"
"-0.025219654106699994","0.01876832907464452","0.028458086457009295","0.03625973123233584","-0.3191853367525683","-0.07082355988583947","-0.03433306133987979","-0.4574332399442625","-0.7712700811320204"
"0.06168730735932029","0.02583783975663594","-0.045135315780386646","-0.004990815754595203","-0.36248008047871844","0.2735609309785095","-0.10165206341948825","-0.4809161829900817","-0.8045943692294959"
"0.11724294570006719","0.07688560679549407","-0.05292338170143475","-0.0505610276442481","-0.27950447157956837","0.05332852461598925","-0.18619090957409629","-0.4926312691837264","-0.8536737400763417"
"0.10600588126314482","-0.025884054880313926","0.005078605827830584","0.012798486243829808","0.08184269768551333","-0.09659463687090346","-0.1895067047924213","-0.4697683813756338","-0.8795781033105243"
"0.09359976159193996","0.04391775496832307","0.017409193889781707","-0.008313842271987278","0.044868651481793406","0.01420424866800791","-0.18906088358659626","-0.4773145855454139","-0.8658169210750786"
"0.08494517117033018","0.016329420599576074","0.004544531617492999","0.07685791909069323","0.0987896341324381","-0.052129275488443476","-0.1919308575990959","-0.4857578909102029","-0.8555695799092534"
"-0.02315922073380875","0.17641135400467567","-0.023549300132867493","0.024451607395328725","0.5181814368740437","0.1461107116595886","-0.15559642932434029","-0.5081194574622611","-0.8081572406396231"
"-0.15843533703811785","-0.05887475849047107","-0.0707093333620198","-0.02845437134213987","0.13463165082911166","-0.07050806501739063","-0.06127738046694185","-0.5179347999488282","-0.7171078983193506"
"-0.011162491843049377","-0.3577906219931744","0.04165484127772137","0.09840425512593329","-0.326245563065014","-0.10649874885659384","-0.09064585240067806","-0.5079875308159362","-0.7368344386497346"
"-0.16442407329016626","0.06896123168633853","-0.11803871726885069","-0.11654884793876952","0.34816161408213075","0.2309497086690874","-0.07668607589327589","-0.5225126545762997","-0.7196738194725159"
"-0.045140386109092566","-0.07045853502963774","-0.036979634973646015","-0.11631778803490636","0.009423443436849845","-0.15762833261413486","-0.05617830042531557","-0.4865890287820493","-0.7449571317269515"
"-0.01719936906175414","0.04646053518423771","-0.009684849286625087","0.0412284819149933","-0.46271136114489686","0.03362708352316039","-0.07116903847118881","-0.4900059289218623","-0.7633925397573351"
"0.07038060311812175","0.04879972678809382","-0.017692244987788628","-0.007036851203303524","-0.3662136238846219","0.1517993268260817","-0.14238897610176818","-0.5045706306761232","-0.8101511411535476"
"0.11541455178645947","0.07278371174947817","-0.032229554989978385","-0.039421052029245306","-0.2538004612081558","0.051794734178607145","-0.1811754210085625","-0.5021959510422763","-0.8468585227459605"
"0.08578860090614922","-0.006058159576743248","0.020124793963922825","-0.028257007674256752","0.18083185718011233","-0.07907739102118203","-0.16741069127870858","-0.48451778043474947","-0.8508136368801386"
"0.08800154486140775","0.015037256143449517","0.03241696833557124","-0.005406242206749185","0.07000305715410013","0.03245975250989966","-0.17440451144509195","-0.4824465320874497","-0.8563867522510258"
"0.07505605379978528","0.07234225685088189","0.021662167676897683","0.03939733217687773","0.13320285248723707","-0.021198643962439083","-0.186497411653101","-0.4933304804092479","-0.8418737714611493"
"-0.12980109007092816","0.09928347027415717","-0.018371712950669777","0.11805397445029654","0.6832471347619695","-0.21231572773433757","-0.08752510395990178","-0.4884755798244943","-0.7711393335573369"
"-0.08586764390035431","-0.11329731838942178","0.022411028112583723","-0.018714233644708072","-0.049664188896272075","0.0546948600847331","-0.028509521838787723","-0.4874069739892632","-0.7238087115218838"
"-0.05235190291421198","-0.16602261404294583","0.050622166186019134","0.003986631710168271","-0.15894452572765638","-0.10609103241121381","-0.05286250520699072","-0.47182643705830113","-0.7513474194396111"
"-0.11687042642703581","0.02564359960125357","-0.09389178893448465","-0.022816509687878666","0.03710240253810311","0.07092100385741772","-0.06501113306572781","-0.48385814720312537","-0.749288145138345"
"-0.03520409059122445","0.021314225442784537","-0.01722549799808911","-0.11578827575521994","-0.12202791865325803","-0.021064194610807805","-0.05330832641281577","-0.4564174047675613","-0.7726592741130334"
"0.037428111441858564","0.02394218048619304","-0.007591922740777793","-0.029635665100640304","-0.2622966657536413","0.1967719068816633","-0.08250961539436796","-0.44974191646352507","-0.8078140282560787"
"0.09978510555181286","0.03298421552685354","-0.031576935305265785","0.01580322774365037","-0.32028625339789885","0.18392641196858828","-0.15554070167361222","-0.47086337254012994","-0.8451751477219096"
"0.1067174047503255","-0.0680217039893862","0.07710076421671595","0.04889967072325036","-0.1747929388263057","0.002084149264004885","-0.19076057693380474","-0.4815890088863383","-0.8589853602978618"
"0.1148147153419215","0.04708168819449791","-0.03638277709743734","0.044643354744170985","-0.06886561116906936","0.10395817035121904","-0.25598979211110773","-0.5094914945840393","-0.8703603992953325"
"0.10597699668315103","0.09589829023997995","-0.0777766262768505","0.037419844499648816","0.19185059682163777","0.0942409284029945","-0.26267711019848594","-0.5299401247643875","-0.8543928517371013"
"0.028929305188348693","0.04010670079667652","-0.08066797931038734","0.09090347299677533","0.43594775006196423","-0.19524745535125487","-0.2317761278697251","-0.5420641835616391","-0.8137957297978523"
"-0.31542302930443517","0.1352054344109937","0.08047125575295315","0.23690541249991168","0.4805588071684008","-0.2844281471273305","-0.12714746362761814","-0.5405470271289036","-0.7293818268927712"
"0.010841781196229475","-0.3842155928644442","0.05722684261548395","0.019888174294031228","-0.18680250344862862","-0.10480721098498733","-0.14054996362773914","-0.5255997381003007","-0.7439601814699893"
"-0.20469880599485843","0.0732677540618214","-0.09917470397718976","-0.09185528346299328","0.37762310082999745","0.1545635472504143","-0.1231629366005554","-0.5322752264043369","-0.7234981860320103"
"-0.044408643415916244","-0.11675624735959976","-0.09913959469035397","-0.08872827276404512","-0.09060632161729201","-0.2061296014291367","-0.07696471414691694","-0.49664183923200106","-0.7390734908661909"
"-0.023390297373759163","0.09071820652398066","0.04821614741168313","-0.012545896961161016","-0.41056141831500126","0.07877682608179404","-0.11474806134060427","-0.49219591125085443","-0.7826124332358204"
"0.06182402770462428","0.02262612552967187","0.0010550815564474218","0.04101763975271817","-0.30559140947979146","0.1767549709203856","-0.18772341996912048","-0.5131854406811344","-0.8244680005813989"
"0.12327019472544068","0.10052473757726907","-0.09393309397782088","0.020636230732788228","-0.29199748220701466","0.09316824585026842","-0.2501662526100155","-0.5371301269890905","-0.8492936963244421"
"0.09485444034951743","0.020800060325595917","0.010385333228019055","0.06381458751761761","0.1467154076601416","-0.10574156117231662","-0.22929624741232243","-0.5356393558856201","-0.835859383025705"
"0.09180468122725843","0.028946720960162285","0.019843506618803023","-0.014701493314284456","0.1122710764436268","-0.06911988759621568","-0.2111290332749447","-0.5321037217641146","-0.8218530490877274"
"0.09566029124676453","-0.04036585298908918","0.01737036714904564","-0.018160652625035908","0.11406365593787152","-0.13411425738028188","-0.1915407640439989","-0.512327917480023","-0.8183555514649418"
"-0.04007595641684585","0.06655140729870701","-0.12693169309914323","0.057542273877332135","0.499681250638381","-0.15181594638386572","-0.151110353440724","-0.511259311644792","-0.7839852827699978"
"-0.19656298262993735","0.03457241444439173","-0.0564384408893488","-0.08003849487959129","0.1687385271608621","0.18911266222916664","-0.0808099220471593","-0.5235284897530008","-0.7187095561092246"
"-0.04383095181604019","-0.31254409168057584","0.09469258217362068","0.06156656720294891","-0.2505455772132656","-0.2264741666768805","-0.08877897610128507","-0.5041352727432513","-0.7357230842649244"
"-0.11610017096053442","0.033616794428606815","-0.14222282014221937","-0.016507611562814852","0.179989416616729","0.2514034836789865","-0.10978830042579897","-0.5398478159033819","-0.7170915548725153"
"-0.03626319185766388","-0.027162716010130476","-0.009417605656239614","-0.11806999230586869","-0.07067733703975458","-0.11707996136764752","-0.07624025468745084","-0.5108371463765525","-0.740724178996571"
"0.016349107781714525","0.029406872772110893","-0.056238111429168035","0.07500751436058906","-0.42489726767484864","0.04275701963934937","-0.09518765593502257","-0.5131854406811344","-0.7654845009522724"
"0.09343396410277553","0.06299172273990822","-0.05143846539349691","-0.08557719332511121","-0.4496678921947853","0.17242298368822256","-0.18566149689217862","-0.5266287659416343","-0.823307615856082"
"0.1252728589383443","0.09163123912601864","-0.009530781474980914","-0.12416419727025965","-0.038360646905193745","0.0032869127778760335","-0.2227761122771287","-0.5137659179249637","-0.8591324513193809"
"0.07185179105913944","0.020139436053814175","0.01869274811145537","0.02171065928575194","0.07297074550238239","-0.11417255481071123","-0.18156551456365946","-0.49248614987276906","-0.8535429925016582"
"0.09170464429854656","0.021453413575518433","0.026983289884688837","-0.03450717807375535","0.15931850995212096","-0.059827350278595384","-0.16217229211026254","-0.48030932041698754","-0.8453222387434285"
"0.07418470230330558","-0.02780775952078529","-0.03378882037592145","0.08652007407057122","0.22143653501636792","-0.09088660663558276","-0.15473265073805384","-0.4738976854056009","-0.8348297458750719"
"-0.18406558768595205","0.18746330723070984","-0.12565123675571976","0.1507104408629571","0.8643000569777383","-0.22946651415993763","-0.06253125260832515","-0.4901378555681871","-0.7552044728927765"
"-0.07972485655500564","-0.12118118351964727","0.08126637783717579","-0.1805813237968489","0.06293325765343415","0.14946223791595675","-0.03686866944801065","-0.48490036770909145","-0.7375698937573296"
"0.01864158061388932","-0.29542602878912433","0.08464306512991343","0.11685053745100923","-0.3894764712598668","-0.2314929619688206","-0.07649102911572762","-0.46274988379115306","-0.7773498433548066"
"-0.21235321969321608","0.12156707483788944","-0.1124707974271255","-0.08918654157337372","0.22349955707783511","0.14727804267284939","-0.040713877348253324","-0.4932381317568206","-0.7303460902560623"
"-0.05677124365326377","0.05851796686166299","0.029336851253987807","-0.07683735246148703","-0.22719657114403832","-0.03999485747118008","-0.04188415801354447","-0.44759151212843035","-0.7811578664674655"
"0.029478112208230947","0.042335788355235666","-0.028117637925855667","0.013734278854475623","-0.34113187074752666","0.1804583952992544","-0.08014119023842142","-0.4474463928174731","-0.8113932431130417"
"0.09485020394445166","0.026426792527233813","-0.035339824753197274","0.015576981587784358","-0.3358426842558301","0.17158085507782447","-0.13993695946972948","-0.46686599515648763","-0.8402394267776047"
"0.11988395913083387","-0.04332515888579703","-0.007921743511817675","0.02206398838874269","-0.06682652207815282","0.004186073152955251","-0.17370791581098996","-0.4733831714849341","-0.8589690168510262"
"0.07651761354747169","-0.01080291682685618","0.07195622106918723","0.09529842491817259","-0.1067060309067233","0.031137100946017942","-0.19602683992761535","-0.49397692097623963","-0.8575961673168488"
"0.10205716661412537","0.06636028329555003","-0.04301636705723753","-0.16378134328679803","0.01051167560778851","0.06946244681174266","-0.2525068139405981","-0.48946502967193056","-0.8825526106345756"
"0.0938394073239552","0.08068731251046447","-0.1303331634178826","-0.037047874266650724","0.2996734157464867","0.15742969678609192","-0.2593055873294327","-0.4737525660946436","-0.8902994044345772"
"-0.09756589879784439","0.2083934630112163","-0.04712415361702661","0.00319679193879602","0.7598326405240924","-0.013445964291209497","-0.18332093556159634","-0.46947814275371924","-0.8403538309054528"
"-0.07514183652932224","-0.19190745186181538","0.01250649177098667","-0.16341549843901468","0.10608201025922526","0.020260536700424072","-0.1101226663301676","-0.46045436014510105","-0.7898689236307584"
"-0.020848454334304534","-0.21389709939895293","-0.09140522532564298","0.1468498149692434","-0.22096681890970069","-0.11711879150530276","-0.13676048337822466","-0.4652696827359572","-0.7991683448801277"
"-0.08790882088658303","-0.03346461452726858","-0.044945312581039946","-0.11845509214564064","-0.08910811766082048","-0.24506409507932805","-0.09064585240067806","-0.4534886332191502","-0.7831354235345545"
"-0.11113202320160039","0.017434615922179493","0.1180423231715973","0.007895491358813407","-0.25683994846809005","0.05372167975974857","-0.05230522869970925","-0.4195834851136696","-0.7907514697598728"
"0.039621413882721314","0.04947385438618557","0.006703339707461595","0.019655188890969205","-0.3547975969319555","0.0801892723390035","-0.11530533784788573","-0.42408218375334616","-0.8418410845674784"
"0.07615366783954979","0.04562125151820053","-0.0134068467416537","0.04770874946875563","-0.31633731325703934","0.1300859992259906","-0.17055930354484927","-0.450533476341474","-0.8638883943484957"
"0.13325559402929824","0.03768648923496038","-0.05121748341164803","-0.005489134947260095","-0.1627761943128176","-0.050966798242389644","-0.24033032225649675","-0.4608897180779729","-0.8988306836826805"
"0.07537667263771648","0.027162204452424815","-0.016810382312559893","0.06929455823757232","-0.0022012790190183967","-0.05708011803948694","-0.2331693191379289","-0.48662860677594677","-0.8796598205447017"
"0.1003544206234907","0.04133342605606997","0.00035083056756452495","-0.02445896050450599","0.11959695872918488","-0.01891858681699529","-0.22542317568671597","-0.4823409907703899","-0.8713083192117884"
"0.028916788537018047","0.09535919590498824","0.02225799292702295","-0.053522445412094326","0.4256805056957296","0.0745831712150278","-0.18644168400237293","-0.47261799693625006","-0.8479535336839356"
"-0.21114969552680762","0.08689364902602408","-0.14581429366030546","0.12694978074902838","0.4151499986534377","-0.14189241932934774","-0.08108856030080004","-0.4747684012713448","-0.7660728650383485"
"-0.039238303597025556","-0.25052227522131815","0.10204074938313781","0.0013273247666231356","0.009954037393958053","0.06474943885383756","-0.0771040332737373","-0.4733435934910366","-0.7580155457484734"
"-0.08421159464737628","-0.019723421930726636","-0.08897855402963886","0.03695098544472648","0.0796552241771827","0.014029755736919664","-0.10831151768150284","-0.4885019651537593","-0.7659257740168295"
"-0.0414239034832233","-0.042334222478124406","-0.06694024815758788","-0.15514547937991224","0.013754832447108914","-0.08382437534953546","-0.08412571726548446","-0.4715889690949165","-0.7696030495548049"
"-0.0423096972696999","0.00829774598212643","0.008529807418746803","0.038516416293399414","-0.3398634233083415","-0.07015859377849343","-0.06933002599715979","-0.4557050008774073","-0.7816808567661998"
"0.051786636156777865","0.017336976485784077","-0.06057307572730644","0.009765151080906179","-0.2915188227960014","0.12154822270904404","-0.12241061331572536","-0.4682512249428983","-0.8152993269067133"
"0.09305499841325685","0.08346484286069149","-0.0445260663911771","-0.02366084108657865","-0.3997676485966521","0.08594584024639325","-0.185800816018999","-0.4784227693745425","-0.8582172182965958"
"0.11113193139271166","0.02545351431550505","0.053534171741224074","0.005474079841287389","0.03761935470199744","-0.07758000383785173","-0.2192374064558907","-0.4628422324435804","-0.8892207369434377"
"0.08213855281426569","0.03714427874774329","0.02932631846793706","0.02377094342853182","0.10577088164206663","-0.018995519027224742","-0.19580392932470267","-0.46983434469879626","-0.8707526420193832"
"0.08916020164689249","0.0018297565513752724","-0.019569559207420748","0.0759250147288457","0.1319966307714836","-0.07189624243856554","-0.19332404886729973","-0.48195840349604785","-0.8519740216054552"
"-0.018200701168205973","0.12823564060021458","-0.039036626131790784","0.08157924312629722","0.5235424222773924","0.04869560381699808","-0.15456546778586952","-0.5047157499870805","-0.8029763679927868"
"-0.13665636372279064","-0.029142511390658786","-0.013119776690466831","-0.07786075528568095","0.07123321184040424","0.05789106579048028","-0.08735792100771746","-0.5178028733025033","-0.7272735222509985"
"-0.024170181033591847","-0.31974240332121645","-0.10774550046945962","0.14922780647983513","-0.21045067164973916","-0.12012570028998064","-0.08315048337774159","-0.5146366337907076","-0.720523678707959"
"-0.14976033484664578","0.07737588141228806","-0.08875963729995678","-0.12279709283906927","0.04395680530381312","0.08729033376270603","-0.07133622142337344","-0.5273807478256858","-0.7111425402244128"
"-0.05669421810661363","-0.05283565547767381","0.006027795723697386","-0.07127651077518021","-0.03140811896022602","-0.13594655450088866","-0.0612495166415776","-0.48852835048302423","-0.7414432906573306"
"-0.0067431511039975755","0.03719933077039177","0.044399561407414544","-0.030311515319440055","-0.3955554457797353","0.09188442442404196","-0.08861179314910077","-0.4811404582888339","-0.77784014675987"
"0.057688718668844875","0.03809886004611974","-0.030302674718342772","0.015982299169144325","-0.36659655141343256","0.09757303959053504","-0.15431469335759274","-0.49715635315266793","-0.8175874094636758"
"0.13007829022997996","0.08780356547583669","-0.10631841122219253","-0.023476955913087544","-0.2633018505167692","0.07573108715946093","-0.21606093036438606","-0.49934633548166","-0.8607014222155837"
"0.08307633884473115","0.022493169701388746","0.03358177055765322","0.01915744734806397","0.16537115820438375","-0.05097893266040691","-0.188642926206135","-0.4908766447876062","-0.8494571307927965"
"0.0844165833564436","0.011142896835644312","0.024832123227737445","-0.007600926193609472","0.09698030155880795","-0.026045130518534083","-0.1971971205929065","-0.49846242695128373","-0.8434427423573522"
"0.04943639416461546","0.02756314937209109","0.07349483393346218","-0.008416567654246443","0.26997259929311335","-0.03796355589509019","-0.18178842516657215","-0.49406926962866693","-0.8297305904624125"
"-0.1063949520826167","0.09699829197554105","-0.06973246908711772","0.09484400710724172","0.5381654672838477","-0.0356652971226205","-0.1149709719435168","-0.5027896209507381","-0.7686387861915136"
"-0.07304289038310592","-0.07472246999137366","0.08238367925942107","-0.11049315295835577","0.09004691999028075","0.16894283260087142","-0.08719073805553283","-0.5063384477368759","-0.7360989835421397"
"-0.04789404940183508","-0.2129103178609142","-0.023772347366883193","0.17672393503955167","-0.205106439325776","-0.1068700620479221","-0.0820080665378144","-0.5091220999743298","-0.729087644849733"
"-0.10413232664976883","0.007023239721943728","-0.10445968427206172","-0.09005879271045718","0.034622946789054386","0.07442785066440684","-0.10329602911596901","-0.53367364885538","-0.72037658768644"
"-0.05421977242047786","0.0018551012561417422","0.010200018151091013","-0.018448514755265436","-0.15078338276988015","-0.0757040228123828","-0.09217836279570239","-0.5101643204802958","-0.7428815139788498"
"0.020106028819575114","0.012286940189324204","0.016789618239738104","0.003308952267129597","-0.31492526799455023","0.062752113648196","-0.11062421518672116","-0.5155733129796138","-0.767413027678855"
"0.08038814726664126","0.026532741702896927","-0.04092013610792333","-0.005307656647767568","-0.39337754545962494","0.0878776395947416","-0.1634540280770098","-0.5282250783621647","-0.8031561459079766"
"0.13483172927762674","0.06507331242646579","-0.06825374853568032","-0.04701040712155082","-0.19065571170728543","-0.007367348929641575","-0.23105166841025931","-0.531021923264251","-0.8479371902371"
"0.07947154326150457","0.05263986504717732","0.027008485961123943","0.020364735345749004","0.1563436417126735","-0.08023744138363241","-0.23172040021899704","-0.5263781053136171","-0.8498984038573535"
"0.0843231898811303","0.033935680673004606","0.04027525283029095","0.0036656509937183575","0.04974379758296353","-0.07551229900771003","-0.20597422558259051","-0.5206788741923846","-0.8363333429839329"
"0.04364599869519115","0.08543113491490979","0.031590867468846436","-0.007882530451442703","0.3292545673471067","-0.0049496874838820155","-0.1918751299483677","-0.5183701578817002","-0.8204965430003853"
"-0.14306874048141482","0.07739769447786575","-0.08552545240672918","0.14245967679584326","0.5810294175400859","0.022823083097309755","-0.10131769751511963","-0.5303754826972594","-0.7347097905611266"
"-0.06778589682423385","-0.12483746879743302","0.06691287527783228","0.007061461380827327","0.12138475162931944","0.15394469193153384","-0.10588736487482808","-0.5537660770906512","-0.7008625121649169"
"0.0009863625023440097","-0.19028705270461488","-0.011488227478685342","0.04164727799074529","-0.232234461444953","-0.135492727267043","-0.15512274429315112","-0.5556130501391988","-0.7243153583737826"
"-0.11845907832669499","-0.020996889473500875","-0.10842496843234077","-0.06846335644564619","0.2182103705861385","0.08631229967051461","-0.11786880978138085","-0.5683703568388097","-0.6921351115547885"
"-0.08319100615426193","-0.024814175949598213","-0.0365479972707823","0.06577955945005394","-0.25444665141302375","-0.1904762021868669","-0.08167370063344576","-0.5509032688654024","-0.6995550364180811"
"0.009857779837773932","0.05749171406210267","-0.014121423991370657","-0.0472742005117946","-0.2882878717716618","0.07727215824765338","-0.11363350832604134","-0.5445048265186484","-0.746803941219357"
"0.061958822411262035","0.058564709145043775","-0.04782840460590952","-0.060459056275986404","-0.2629907218996106","0.05554669622954499","-0.1524478170581996","-0.5397686599155871","-0.7886595085649355"
"0.11195899319986755","0.050887548779102156","0.00021059994543799008","-0.1116099424936944","-0.2425447851581788","0.08839699268588046","-0.19538597194424143","-0.5295311521607805","-0.8319369557851979"
"0.09730574948707815","0.00929917343562451","-0.03565993883905314","-0.07420134405824809","0.10627586732068561","-0.023047929268270023","-0.19917545219375574","-0.5078028335110815","-0.8539842655662151"
