"AccX","AccY","AccZ","GyroX","GyroY","GyroZ","MagX","MagY","MagZ"
"0.1285618497803053","0.11431682732682565","0.15414912680397172","0.017615122489777355","-0.08253133735349819","0.05149622749538248","-0.4894050571859756","0.8561076068535112","0.3965182256011381"
"0.09264214148321208","-0.02618528292876787","-0.019321728947403305","-0.09751528835804137","0.12109276938860135","0.24924355727191366","-0.4276588201791823","0.8246694870343049","0.41531318946190154"
"0.02832272900847884","-0.14942390985572526","-0.04514770729338752","-0.018637213676753684","0.10200383207739219","0.07144763759936695","-0.40319438150952314","0.7935084131723807","0.4737246684517873"
"0.004202179074987368","-0.151501344672649","0.05687781499929272","0.09781697787028108","-0.0010498638058259791","-0.35463788977521654","-0.5064855821341545","0.8260547168207155","0.46627205669482386"
"0.05436891760822382","0.24241145813834225","0.2407100408715636","-0.13514917019975425","-0.04605509693723204","-0.19813059307215666","-0.641652998975289","0.834023086258735","0.5300932165872423"
"-0.09698820719796834","0.11121106227552469","-0.07806989208453782","-0.06079601863578685","-0.16027519889027325","0.5496432097072863","-0.5383617983506578","0.7881653839962253","0.5554255591821845"
"-0.07752000028214533","0.13236973588589282","-0.16426938702293759","-0.1457105333054997","-0.19306336854468215","0.5830613969268296","-0.28822823805734404","0.7217930882302046","0.5332475018264836"
"-0.11961446152644706","0.046517664641703114","-0.11564922051184919","-0.13210688146555594","-0.23384515036301268","0.86050273047354","0.04549679832819896","0.6034944644707323","0.5194863195910375"
"-0.1006758052438438","-0.040466608577709985","-0.036432343149440834","-0.2504480622274732","-0.339193300132923","0.7407602934791848","0.356150587312287","0.4345360085225261","0.4847564950657137"
"0.01878407787519208","-0.10663913980118124","-0.07689269834945497","-0.2361127206919627","-0.2806771871365508","0.5053283151082404","0.5694760342996558","0.25811050439233485","0.4577080905530499"
"0.05076027074766474","-0.08184287782637972","-0.10707635876741253","-0.16401240319066118","-0.1729309537174641","0.28394799280128696","0.6730458731779275","0.135484686633408","0.4355954069846907"
"0.07579549904762663","-0.15505375820958855","-0.1565515396755611","0.0011471943165698103","-0.13983644204000667","0.16440213337881146","0.7180738149662752","0.07493035597031238","0.40921708379228017"
"0.12311903209013977","-0.1289404025608574","-0.05271066072825311","0.17617516776787664","-0.027149486180440968","-0.15782491018601455","0.6944174272321744","0.1089410453928528","0.3934620010429096"
"0.0472642737490815","-0.026290193387022518","-0.050281924180082184","0.007875754992025096","0.12019288969589641","-0.4794525135007878","0.6028011694350911","0.21874359312900646","0.42238990194164994"
"-0.10533585081617729","-0.010856930132096196","-0.09383809237814753","0.08336321813404075","0.28373405735974483","-0.6268128859024344","0.4320516476040309","0.34832194514925163","0.5009691943264767"
"-0.16630157098976345","0.057349409777143395","-0.05186390733986019","0.1954590422444566","0.17864438367178168","-0.7195441083903614","0.1957385446912988","0.4966074956183573","0.5392945771555987"
"-0.1655120591365995","0.11218745663947882","-0.0873366785570233","0.046912555550027144","0.3503873803433425","-0.664842151968538","-0.08574181913660096","0.6023730879769712","0.5948622963961169"
"-0.07031811167035723","0.08751999562332659","-0.010268902599399526","0.1752124181684468","0.3210934243893304","-0.5878614040670189","-0.3669992723615879","0.6729802290900188","0.6384666125530882"
"-0.00545297319760772","0.12788247668133756","0.06049407154338055","0.22592043957041708","0.10890131419009338","-0.3443236344605426","-0.5283865488703184","0.7472549309708962","0.6053384458176381"
"0.10043144617014085","0.14821017636493616","0.02031355801196944","0.11538715805987587","-0.155613056227004","-0.05865273861452429","-0.5381946153984732","0.7952498449038684","0.5346693817011674"
"0.1043217176856395","0.01370240040183518","0.16568975591211724","-0.0034769882844517064","0.15029578005452088","0.26145078179728065","-0.4737455873313648","0.78064556515571","0.5314497226745843"
"0.07549317377702483","-0.08202673080767747","-0.11728903073229793","-0.07524111362563232","0.2629123729806676","0.20003121156110024","-0.44733068088622024","0.7418723238008433","0.5859551178707986"
"0.04392521630179791","-0.1774173440137724","-0.05645909341101691","0.10370900541879176","-0.01275643702097749","-0.16204040700521186","-0.49054747402590276","0.7568987688172412","0.5930318303505469"
"-0.1311779217172994","0.19012242379637223","-0.028588515419888803","0.029520484036326886","0.09177727376109371","-0.2777542172178356","-0.6900524636326898","0.82273016533333","0.5758385242796572"
"0.0042589854156418515","0.265948794614088","0.015916429623609986","-0.16671772956505906","-0.18643872229625852","0.1901562221786513","-0.7170803742358438","0.7820176022774883","0.6497599343163817"
"-0.09785474459778241","0.12774744341823754","-0.12769377114869687","-0.031377279126008906","-0.2232954969442802","0.5358342420036405","-0.501275046791072","0.7198009958706998","0.6294450298999216"
"-0.08573284919371657","0.09813672625521525","-0.17956257931818057","-0.12136259593591878","-0.21965289882646924","0.7391342814648714","-0.2186244022978812","0.6474920010200621","0.5815750741188989"
"-0.10580763228940938","0.0021268297301953645","-0.06261974062461714","-0.15058204627861477","-0.2846739932185116","0.8006800496484314","0.1129551195346281","0.5278741107973414","0.529864408331546"
"-0.039430867463650925","-0.07583389761842786","-0.04458595870401466","-0.23720062773931844","-0.3086308967397257","0.6537322474593718","0.39385034302988214","0.3596280587392893","0.49716117121381764"
"0.039515503756077375","-0.08845015926160564","-0.06802244029299738","-0.22262459880395047","-0.22779968200191508","0.44873338947572383","0.5656308263994131","0.21220003147129501","0.46715460282393795"
"0.05642838816178195","-0.09651060635126966","-0.12207008949846775","-0.07878980864913077","-0.17946704797485027","0.2730270165857499","0.6511170426163996","0.11801759866000094","0.4340754664289942"
"0.09538330738101063","-0.14650511393794743","-0.08605622221359986","0.11491541075615523","-0.05781097207171791","0.08369369226238917","0.6748848856519566","0.09209401265717242","0.40823647698215326"
"0.09000276484531172","-0.08816970556132092","-0.06310507488381797","0.08394664439129522","0.05413549767901026","-0.3297866016758611","0.6137237889778091","0.16413915421516048","0.41778104993405396"
"-0.027607446052854374","-0.018684704522264773","-0.10093842932764722","0.07034973179854745","0.29208666408192635","-0.5845123046942543","0.4711167307644661","0.29589429589976524","0.4760290944555853"
"-0.16272951126386315","0.02435351257994394","-0.007476681669869685","0.10955289548733098","0.15917730542587208","-0.8027862159887883","0.2452246985378988","0.44296612122268253","0.5470904012961068"
"-0.21068754224690683","0.10942446833297029","-0.1491620674227077","0.10497983489003918","0.35285247631006084","-0.7579859446690518","-0.060943014562572916","0.5816342191747085","0.5990625622328265"
"-0.09758515518450694","0.08317192455150522","-0.018995419105047005","0.10193754615584083","0.37376989257134063","-0.7175783326715647","-0.371401756769112","0.6619247761279982","0.6806980791758819"
"-0.023852450653660023","0.1287549993044455","0.05659074494810585","0.2232343681880078","0.1772945641327243","-0.44678666019831476","-0.5888231860850003","0.745632233221101","0.6781648449163876"
"0.08436940520912037","0.12452741945200574","-0.012487809527422355","0.19233010604630954","-0.06913605373629185","-0.02410119675216849","-0.6102504677899748","0.8229280553028172","0.5773421213885181"
"0.1460543514245522","0.1250052294598982","0.20560075403575942","-0.033368245297629835","-0.0662593106761021","0.18825597231714786","-0.5383617983506578","0.8276906072351434","0.5373823938758515"
"0.08936364537198217","-0.08516261866382384","-0.05045953586642802","-0.12424121723821403","0.2019527036910728","0.23775226340956523","-0.4778137058345198","0.7896165771057984","0.563025261960667"
"0.002486435023355504","-0.2832730351101206","-0.10496773630509747","0.06331588322511295","0.18293556529151567","0.03633791250821704","-0.46984465178039403","0.7699463141387665","0.604602990710043"
"0.023741634621461744","-0.06581027462677091","-0.10118212908333105","0.20112963738509843","0.20944372347343046","-0.32126824022774214","-0.6403991268339057","0.8332711043746835","0.5932279517125723"
"0.011413695880106768","0.2546890979063614","0.2643571781815611","0.0051907426341751845","-0.07006465299365759","-0.2974605120778714","-0.8104520530308639","0.8710153178882166","0.6186420115416914"
"-0.04924199646821254","0.18283062758896995","0.002422898066527018","-0.0463355196523505","-0.18686951576617045","0.3604190951460809","-0.7600463929472497","0.8328621317710766","0.6490898529961283"
"-0.07033736805701975","0.1255661368604676","-0.20261698925630303","-0.11083011531815622","-0.16225206225775807","0.5432362369941712","-0.5420398232987159","0.7702761307545787","0.6078063062897904"
"-0.08612760512029854","0.06437737176279634","-0.1306945825470747","-0.14731832513654758","-0.19347740893520865","0.7957049382613535","-0.20884419959509049","0.6619775467865281","0.5773094344948474"
"-0.07927233146843604","-0.006803854804278018","-0.04596761240361189","-0.17853066715006333","-0.2782599571109338","0.7801728831992563","0.1428808679756461","0.5243780546697334","0.5285569325847105"
"-0.011884606342894437","-0.07765269180064457","-0.05964371225224104","-0.25208473654650393","-0.2937685220277637","0.6202412537317247","0.40396491163704196","0.3534143136973899","0.499661718579641"
"0.044457655393017007","-0.104031959105942","-0.09014335625172085","-0.17465078626436104","-0.19565770255237408","0.3941527772340731","0.5671354729690732","0.2132422519772611","0.46757953244165945"
"0.07657345706879304","-0.16482808902321466","-0.15719176784727285","0.01400577424151484","-0.09110891399885594","0.1927505607507422","0.6335628326370313","0.13817599021843452","0.4462840212150727"
"0.08922856181954449","-0.12442198183404829","-0.05468710705189221","0.06940238619270847","-0.04268533468369863","-0.16786250076989484","0.6157857120547506","0.164917521428477","0.43146051493532267"
"0.05688283888701778","-0.0651974313557784","-0.014964046875429956","-0.0160897782366623","0.09858859717981253","-0.5251750005898363","0.5134418814924983","0.26282028566613114","0.46674601665305165"
"-0.08500110650054023","-0.016586495357171816","-0.0706060707536792","0.06801410127033061","0.25458369922903673","-0.7390805213981554","0.31493998959881775","0.39573638183839444","0.5462405420606634"
"-0.1761319563809876","0.04435609371469399","-0.04766111918039774","0.1440578411308968","0.1764329771929004","-0.7452448057509252","0.05129247400392708","0.5354730856256513","0.5979021775075098"
"-0.15544096891209364","0.09850962580485308","-0.10309042208546534","0.05489374972930061","0.3349506143381646","-0.6446990180598807","-0.24219719855588986","0.6268982515287566","0.6609551953986623"
"-0.0768171421689628","0.08625276038500312","-0.02131056678404327","0.16513242986241625","0.28868818226373216","-0.5447114135976303","-0.4912440696600046","0.6903153904171009","0.7118323453974075"
"-0.002468233264914775","0.11396366340794863","0.02550394975760139","0.2450502741110882","0.12235164363956623","-0.3030908820378816","-0.6431576455449491","0.7761732518452984","0.6679828775379045"
"0.10080213161339464","0.15207420512441425","0.030067950521039256","0.09426346909878551","-0.15529235442162515","-0.07520893855727845","-0.6411793139440997","0.8248541843391596","0.5793196784556072"
"0.08186800058165708","0.004936560320084696","0.14045237443367445","0.0044079309348787725","0.1364697029674026","0.2653095267267704","-0.558451616438157","0.8163581083158408","0.5578607327606661"
"0.07366189140541775","-0.06720734954115211","-0.0675969983466341","-0.027334693558002957","0.11563365880599502","0.2141168439955396","-0.4972626559386451","0.7886535125876271","0.5642019901328192"
"0.056059628357194406","-0.1569338367189045","-0.08877202881295765","0.041773398188270604","0.0761346842091801","-0.10414467176124474","-0.5175753846290568","0.7823869968871978","0.5780612330492778"
"-0.08852502525978415","0.17562192877424465","-0.06800591827566288","-0.06765368403252568","0.10976050783286223","-0.22131703901954355","-0.6786004314080544","0.8200652470775683","0.5928193655416861"
"0.016753491901627757","0.22667488940014507","0.03097129181880283","-0.1109071352861106","-0.16547344009387735","0.12399694826492781","-0.684256787956962","0.7842339699357455","0.6520643603201797"
"-0.0824881480410794","0.13045849585432298","-0.12403620956127277","-0.0544312810339561","-0.2175850901708919","0.494577220744945","-0.5225630093692266","0.7299725403023439","0.624264157253085"
"-0.08745629580001345","0.1046629877325811","-0.17912681111098322","-0.11225498472531238","-0.21520615289815595","0.7421921548052219","-0.23133030666390003","0.6561463890189706","0.5768027876429485"
"-0.11464631376751303","0.020162287836800335","-0.056671814384198556","-0.1528348803412806","-0.2785471527575418","0.8155083084655272","0.12368269229979757","0.5344968284428476","0.534031987274585"
"-0.05227487736756182","-0.08165798612767351","-0.04893951027165438","-0.28180481668090346","-0.33782912081153516","0.6686818504566402","0.39552217255172656","0.3582164436236136","0.501345093603692"
"0.03639308065874731","-0.09678275031228667","-0.08607687473526798","-0.18721466853692056","-0.23593449869208558","0.4421322660743326","0.5834636746324219","0.20222637700913806","0.465552945034064"
"0.06561849869647683","-0.1183350978204618","-0.13944299072569039","-0.0844642547881703","-0.13982926214884148","0.24405002636052492","0.6665257380427336","0.10630251246635626","0.4333236678745636"
"0.10122201712457123","-0.14754383134640933","-0.08955475938417941","0.07672505964597191","-0.05533151632266919","0.013199033479457811","0.6812935654856943","0.08927078242582111","0.42033062764038365"
"0.08216358611692699","-0.07767969845326458","-0.04913777447966833","0.040001938925319676","0.03323962109122604","-0.3269228790237869","0.6269312422003812","0.15929744629503934","0.42464529760494163"
"0.007248539445000437","-0.007388652705242045","-0.09405907435999641","0.07350851323427679","0.24548917041978466","-0.5334506736776099","0.4891724896003874","0.27787311601179393","0.48328558485052353"
"-0.15601866051196964","0.007566281183087588","-0.09974264832306307","0.16755855885297946","0.17414019861414684","-0.6731663627283807","0.27322784302879527","0.43113230104734557","0.546371289635347"
"-0.19093048953114583","0.10978801942593194","-0.14967838046441073","0.15541828640416908","0.3321025908426356","-0.6541638641133461","0.016100462569098504","0.5686130591824479","0.5756587463644671"
"-0.11445374990088768","0.09086466567857378","-0.020798384246673893","0.1021397235717211","0.40047908770588103","-0.6542124017854153","-0.2852468087433878","0.6575184261407488","0.6462134063530898"
"-0.03831399703722387","0.10316204107735374","0.04867876389704903","0.23040685270376018","0.24754740588714175","-0.502362294717381","-0.5239840644627943","0.7457641598674257","0.6518355520644832"
"0.03509616301702556","0.1346133654881704","0.08730310992076729","0.2889227733571065","0.009775258103944598","-0.12545028291595584","-0.6170492411788097","0.8229940186259795","0.5616033820859833"
"0.13248148728546433","0.16605534144231093","0.02141640266904705","-0.04107601859066522","-0.18487350602224512","0.06268658779090278","-0.5502317879557544","0.8444189059891314","0.4936309866973613"
"0.08834267175113455","-0.05667163886712346","-0.011463444452683595","-0.12412568728628244","0.235365523876854","0.24696228668466813","-0.48352579003415547","0.8098277393227619","0.5219214931695191"
"0.03633434867942657","-0.1363672320313597","-0.07996579357367126","-0.056606132379068134","0.19348282541319303","0.1815092358995494","-0.4668074948157096","0.775342113973452","0.5767864441961129"
"0.03641618832274234","-0.19264494122182327","-0.020244896665968275","0.1752124181684468","0.04690295397859978","-0.30114937515511947","-0.5619903222593946","0.8101707486032063","0.572471774231555"
"-0.04050922511675289","0.15244814339146054","0.1331042072241573","-0.13889426614153638","0.04967917856247676","-0.20860502270465844","-0.7648111070845068","0.8460679890681918","0.6168278889429569"
"-0.049347906594856494","0.20958798803094747","0.008734288035782859","-0.1391253260453995","-0.22057671148972482","0.3164196954154838","-0.7467274844232211","0.8056456646342648","0.6517048044897998"
"-0.0726673908431865","0.10785600504619287","-0.18366623537363605","-0.12378872492648202","-0.22458548405696094","0.4781714875856049","-0.5128663981425279","0.7365161019600555","0.6409835033657469"
"-0.08529958049380951","0.04814014123372054","-0.16577495585254357","-0.12573347911733032","-0.23086549552945507","0.7066383100146402","-0.21394327963671614","0.6499458366417038","0.6078389931834614"
"-0.09566914471158468","0.02236333002533102","-0.03884662293244407","-0.14276451953124436","-0.29747813246311655","0.7617771054850849","0.11705110186314725","0.5376366826253786","0.5529086683695256"
"-0.021657222574131007","-0.05590714285449554","-0.042908973944563306","-0.23227134979023759","-0.33845137804585235","0.6361616101703743","0.3938224792045182","0.3687573826649673","0.5078007551036933"
"0.03975717140869219","-0.07356222264612178","-0.06268789394612195","-0.23060579298322392","-0.2151535003629445","0.43106567684258834","0.5722345530106995","0.21442959179418455","0.47611081168976255"
"0.06547118733850843","-0.12120195786781653","-0.13576064611226457","-0.11436340634806376","-0.15787472194404173","0.25640286390209904","0.6630984875229524","0.11417853325194845","0.4460878998530473"
"0.10294546373086813","-0.14806319005064025","-0.10553981115530439","0.08869107441728553","-0.05806705485661002","0.020986902962937457","0.6785350467746509","0.09234467328518954","0.4256422478619039"
"0.0818612608463252","-0.07887006860336188","-0.07785304060702256","0.05178984502073877","0.06248571110413674","-0.30835721945737393","0.6246464085205269","0.16194917188616836","0.4423125636340593"
"-0.04857765112835509","-0.002260089372702456","-0.1148788814536283","0.09081393728402837","0.31080224705254517","-0.5237188704277647","0.4737916579994173","0.28574913679738606","0.5159724785214166"
"-0.16761100528281578","0.030230575677021147","0.01829828494759428","0.14968029879156713","0.1098323067445142","-0.769513641785452","0.2512711486419031","0.4412378821558273","0.5771623434733283"
"-0.18961142704476217","0.10659604082972866","-0.10305118229429593","0.13719343648696197","0.33882775556737205","-0.6500624308235111","-0.012237047826167228","0.5783228603519551","0.6087215393125753"
"-0.09167344447910862","0.0780635123366898","0.0012494217853444326","0.0931601580578389","0.338684157744068","-0.6640412803793986","-0.2943304158120767","0.6590487752381168","0.6715947792885383"
"-0.03365395146489038","0.1286303532154301","0.0681169172910837","0.2484391527010813","0.19475605944648836","-0.4462770146415897","-0.5047858887869456","0.7367667625880726","0.6612984077822068"
"0.07761426476790306","0.13609873138227088","0.001987129859329683","0.15304029489357734","-0.05560913878105688","-0.07110993215104688","-0.5326775779763864","0.7960282121171849","0.578764001263202"
"0.1412758790742441","0.13135179282560017","0.14004345450464567","-0.05124939360784044","-0.009710487858994555","0.14620293323651984","-0.47182298338124345","0.7964635700500567","0.5562754184176276"
"0.07191437431579267","-0.09040190927210547","-0.021496439479056353","-0.042714618408894824","0.2079550927051792","0.2910587617594033","-0.4054792151893775","0.7640623857126791","0.5671438105631995"
"0.025815547465016773","-0.2122974745899217","-0.11469713926294885","-0.0050339469366496616","0.05206290242932283","0.11632071542720698","-0.36120359668585994","0.7377430197708763","0.5896160499619385"
"0.07175936040315926","-0.09308907120779626","-0.037562036084687","0.16670171170948692","0.15503690152060728","-0.3043771303477115","-0.47561246363075776","0.7781521515401707","0.5928193655416861"
"-0.06381908117175163","0.14233103583304202","0.1312805895608623","0.005739702455770085","0.07038119808880061","-0.14981862117822414","-0.6534393971042933","0.8318990672529054","0.580447376287253"
"-0.03410647655145996","0.2024727737829837","0.08392435737586283","-0.1342153030883073","-0.17086793165599692","0.25577187416520136","-0.6459161642559927","0.8176114114559266","0.5930481737973822"
"-0.08738889844669459","0.10258451419824893","-0.1891639366416896","-0.12985404740289008","-0.227400001393719","0.5062505308775523","-0.4309746153975074","0.7457245818735283","0.5931135475847241"
"-0.08722521916006301","0.05604374199470684","-0.1537675797546985","-0.1283714130197681","-0.216362115375753","0.714234455693447","-0.13503292620565208","0.6528218375315851","0.570232722015099"
"-0.07870426806189125","-0.012001596716221166","-0.04844384975161949","-0.13294447361705988","-0.29513270134915154","0.7518996892190325","0.19133606028377498","0.5225838522797157","0.5188816120581261"
"-0.018210329361537218","-0.0669352055801351","-0.046855670835341055","-0.209126849419944","-0.3026955200431612","0.6234932777603513","0.4523365124690787","0.3584539115869983","0.47900360177963663"
"0.038867526344883066","-0.08454873667542287","-0.07851598655256921","-0.1522090931016512","-0.19566488244353925","0.4673718555502404","0.6043058160047512","0.2151419956843386","0.4424433112087428"
"0.07223210469572451","-0.13163068064877362","-0.1415887877270081","-0.011464729161001294","-0.13488231713601936","0.2773711382359302","0.6889561174608152","0.12444242633602","0.4094785789416472"
"0.09910025216015979","-0.12974021496537302","-0.05605430398632176","0.0796075319466649","-0.03218354720606751","-0.0735756458921548","0.6938880145502568","0.12248991197041255","0.3922852728707575"
"0.07101221260065291","-0.07023936565645228","-0.012626181422598758","-0.046122751990876495","0.0695004647725362","-0.4063547793647931","0.6251758212024446","0.2006300645886077","0.4197586070011431"
"-0.037206754804128106","-0.03359445420332632","-0.0668060067667451","0.12401339447076733","0.24130090057341858","-0.5986853049384179","0.470392271305","0.33208177498666536","0.49013348907457566"
"-0.16721624935623383","0.03349941936145062","-0.07702074398379731","0.19040460684744984","0.14182111518253093","-0.7366293689586682","0.2465342983300103","0.4948396785576045","0.5274946085404063"
"-0.20500690818145903","0.1355689855039553","-0.12227867996731576","0.04131512937894199","0.3688875665790053","-0.716947342934667","-0.0380389501133021","0.6241014066266702","0.572504461125226"
"-0.0914519960324895","0.07954472336115642","-0.003672074128168594","0.14825542938441097","0.3471564293190029","-0.6305260178157172","-0.3367112941908369","0.7044579269031225","0.627042543215111"
"-0.027703727986167048","0.10704372803277572","0.060964949037413695","0.25110596909150196","0.1299647215717323","-0.40419485295772023","-0.5184391632153431","0.7812920057227017","0.5856609358277605"
"0.06868218981448616","0.12954442453487652","0.05177251164293342","0.22511172990689599","-0.11024571725116644","-0.03888577166440221","-0.5413710914899781","0.837136555112001","0.4712077776391286"
"0.13453325528435744","0.09716656419571187","0.1823542756461234","-0.0843506503354376","-0.09260711795532747","0.1336705063082902","-0.45524400728961795","0.8231259452723044","0.44605521295937656"
"0.09617776812554683","-0.05394604438731954","-0.08368118222176606","-0.12182471574364512","0.24177955998443185","0.22384864724538484","-0.3890395582245724","0.7753025359795546","0.5058395414834398"
"0.03580672368487311","-0.19969783242527933","-0.0704491115890015","-0.04368025625712296","0.05941989757659676","0.08927309766672688","-0.36281969855697643","0.7454079579223487","0.5577626720796532"
"0.06460753839669374","-0.09026895344382233","-0.07637845055991878","0.1352005448161422","0.0707018998941795","-0.2748176880576579","-0.464021112279302","0.780262977881368","0.5440014898442073"
"-0.048327318101742116","0.1683197453927578","0.1782671416080024","0.06845792883566779","-0.0394376305799736","-0.27845801346283694","-0.6156281860852417","0.8098145466581292","0.5610640483404135"
"-0.014580500475649362","0.2049656955632922","0.022621064257948506","-0.1425719696113584","-0.17788268532439636","0.25662128342640983","-0.6097767827587857","0.7905532562947046","0.5887171603859889"
"-0.08521292675382813","0.10137025354775704","-0.16625822485957759","-0.06914979691003967","-0.2083972227764922","0.529038967913973","-0.4019126455427757","0.7366348359417476","0.5689252462682632"
