"AccX","AccY","AccZ","GyroX","GyroY","GyroZ","MagX","MagY","MagZ"
"0.07590140917427057","-0.06297145994944466","-0.09193186462818004","-0.14107008023624784","0.14874492356283786","0.22904945880758393","-0.32088464138404144","0.7010542194279419","0.5705595909518079"
"0.04392040220513227","-0.179307809697173","-0.0772066166788104","0.08933130290090638","-0.03707544638662312","-0.23368929162994528","-0.3375472089517592","0.7025186052021474","0.5736811892973781"
"-0.061007648719021486","0.06445943043806483","0.06764397454488374","0.18207682281238163","0.22130969027244943","-0.42644937560138124","-0.5456621205960458","0.7784819681559829","0.5602305325518057"
"0.04975316172521416","0.36123034249229447","0.29510878294539206","-0.08549343410996081","-0.12026405872367411","-0.15466025396711225","-0.67993789502553","0.8000255895008271","0.5923127186897872"
"-0.129724064524278","0.12185791571225878","-0.11968472324579986","-0.08536538841323664","-0.1850817228660359","0.5635735215911046","-0.5124763045874309","0.7456850038796309","0.5843534600809247"
"-0.07579655367584845","0.13211005653377733","-0.19250551464759144","-0.17097308279453902","-0.208605439620283","0.6972220016332437","-0.2235841632126868","0.6639300611521355","0.5589394002518054"
"-0.1075310788957063","0.0157975972864436","-0.10185953179404537","-0.10449522295390778","-0.2535371985320985","0.8774181091896052","0.11897370581326844","0.5425707391979271","0.5246181618973678"
"-0.06058400821244574","-0.062121789109322846","-0.007078294526891649","-0.26681480541778063","-0.29522843323135417","0.7751735029761437","0.4122961954209009","0.3658022257872912","0.4897739332441958"
"0.03240026888427065","-0.08456847230618363","-0.04085817854291897","-0.23326298187765032","-0.23529788167543791","0.40051121227511916","0.5854698700586355","0.1939018056260415","0.4720576368745719"
"0.05182514893010294","-0.08758906252999073","-0.14416002667468902","-0.15644519133914256","-0.151283581854389","0.21598797125380165","0.6661635083130008","0.0963552433334643","0.4534914812695046"
"0.0798037159314333","-0.11044084551615165","-0.0689022377160593","0.0038614742622423894","-0.14694453429355372","0.09313184259621664","0.6905164916812038","0.05673767144211874","0.42626329884165076"
"0.10130289394855388","-0.10402157193185736","-0.07641975560325502","0.07202491610155538","-0.028416497641393094","-0.1266879935537167","0.6832718970865438","0.08059000909764748","0.40933148792012813"
"0.0392285835948056","-0.041073219544251714","-0.08496576906952312","0.04051700996101465","0.20444651922245194","-0.5097157520358426","0.5953058004121543","0.18123684757885802","0.45324632956697297"
"-0.15489216189221136","-0.0031975318338392854","-0.15166308779671708","0.14054380509297787","0.182839833409313","-0.7403425008719507","0.4251135550883759","0.3404195390343944","0.5066240269315413"
"-0.19439663913040214","0.08303273641877135","-0.09600867240546695","0.23570197550062436","0.25590001260932327","-0.7455603006193741","0.1861255249406926","0.5019769101237778","0.5198785623150883"
"-0.15495955924553023","0.11242636164342508","-0.06726655799994417","0.12529385143800903","0.363789843851714","-0.7118994250394853","-0.10335175676669722","0.6071620252385624","0.5694482365669976"
"-0.053314722247338735","0.10545137424560366","0.03296426015977642","0.26233162942085403","0.2785406027502509","-0.6444320608635009","-0.3808754573928981","0.6976900899466588","0.5901063533670018"
"0.030097205039431453","0.13602602116367854","0.010539215166968218","0.19278259835804157","0.04787941917706685","-0.2373927160088141","-0.505231709992771","0.7710544979678952","0.5325610770593947"
"0.14120848172092526","0.1848041906650475","0.10585733538740642","0.05897484528128376","-0.14877540654067947","0.0488072404627569","-0.4592285343166808","0.7948936429587914","0.47674820611634494"
"0.08172068922368869","-0.02992882046886441","0.07477942078121924","-0.06440247863525107","0.061219656962006645","0.2970531642599314","-0.3773088877462963","0.7800650879118808","0.44178957333532487"
"0.038502617817628024","-0.11448145623506828","-0.16669605831894174","-0.2186676979502938","0.3118313647862237","0.23175543402543367","-0.3303026143570994","0.7313973480826521","0.5137824566454667"
"0.08948717509242235","-0.10401118475777274","-0.0476879674585663","0.05952553805215763","0.1323460521415233","-0.24588923550450195","-0.4044203898255426","0.7342865416371658","0.5758221808328217"
"-0.13997809042207796","-6.23710798788523e-05","-0.21236497948365574","0.09394864997977195","0.28639061709086844","-0.014507725867720046","-0.5967365124883979","0.804339590835649","0.5510945457707911"
"0.04432574914437864","0.3094502796804707","0.10054550681436591","-0.06584756578399528","-0.09252335255840016","-0.009420249769802195","-0.6599595322394872","0.8362262612523598","0.5114616871948333"
"-0.10953374310860997","0.1172356232446035","-0.1111097962491964","-0.10568903245720081","-0.1931949998827108","0.5287477418815587","-0.49160629938973766","0.7756191599307342","0.5331494411454709"
"-0.08321026254092447","0.10456742573100263","-0.21775528763903512","-0.1748625911762356","-0.19484637485070658","0.718287351311213","-0.20845410603999318","0.6897481058379042","0.5228857565328106"
"-0.11571504322728372","0.036717365892865464","-0.10543861379913061","-0.1147773886758186","-0.24614430392899855","0.8837522753946166","0.14402328481557328","0.5582040467874191","0.48854817473153733"
"-0.05598173180009982","-0.06430621181931814","-0.014020226635196866","-0.2523157964503671","-0.26291892298795855","0.7225829352893243","0.42491850831082734","0.3748260083959094","0.47138755555431855"
"0.023879317786098874","-0.08729406678598758","-0.05491221953807472","-0.20356215673523942","-0.2458236021236197","0.43591944404949373","0.591098362782179","0.2138359218857228","0.45350782471634"
"0.06661694234492928","-0.12659290121773362","-0.15401541001471597","-0.023750376799325623","-0.15511285714249518","0.2997470050597639","0.6726836434481946","0.12090679221451461","0.4192519601492442"
"0.09933700943417566","-0.15955140458822842","-0.08635361852562079","0.1487753141681031","-0.060821739766991366","0.02766423050947716","0.6954483887706451","0.10380909885081706","0.3962403870049356"
"0.07218974064506693","-0.06233161002583214","-0.0036559651612674622","0.06143563325742646","-0.00487052322453389","-0.35531741718418325","0.6494173492691909","0.19131604335807487","0.3820869620454389"
"-0.0031036940247784572","-0.011424069837116371","-0.011820733077542075","0.03099637917225285","0.16174291986890318","-0.6785055066559765","0.5063087421992943","0.32573610329844116","0.4218178813024094"
"-0.20099195156232036","0.016309684968815297","-0.08148375391627807","0.09266241651493368","0.1252571062644168","-0.7901906900868688","0.2805281652741835","0.48640956585744816","0.4721720410024199"
"-0.1803683614467453","0.11966622198040423","-0.14112617124164217","0.039083475807463595","0.29208666408192635","-0.7293729869843447","0.0025865072675213927","0.610433806067418","0.5176231666517966"
"-0.10416121122976264","0.1228343100762129","-0.040529803448395865","0.09334981972892659","0.3231516598566875","-0.6943530565865226","-0.28744805094714987","0.6869380682711853","0.577146000026493"
"-0.024391629480210997","0.10593022297090461","0.030312063327156438","0.14648397012146006","0.12765518991359326","-0.42688621465000276","-0.4853926663335486","0.7461599398064002","0.5850725717416844"
"0.07478742720584292","0.15356995819259936","0.05668781179994602","0.15546642388414056","-0.021872744833430696","-0.055958897814691815","-0.5304484719472602","0.7847616765210447","0.5410923563074979"
"0.13798014849695123","0.09663162473035401","0.13149744103837757","-0.011668832076080424","-0.08644437803853165","0.07657078888625556","-0.47279821726898613","0.7852893831063439","0.5020642052644516"
"0.09535724386166287","-0.03518473055568142","-0.06423270256689734","-0.16280896619137386","0.19414098210333627","0.2861079192083599","-0.400185088370203","0.7441150767883654","0.5349308768505346"
"0.017950276332704313","-0.197963174353148","-0.02501769442347083","-0.0011959456585225606","0.13880556089314736","0.1318891737433559","-0.36752868504350555","0.7144579666945442","0.5821634382049748"
"0.04317710567995842","-0.19349668949676202","-0.07808021834537188","0.1333039281052654","0.10075692431170265","-0.3326745931639698","-0.4753059615517529","0.7594581457559428","0.5502937168758543"
"-0.006492818077384604","0.22538687981365238","0.3124155961032767","-0.1414551800760198","-0.05164344556081194","-0.46916252702214845","-0.6771515124891223","0.7864239522647374","0.6056816582011824"
"-0.08545363158710981","0.19517059040149684","-0.06384030465520305","-0.12080420116824947","-0.23427594383292458","0.5084589949566943","-0.6076869958564799","0.7358300833991662","0.6436801720935955"
"-0.0824881480410794","0.09926788951303023","-0.2063550956782328","-0.1598051874411527","-0.22100750495963678","0.4776618420288798","-0.3762779262078255","0.6801966166439867","0.6142129374492855"
"-0.10373757072318686","0.043640417420263755","-0.10527752413011927","-0.09294896700794558","-0.264307035279897","0.7635001928435363","-0.06946934512398016","0.5872411016435136","0.5902534443885209"
"-0.08850576887312163","-0.0006455070329893403","-0.07225207673062838","-0.17856917713404052","-0.3204298512212028","0.8023788681708482","0.24962718294542263","0.4576891349525333","0.5441812677593971"
"0.009818304245115742","-0.08324722376262016","-0.06543054882364831","-0.24500852699069453","-0.2987944458434031","0.6519606224288512","0.48532728170014505","0.2726092428234333","0.5173289846087586"
"0.03704683498594037","-0.06457004604106746","-0.04243396594619654","-0.15788931573828732","-0.24671630192515945","0.4080102826097879","0.6159807588322992","0.12734481255516616","0.48217423046571334"
"0.061015259464797814","-0.1571415802005969","-0.1550005352982853","0.04791381513343419","-0.14505861621416144","0.27399777002713094","0.6935815124712521","0.04619937093369154","0.4484413561973516"
"0.11348024774620782","-0.1594163713251284","-0.06917898150641211","0.11967139377733871","-0.07250820928688033","-0.07600010261200403","0.693163555090791","0.05277987205237392","0.4229292356872198"
"0.08159070861371658","-0.08210047974367828","-0.040604152526401094","-0.009255218830309785","0.0884936702015427","-0.47748673778199113","0.6218321621587553","0.1487037365951557","0.43021841297582875"
"-0.06762221753760231","0.008843072621568906","-0.1890131732335123","0.14354758384319902","0.30618318373626713","-0.6046797074389461","0.4666585187062137","0.29504996536328637","0.49436644180495626"
"-0.19685182842987534","0.06765868005612735","-0.03862977145492881","0.21437707187325317","0.059520416052909544","-0.7949959196217051","0.24544760914081132","0.4622010262568424","0.5147630634555936"
"-0.18523059907903544","0.1313102441292617","-0.08369150848260011","0.1015139363320917","0.38856046837165065","-0.696124681617043","-0.034555971942792627","0.5817793384856657","0.5487901197669931"
"-0.08394200523410081","0.12831873799289156","0.003587700288608993","0.17630032521580252","0.257982181047231","-0.7111228222863806","-0.30422207381632377","0.6652229422861188","0.5951074480986486"
"0.005921774403951765","0.12668795166160643","0.009304400896431315","0.20154361971285323","0.07608921156513383","-0.36165158338919473","-0.4849189813023593","0.7522285655373423","0.5606718056163628"
"0.10740678339284426","0.17072956978038928","0.04222485087576149","0.08774661706024485","-0.13353010429990686","0.011582971687918673","-0.4795133991817285","0.7916086694653031","0.48532851570495433"
"0.08035252295131556","-0.003363415003970644","0.1512433170052672","0.04850012963948698","0.06227031436918077","0.2252465322009736","-0.38786927755928113","0.7820571802713857","0.44652917291760436"
"0.08953204247334605","-0.041170858980647124","-0.1737117199296021","-0.21066724877903176","0.2228605467641324","0.2157477097770598","-0.3413366892012737","0.7396955341364836","0.510350332810023"
"0.02831310081514758","-0.2017441057199492","-0.0653954395368125","0.019405836744716874","0.11232372897883826","-0.12580218103845645","-0.36669277028258324","0.7220305561935895","0.5670620933290222"
"0.03664052522736088","-0.04484064758474287","-0.05283457585826184","0.14400007615493102","0.29660999551600176","-0.31500688053083425","-0.5198880821342752","0.7794450326741542","0.5652479707302878"
"0.021064996875369366","0.30771562160833943","0.361981648106765","0.12190497284801595","-0.12672356747529823","-0.36589862969523695","-0.6755911382687341","0.8298014335763406","0.5537912144986399"
"-0.10138829155035761","0.1575170843447544","-0.0933176488321109","-0.1554054217717583","-0.20110723994676014","0.524476426739482","-0.5835569230911897","0.7742735081382209","0.5936365378834584"
"-0.06744891005763948","0.1329306432864622","-0.24142307747070077","-0.12658069876482858","-0.19731865070859012","0.5992244417258246","-0.3252592619662015","0.7034948623849512","0.5656565569011739"
"-0.10966853781524767","0.03365834312494529","-0.10400119829102945","-0.051154081397496894","-0.2120398208943032","0.8887759244537636","0.01671346672710787","0.5993123897822352","0.5304854593112931"
"-0.08316212157426814","-0.060214703947386865","-0.012206935232735921","-0.2431985577437664","-0.301786067162236","0.7930353662975554","0.33438893970294303","0.43937771644264734","0.48683211281381544"
"0.013698466157616553","-0.09711098501336059","-0.04684947507884062","-0.2380285923948281","-0.2559783615282662","0.5725044532518105","0.5435905405364287","0.25416589766722253","0.46122193162267083"
"0.049816707801200524","-0.08278291708103772","-0.13525878983572925","-0.15462559459622013","-0.1718061041015829","0.3247439061753265","0.6532625571694333","0.12814956509774766","0.44017157209861574"
"0.0852012811129419","-0.15120011662419502","-0.1178342573043363","0.052837316584918456","-0.13187633603485605","0.17982497867875324","0.6971759459432177","0.07250290567793559","0.40911902311126735"
"0.10086124872044863","-0.12093189134161646","-0.03517666983201913","0.14074598250885811","-0.05359398266069103","-0.20386531902711533","0.6784793191239225","0.11400702861172618","0.39025868546316217"
"0.04499779703890112","-0.05586040057111475","-0.031915636660622956","0.018780049505087472","0.1244936445038506","-0.5683492598952594","0.5866680145492906","0.2263425679573165","0.42083727449228253"
"-0.1323718176903766","0.005382585575278219","-0.1534226826428409","0.15014241859929348","0.2348389985247394","-0.7324308603246951","0.38253762993206725","0.3943247667227189","0.48594956668470135"
"-0.20103046433564548","0.08992878129354964","-0.11518866927865012","0.16233082852807537","0.1923603690943669","-0.7498558845974853","0.12084058211266172","0.5534151095258278","0.5122625160897702"
"-0.14542764784757536","0.11622806735839548","-0.05394155101967307","0.0808302239379408","0.3734108980130807","-0.6995951251699803","-0.17287200105006775","0.6492070474222849","0.5912177077518121"
"-0.05730079428648348","0.09798299607876292","0.010870770749828219","0.17406674614512527","0.27475919340324606","-0.6447475557319498","-0.4468291320296668","0.740909259282672","0.6199331438416916"
"0.024410794057984835","0.13257747936758518","0.04888735436589704","0.23571160299661867","0.0003439923990446588","-0.27523025827024483","-0.5845321569789325","0.8189702559130724","0.5514214147075"
"0.1407530681763563","0.1878787941940946","0.03966806869324822","-0.03860367761932937","-0.21799195067025318","-0.0019918017479938896","-0.5269097661260224","0.8366484265205991","0.48925094294546156"
"0.08182948780833199","-0.03384166894654024","0.005023257069760022","-0.10220387890726473","0.16367670388939679","0.2556019923129597","-0.45552264554325866","0.8078224542986245","0.49147365171508217"
"0.06972684879092869","-0.07493540706010836","-0.15424465300523207","-0.24456566217495676","0.27430446696278343","0.22402823663204033","-0.43169907485697334","0.7500517758729826","0.5862166130201656"
"0.059117542559204976","-0.10945406397811289","-0.04218200518184547","0.05241081851237103","0.020409155579015372","-0.2947666712780389","-0.507042858641436","0.7518064002691028","0.6350344887176445"
"-0.1521770113727939","0.003001481723990674","-0.06620914889053643","0.07120080244444342","0.3116399010218184","-0.20764397679769117","-0.7241299220529552","0.8191417605532946","0.6367668940822017"
"0.04180123685292029","0.3377449418869718","0.16756707013174935","-0.13900979609346795","-0.16468843865981558","-0.10712488482628463","-0.8394861590602314","0.8329149024296065","0.6496782170822043"
"-0.10738665599573728","0.12743582819569896","-0.1787096301732872","-0.0773495352483837","-0.23233019332715563","0.4663525644367903","-0.6465013045886384","0.7563182915734119","0.6663321894075245"
"-0.06418495251833979","0.10094749556251306","-0.24332310946416785","-0.12686952364465753","-0.22744308074071018","0.6806706554576964","-0.37471755198743706","0.6879011327893567","0.6314062435201752"
"-0.08690748878013121","0.005310186971908427","-0.06599229741302116","-0.04319406770941089","-0.23775579775099107","0.884601684655825","-0.013853149697283728","0.591462754325908","0.5684512863100353"
"-0.06633203963121245","-0.05530780290981305","0.017436042167950264","-0.23306080446177005","-0.32026232042734815","0.7083613973730915","0.30045080040949806","0.436554486211296","0.5226569482771143"
"0.024159498212038756","-0.09616159730202649","-0.04322495752608554","-0.2232696410355685","-0.2554757691467023","0.47768611086491436","0.5054728274383722","0.26936384732384255","0.4972102015543241"
"0.08232630258422541","-0.13348998480992033","-0.15996333625513456","-0.11320810682874795","-0.16326921350616125","0.22850340999680707","0.6090148024912803","0.16380933759934843","0.47318533470621765"
"0.08451382810908939","-0.13415476395133594","-0.09987069395740543","0.11413558358061705","-0.10760591059942826","-0.006100273000278931","0.6287981184997745","0.15456127969197805","0.44278652359228726"
"0.08867975479966225","-0.07277487485050768","-0.025486506665337163","0.04162898574835613","-0.01318651250177291","-0.25358245652744693","0.5870023804536599","0.21338737128821847","0.4382593888188685"
"0.02284621264165386","-0.010237854556652928","-0.05500102538124763","0.05498135994284873","0.1279375989660911","-0.5606560388723144","0.4572962733838843","0.3267255531458774","0.4739534767074836"
"-0.17996397732683214","0.01461449815820554","-0.14830911827781437","0.13149395885833728","0.15016893531060235","-0.7163163531977693","0.2412680353361997","0.47431189238946153","0.5165608426074927"
"-0.18082088653331485","0.10038970431416905","-0.12119029207540581","0.11397191614871398","0.2681058275901616","-0.6553287682430035","-0.008698342004929542","0.5954601317095503","0.5452762786973722"
"-0.11932561572650906","0.11062938052678604","-0.02880123639307044","0.070012769438747","0.30816962029197215","-0.6436311892743616","-0.2746028274543108","0.6689564663771115","0.6018572916416879"
"-0.036956421777515146","0.09785938870715595","0.02302461453134357","0.13540272223202246","0.19944692167441835","-0.4187076169063672","-0.46920378379702027","0.7276902093209244","0.6096367723353604"
"0.05427071003624489","0.13397974786900868","0.04797038240383251","0.1389841507419015","0.03336407253808949","-0.11406091816495238","-0.52094690749811","0.7677695244744068","0.5719978142733271"
"0.13562412958879005","0.12341599182495155","0.08742909030294284","-0.07717527757088691","-0.1826573129492537","0.04471066094012878","-0.44563098753901154","0.7743790494552809","0.5186528038024297"
"0.08198931581763104","-0.053129612504268516","-0.05802455455346043","-0.19934531348973666","0.2495817083839481","0.2392399430584817","-0.3714574844198401","0.7379409097403635","0.5442793284404099"
"0.03979375854335101","-0.1402312607908378","-0.08979845913986323","-0.07581587513649196","0.32420471056091665","0.25094237579433054","-0.35618810812032625","0.6879539034478865","0.6373716016151132"
"0.05250682501795667","-0.05944813049994202","0.0013547496458518452","0.12423482687863618","-0.18548379677128707","-0.1363300021102342","-0.3816277806777281","0.7213709229619653","0.604276121773334"
"-0.13917895037558273","-0.02993816892554057","-0.08103559419607986","0.23053201015168603","0.20475286124550043","-0.025525777427395212","-0.49935244284095076","0.7885479712705671","0.5420239327771184"
"0.055987416907209896","0.3285522928220843","0.15075178698956596","-0.15594456154743902","-0.08998406438297477","-0.13432539625378226","-0.5698757848374283","0.8172024388523197","0.5142400731568593"
"-0.12002847383969159","0.13383432743182402","-0.07807402258887144","-0.08624726704631439","-0.22841236604801204","0.5153270755544654","-0.4089064657091588","0.7529277767628639","0.5618648772353503"
"-0.08219930224114137","0.09020611884160894","-0.17275137767203452","-0.14598010319334007","-0.2163836550492486","0.6810832256702833","-0.14350352911633124","0.6746820828276089","0.5387552434100291"
"-0.11513735162740765","0.03621047179753607","-0.08382161936910926","-0.15299854777318367","-0.25978370384582167","0.9062737552346575","0.19548777026302233","0.5406709954908496","0.499661718579641"
"-0.04879909957497424","-0.07733588299106371","-0.037898672187877354","-0.22297118865974522","-0.2788343484041497","0.7298878549357167","0.48125916319698986","0.35370455231930453","0.479199723141662"
"0.019989527680266773","-0.08650983514259886","-0.04841493622128413","-0.21844626554242494","-0.25956830711086565","0.4190526030054976","0.6283244334685849","0.186619454748911","0.44898068994292145"
"0.06903458169041056","-0.1430254106196002","-0.1753081598545478","-0.07634731291537723","-0.17339525334614694","0.25734934850744556","0.7089902078975862","0.08971933302332553","0.41263286418088835"
"0.10048141649353012","-0.16451647380067613","-0.09065966929342384","0.10394006532265494","-0.08925410878117952","-0.04294109416577164","0.7288849792075368","0.07626281509819315","0.3881830677150604"
"0.08506263512897165","-0.07302208959372161","-0.05092215235179391","0.13651951176736107","0.01276017819102334","-0.40630624169272406","0.6768910810781702","0.17355871676275317","0.3847509438796166"
"-0.03502115491793038","0.0006103023138410488","-0.145599507434957","0.09454940572981618","0.270427325733576","-0.619459428583973","0.5308846361704099","0.32336142366459436","0.431215363232791"
"-0.19299092290403708","0.038334648897840586","-0.008869694256384387","0.13089705410669075","0.08984588303765517","-0.846081819474384","0.2994198388710273","0.4974386334902037","0.4716163638100147"
"-0.18741619896523315","0.12318747399508993","-0.09353450030962616","0.08540617278403087","0.37295617157261807","-0.7400027371674675","0.007434812880870894","0.6339695197717673","0.5052511773973637"
"-0.09219336691899709","0.10405533804863093","0.011490057264568471","0.08055391480290443","0.3260236163227671","-0.7310232678346925","-0.2838257536498199","0.7129671955910737","0.5527942642416777"
"-0.009381276076764877","0.11274836404004825","0.03675606313804328","0.18774741795302344","0.11429341245515785","-0.3795619843826755","-0.4690644646701999","0.7786402801315726","0.539343607496105"
"0.10792670583273271","0.14965399356269815","-0.01619080666251629","0.0673488412971246","-0.09052016292330962","-0.01806723604890409","-0.47410781706109767","0.806252527207359","0.4785950156087505"
"0.09856444320127475","0.033874396345905354","0.10288543751936395","-0.05574158323878013","0.12857182268568368","0.279433989298865","-0.37850703223695153","0.7873738241182763","0.4634936707327979"
"0.08218187968425639","-0.04521977943883145","-0.1446846007250593","-0.1387305987096333","0.2570727281663057","0.21869880023885827","-0.3110487110305225","0.7396295708133213","0.5423508017138273"
"0.011417547157439284","-0.21697170292800008","-0.054053074636680916","0.10921593312753052","-0.033571659498005994","0.0058836782335704","-0.3090982432550371","0.742215333081288","0.5466491282315498"
"0.11909444727766992","0.042856185776875055","0.01079650428190966","0.057020463594441156","0.0784322493820438","-0.16087792975915804","-0.4171820218422896","0.7973870565743306","0.4967689284897669"
"-0.12976257729760307","0.1734302350423901","0.2931467933869206","0.19085709915918186","-0.10673953706549424","-0.2063091908157922","-0.5199995374357316","0.8288119837289043","0.49845230351381803"
"-0.027703727986167048","0.23218009166499295","0.08240020127675557","-0.16855658129997006","-0.20814353328865517","0.3199144078044557","-0.5309500208038135","0.8182050813643883","0.5210226035935696"
"-0.09387830075196892","0.10648385934961475","-0.2181476855507294","-0.1129289094449133","-0.22252246199549378","0.5683544822899064","-0.27568951664350966","0.7479541421964179","0.516168599883442"
"-0.08408642813406983","0.07650128135436317","-0.1398746284285541","-0.09146055612722703","-0.22397519330791904","0.8122320156008661","0.02900141371266563","0.6354339055459729","0.5095168170214152"
