"AccX","AccY","AccZ","GyroX","GyroY","GyroZ","MagX","MagY","MagZ"
"-0.08994999787281174","-0.047447828279982146","-0.16697693261362814","0.18622627358592428","-0.013668761858368779","-0.8087563496532818","-0.40494980250746","-0.9985171871809084","0.3243455643758064"
"-0.07467968324942142","0.06931958919225786","-0.01905324616571774","0.10425777269046678","-0.07199365042004106","-0.7344694425515953","-0.11446942308696353","-0.8321181081714041","0.424694327945448"
"-0.002824476418171682","0.10662200876494018","-0.05229761029489071","0.1404956676130064","-0.07078982200134269","-0.5947294846647901","0.04672280664421862","-0.6679881674786866","0.5319890564201541"
"0.030731702979961986","0.13018842932812288","-0.03757649284985469","0.16200349366426925","-0.061448783595418756","-0.4159652384344657","0.13284989084457843","-0.5240430036736676","0.6272059776834654"
"0.10137231322247231","0.18526122632477068","-0.04332822013442614","0.02834785502422133","-0.08758119413968816","-0.09862108467978646","0.1766518243169064","-0.45347544055451766","0.6654986736189165"
"0.0896539354009199","0.10580557688188919","0.0059237070144900605","-0.08320112731371836","-0.11895013864044271","0.17532796336155546","0.18116576402588697","-0.5071036222855599","0.6117614204239684"
"0.07115374704262255","0.04168762869235546","-0.03006517071915939","-0.08118031590451508","-0.06767614253270139","0.3771160543378353","0.13808829001302478","-0.6206001161188087","0.4981254345771091"
"-0.05716599957984576","0.00852127796842742","-0.19078722484480384","-0.14235053720348953","0.22703685012522315","0.4261391031275794","0.06472283782941173","-0.7601653152658433","0.3839664584315152"
"-0.15789615821156683","-0.06703388373393898","-0.10416228796004078","-0.14943637425529324","0.14491564827473172","0.513142880311358","-0.07646316529036337","-0.9058782961316147","0.2911029935125082"
"-0.19258653878412382","-0.10659759110484279","-0.10681200649006058","-0.09166369629270674","0.2158553662839532","0.7601753623068062","-0.32762768712214785","-1.02796321464061","0.24615851471503036"
"-0.07208007104997918","-0.08310180332543551","-0.031008990959392482","-0.1231533101908583","-0.007311925550407066","0.7104727861080953","-0.6431576455449491","-1.1174886368366375","0.2297987244327484"
"-0.014031693455767125","-0.08480218372308755","0.0437056366793657","-0.2613367601970248","-0.20903623309019495","0.5374845228539884","-0.9065265228861993","-1.1832408773649314","0.16784071747957077"
"0.08691654375490722","-0.15865810761695123","-0.04723567723403447","-0.2051506935742987","-0.23060941274456295","0.029748923524843013","-1.010375000018112","-1.2186367965738825","0.06110820357600386"
"0.156914953502222","-0.11622650148128423","-0.03795856450071491","0.20722384234948937","-0.11740406874286985","-0.1551043736665441","-0.9532541580217554","-1.1885179432179245","0.1674321313086846"
"0.07855879053370042","0.11844053543841922","-0.022783091578980237","0.34371285306065935","0.3688875665790053","-0.3277480194489608","-0.8869661174806177","-1.1154965444771328","0.3255549794416294"
"-0.05101358404116578","0.21159271262927884","0.019776798973815","-0.014516645391193923","-0.26648493560000747","0.31326474673099536","-0.9511086434687216","-1.0911956562240994","0.3863199147758195"
"0.0011057520996517228","-0.025510116613267655","0.07150186559248858","-0.1045529879298736","-0.22462856340395218","0.19718933086145715","-1.0620066684177456","-1.1293224570119744","0.3261433435277055"
"0.07752761102792166","-0.30985381359265957","0.040855588689165126","0.06695796495975607","-0.04679941232135767","0.08118672150002254","-1.1460996933665282","-1.1602196775812492","0.2623712139757933"
"-0.11011143470848601","-0.0713580643053657","-0.0252345459009861","0.06289997539815925","0.030587847954212537","-0.532674070924505","-0.9805885707039144","-1.1156284711234574","0.2880304255074443"
"-0.09270366116555427","-0.1241934640041867","-0.13237363255869286","0.14561749548197317","-0.06236062977339904","-0.7520643486766273","-0.6808295374371804","-1.0382007223954164","0.3044229026833971"
"-0.1230998675123659","-0.02221218884140125","-0.12042408352151857","0.07878630653835123","-0.028123797411558477","-0.9106369233262253","-0.31843262475200274","-0.8966830088827744","0.3671653950846762"
"-0.07789549982206478","0.07944604520735254","-0.02541215758733193","0.08696101338711008","-0.08184924769280427","-0.8158671186113983","-0.05910400208854358","-0.7237271755509259","0.43704997375304533"
"0.008343265026765554","0.14408646825334256","-0.06243386792960407","0.10450808758631853","-0.07082572145716869","-0.6386803467233181","0.061295587309630147","-0.554306976340583","0.5346203513606611"
"0.050922024395630046","0.1475038485271821","-0.044490957104341304","0.030184781259933485","-0.0574567641075681","-0.37822719840077657","0.1253266579962777","-0.44238040959859976","0.595450660482193"
"0.08544391158488984","0.19405916277444266","-0.03535634677053177","-0.09793889818179052","-0.07242683718700807","-0.06592610877407196","0.1718313825289215","-0.4251507895885773","0.5874587149796595"
"0.08328141936268714","0.10950756572564722","0.04933757933826206","-0.11557647084334537","-0.08937856022804298","0.322050065375494","0.1957385446912988","-0.5152303036991692","0.48676673902647377"
"0.017294596366844984","-0.013537859763336256","-0.06961061920927582","-0.07727251528042932","0.011974698097550567","0.4695075131212788","0.17690259874518352","-0.6464445461338423","0.3597127833277126"
"-0.19649558527661842","0.019424798476792415","-0.1018285530115432","-0.0737180437593343","0.022216094855590462","0.6296575621131211","0.08743185550113396","-0.7972630882123846","0.2736318488454159"
"-0.18042613060673293","-0.0981600895959071","-0.13001304933202673","-0.12376946993449342","0.21558731701378578","0.7529189803324827","-0.12366448545710866","-0.9430420324013186","0.20843783941881985"
"-0.1414704603884244","-0.14381483585003121","-0.08531273143354753","-0.06644639603484065","0.04393526563031753","0.8452861702798916","-0.4554947817178947","-1.0651269509103136","0.19644174944160211"
"-0.030457391278909562","-0.10440589737298825","-0.004066330766813008","-0.1973620493149112","-0.11539130591955907","0.7832307565396066","-0.8009226247563498","-1.1534782259540504","0.18696255027704314"
"0.07818810509044662","-0.1443030330320083","-0.07429667637577227","-0.34249655142896124","-0.21771193491481045","0.27700710569541226","-1.0048579625960248","-1.2163940435863603","0.06983070115208163"
"0.16181377826917093","-0.2010273907081105","-0.00889736863541967","0.064104375147046","-0.1907346905101026","-0.11021673453708335","-0.9642046413898374","-1.217779273372771","0.08467545391271769"
"0.10031369336569944","0.010505747577293804","-0.07259284333815237","0.21111335073118595","0.14867551794824097","-0.25622775965521033","-0.8939042099962727","-1.167924193726619","0.17437809621374933"
"0.010443173992315005","0.46771965120780434","-0.06893115124639466","0.21227827774649607","0.7525809504472414","-0.031486203557474994","-0.822489225588145","-1.0979766858451956","0.35472803204290143"
"0.10934205025242905","-0.046208638411687146","-0.09083108522326924","-0.14108933522823644","-0.2797677342556256","0.2937283337232013","-0.9128794750692087","-1.137647028395071","0.2740894653568084"
"-0.12392789213885497","0.08082961679542375","-0.22234014744935776","-0.04767181609635913","0.40701278866621216","0.026300321924336754","-0.9430559979385035","-1.1719743417687911","0.15051666383399745"
"0.04716414053843631","-0.28946379086455326","-0.014577844720236112","0.12301213488736028","0.03240196712195282","-0.21645599116182787","-0.8859072921167827","-1.1697975521044317","0.10062829236879703"
"-0.11103574126828769","-0.09681910542158283","-0.0704676988585028","0.08216074388435285","-0.010609170903171967","-0.5917929555046123","-0.6568387837987107","-1.0997576955705808","0.16826564709729236"
"-0.09573654206490353","-0.09536697848455312","-0.21174540383361212","0.24324030486416007","-0.031085023857792063","-0.7905061849553177","-0.3567175208022438","-0.9865646330238792","0.2724714641200992"
"-0.10764661721568147","0.06338124176808141","-0.07810500137137362","0.14861164673620003","-0.04738577009984893","-0.822541048520893","-0.049212344084296616","-0.8087934771011746","0.3908307061024027"
"-0.0285124962259935","0.11015157051889359","-0.040860243795085786","0.15060453840701982","-0.008644034691256991","-0.7225291752226081","0.13482822244542814","-0.6184892897776114","0.49632765542520985"
"0.03045826228935398","0.11650852105868019","-0.01834486467250122","0.13170576377021184","-0.07105787127151013","-0.45593601138333134","0.22427110186411311","-0.45847546045022863","0.5806434976492784"
"0.07172566172649983","0.16753032016232677","-0.0036598891403844033","0.010167195313628084","-0.1114495456698648","-0.2174680016244676","0.27158387733231515","-0.38111367504535","0.6119411983391584"
"0.0909840703096345","0.16609689013864937","-0.025139544301312742","-0.06187140993834999","-0.10281213659813036","0.16243878454361824","0.2805281652741835","-0.40694491239575115","0.573893654106239"
"0.06412035181413159","0.052263849345314126","-0.03565993883905314","-0.11002140565463514","-0.10772796874923664","0.3909978285495846","0.27361793658389244","-0.5327237770018413","0.4608787192391264"
"-0.06359763272513247","-0.01585731573643159","-0.13212993280300905","-0.11083011531815622","0.08212032014390103","0.4678815011069655","0.22042589396387074","-0.6841755669827427","0.35500587063910405"
"-0.13748438834927965","-0.06320205521412318","-0.03216553217280722","-0.055269835935059505","0.06652559653308873","0.6205810174362081","0.06840086277746978","-0.8364716875001232","0.2856606257163046"
"-0.19110379701110866","-0.0966539493536374","-0.09003389788687981","-0.02390056573683668","0.2063922697282209","0.8060191935760274","-0.1918472661230039","-0.9729234177938919","0.2690393402846555"
"-0.07674974481564395","-0.10327369539776483","-0.04294201797923229","-0.0772041600588698","0.013061494290256192","0.7811921743127064","-0.5364391944005366","-1.0786758174878734","0.28536644367326647"
"-0.0030266684781283084","-0.07999084468709222","0.0007820552199948735","-0.2636088492516792","-0.1811064564575707","0.6308224662427784","-0.8449474688315904","-1.1542434005027344","0.26014850520617255"
"0.09922474469993309","-0.16142109592345977","-0.11735924930596955","-0.24240910307223393","-0.14133464599647821","0.06285889652674792","-0.9740405717433565","-1.2142700245805307","0.11613005169221802"
"0.1566771371269397","-0.14756460569457855","-0.0651723923027968","0.17572267545614462","-0.08952215805134696","-0.15807730608077364","-0.9013438513684809","-1.194876807570781","0.18732210610742298"
"0.07506664481244968","0.08846315103020998","0.07335852729045259","0.24083343086558545","0.3351899440436712","-0.2882626232207857","-0.8164985031348684","-1.1266971167501105","0.31723616500238716"
"-0.07630684792240565","0.26965701576229684","0.030956835053635147","-0.15141963843011874","-0.22800550554865076","0.33437863408103363","-0.8580434667527063","-1.1270797040244525","0.30515835779099215"
"0.09313664549270599","-0.04945878518276431","-0.06006502369427069","-0.09364503496833337","-0.03881537334565635","0.12842843772483242","-0.9878610291239383","-1.1806023444384348","0.19240491807324683"
"0.014035452924210918","-0.22687067983064155","0.0903142475799792","0.07919932611650664","-0.11133945400533175","0.053156215880144096","-1.06066920480027","-1.1944150643086442","0.18828636947071428"
"-0.07524774665596622","-0.15182334706927217","-0.07082085697902765","0.047308245635392814","0.04770470849204701","-0.43919051451950786","-0.9462882016807361","-1.1646919908916606","0.2012140359175525"
"-0.10922564092200937","-0.14274495691931552","-0.1229746699475314","0.16846354347644354","-0.030397190284166","-0.7052254951299906","-0.6698511902437343","-1.0893222978462869","0.24527596858591624"
"-0.10679933620252996","-0.005907857167738816","-0.13525259407922882","0.11418372106058854","-0.009447943172053776","-0.8671957068244224","-0.33381345635297316","-0.9446911154803789","0.35572498229986366"
"-0.061546827545572474","0.08732367803312728","-0.03371240604574941","0.09722970061462886","-0.07340808897958527","-0.7558260182619789","-0.0657355925251939","-0.7747695950140016","0.43401009264165236"
"0.001192405839633134","0.11267565382145589","-0.030752899690707793","0.1499787511673904","-0.06117116113703107","-0.6066212143217082","0.09718419437856056","-0.6075525707972833","0.5342771389771166"
"0.04869213482010848","0.1323801230599774","-0.04548434339657788","0.10784882869634013","-0.08379978479268334","-0.3703155578535208","0.16352796257042676","-0.47877897131961955","0.6090484082492844"
"0.09083579613233299","0.16880794257473486","-0.017095387111579957","-0.05793087582788361","-0.07390589476703908","-0.10609103241121381","0.19944443346472113","-0.4411666844524113","0.6124968755315636"
"0.08531104251691836","0.09860207165420619","0.014429654588722016","-0.07983054096611443","-0.15089586773146826","0.22904217815677358","0.2164413669368077","-0.507486209559902","0.5282627505416725"
"0.04307889810797949","0.011164294414258626","-0.05755161180726047","-0.06703848703849","-0.009014038415970248","0.4429088688274374","0.19044441787212427","-0.6278428890020417","0.4136134709910152"
"-0.14838350320027455","0.006589782947392594","-0.08717558888801198","-0.05094131373602289","0.13298027586111588","0.5800277924225138","0.10841331600028359","-0.7638988393568359","0.33114443825935214"
"-0.1436368038879596","-0.07980387555356909","-0.07810706662354043","-0.0966680687105431","0.22087650350548238","0.5641559736559333","-0.05824022350225743","-0.8990444958519888","0.28021825792010085"
"-0.16927668272912508","-0.10759475981696615","-0.1030160730074601","-0.0726696094455552","0.16494036473447182","0.7362462899767628","-0.3512004833801567","-1.0160502384774779","0.282784179073266"
"-0.052929594514088026","-0.08483334524534142","-0.020883059585513186","-0.15518398936388944","-0.020924999199624424","0.7009351335465263","-0.6563650987675212","-1.0925940786751427","0.2829639569884559"
"0.034453962521830014","-0.09958624859772523","-0.014294905173382865","-0.30785682084147514","-0.18721893713621016","0.46873091036817394","-0.8986410603081655","-1.162647127873626","0.2132428127884411"
"0.12838950511967562","-0.15883468957638971","-0.13826579699060754","-0.08731399360248267","-0.05589633442766484","-0.07743924458885147","-0.9345853950278241","-1.1939269357172424","0.10750071176310226"
"0.10694174165494402","-0.03388217892547025","0.007280784213302234","0.1622923185440982","0.12987377628363975","-0.15461657006225013","-0.8354459043824405","-1.149098261296066","0.20614975686185733"
"0.05433810738956376","0.27445589018939065","0.09019239770213731","0.1947658625328671","0.2755250484608673","-0.11775220812580393","-0.7544179002237061","-1.08875501326709","0.32720566757200953"
"0.0012867621342795585","0.008082835350315672","-0.010688974890129089","-0.014551304376773395","-0.4755394333600525","0.34202331743190956","-0.8478174428440903","-1.114058544032192","0.29832679701377557"
"0.05512473078472833","-0.004149412466953733","-0.1605085628271729","-0.03859308737373564","0.263103836745073","0.10678063598203451","-0.9172819594767329","-1.1475811048633306","0.20624781754287003"
"-0.01352139920920992","-0.2679623405093927","0.1590995362478201","0.04478295343608831","-0.06374634876828246","-0.040441404054215375","-0.9156379937802522","-1.161011237459198","0.1465288628061485"
"-0.0991641788908348","-0.14119726798070734","-0.05901174508919656","0.13589372452773169","0.00366899999764833","-0.4788215237638901","-0.7953498596835344","-1.1191772979095953","0.21103644746565584"
"-0.09284808406552329","-0.13484031744092073","-0.1814791333289821","0.21297145745808557","-0.04844839399229838","-0.6894992893796171","-0.5261017151904641","-1.0257732323116178","0.2760670224238974"
"-0.1165238114671102","0.015129701992802624","-0.11960211315912739","0.18734306312126292","-0.04659358877462197","-0.8172261734293317","-0.20639218296305162","-0.8608913097348487","0.4040198676986081"
"-0.06835396023077864","0.0910983770954777","-0.06423063731473053","0.14773554460071883","-0.110987639338237","-0.7367992508109099","0.023567967766671024","-0.679505363702844","0.49750438359736204"
"0.014787414823382923","0.12737350515119125","-0.02988962428498037","0.1267090933491709","-0.082308760727377","-0.5844394981861507","0.1440511486409372","-0.5037658781335418","0.5877855839163685"
"0.05879018398594188","0.1553357777869845","-0.04943723604385607","0.025160191100509093","-0.07625132588100408","-0.3245688019284378","0.1935373024875369","-0.3961269273971153","0.6312754959454916"
"0.08907422188044428","0.15106664923820626","0.004251265809805692","-0.10220387890726473","-0.08930436801933593","-0.06366425325565406","0.22669525467078788","-0.3962192760495427","0.6109769349758671"
"0.07417411129064116","0.08450356026915333","0.02792607749883852","-0.06275810231942489","-0.1476146574689723","0.2960338731464813","0.23410703221763218","-0.4811932289473638","0.5237356157682537"
"0.02052870650681776","0.007594534296597752","-0.11026923861730391","-0.07575714741092673","0.016140231621893535","0.48331648082492457","0.2012555821133859","-0.6087267179495742","0.41258383384038205"
"-0.14003585958206552","0.0037688861453622964","-0.09951547058471374","-0.08065176637442809","0.07418893370341116","0.5789356948009601","0.11724614864069582","-0.7597959206561337","0.32772865787074384"
"-0.18910113279820495","-0.09070521475537632","-0.13644630983164616","-0.11392054153232604","0.23751949122641375","0.6638038144137003","-0.08376348753575126","-0.9083453244178891","0.27374625297326405"
"-0.14075797408191063","-0.1094021281076898","-0.07559571998869702","-0.0768460172078819","0.061640877243698315","0.79075409571031","-0.3999621777672903","-1.023622827976523","0.2685980672200984"
"-0.027164549159616056","-0.08692324467116667","-0.012021062537722838","-0.22301932613971673","-0.044621512001247296","0.6842381743547719","-0.6908326507428839","-1.1109846531728234","0.24303691636946004"
"0.056946384963004144","-0.14841635396951727","-0.04948060633935912","-0.512681798120176","-0.19462619152164048","0.19127016175263606","-0.8956596309942096","-1.1806946930908622","0.09910508312373341"
"0.13481439852963045","-0.19963550938077163","-0.09745847942656899","0.054728156798198674","-0.14910807483133373","-0.06711528173976376","-0.8776874636343801","-1.1961696887047646","0.024820848567261983"
"0.09225133311589594","0.003570543056216504","0.02345687180985732","0.1828662774839141","0.20604524165523624","-0.17507277195575274","-0.7949597661284373","-1.1529373267041185","0.14595684216690788"
"0.04014518759994227","0.35065619927415276","-0.059340120183719675","0.26030985526205136","0.5175352466691758","-0.05277725341056535","-0.7437181912839008","-1.103675916966428","0.2810190868150378"
"0.049976535810499566","-0.02673476443784419","-0.09962905945388842","-0.08253683009011176","-0.43612183086310985","0.40349627910736596","-0.8591858835926335","-1.1401404420106103","0.2224114864631266"
"-0.12642159421165322","-0.018157036078766148","-0.24113394216734707","0.03033400744784511","0.35270887848675686","0.17791987505004292","-0.9559848129074349","-1.181974381560213","0.13110064899348703"
"0.017742307356748924","-0.2746205190976333","-0.020525770960654707","0.2129233199781141","-0.00335724149661544","-0.2482918502719201","-0.932328425173334","-1.1783859767801776","0.14718260067956637"
"-0.1128362134212347","-0.0918353392957828","-0.11053359089465584","0.008241888664688267","0.012359300934299725","-0.6276137574915739","-0.6972413305766214","-1.1131746355018157","0.2104971137200861"
"-0.1052491970761959","-0.09466168936420755","-0.15916614891874512","0.17147694972265895","0.0038097258644862303","-0.830695377428494","-0.36646985967967055","-0.9941240298582917","0.28337254315934207"
"-0.09042177934604385","0.06692430684834481","-0.023446037524526894","0.11241226179763761","-0.04909937079127643","-0.7638590029894072","-0.07682539502009657","-0.8357065129514393","0.3847836307732876"
"-0.017103087128441465","0.08797807000045828","-0.032107705112136474","0.1706489850671493","-0.047570053973089034","-0.6524407767548948","0.09459285861970149","-0.664558074674241","0.4871916686441953"
"0.03237812403960874","0.11725639759277273","-0.0356186337957169","0.17032165020334317","-0.0720486962523076","-0.4460828639533134","0.18620911641678475","-0.5044914746883283","0.5919531628594074"
"0.07831616006175247","0.16536978795272608","-0.03777062655353501","0.040171382854819325","-0.10617711225755365","-0.2363054721544673","0.23508226610537505","-0.41962306310756703","0.6266993308315667"
"0.0854708705262174","0.15223001273568354","0.0025439218435022014","-0.040862288179591796","-0.08767931931894588","0.08883868550170884","0.24338568606386946","-0.44000572996475285","0.5933423558404204"
"0.07596784370825632","0.06894357349039468","0.02183874673716011","-0.03325367809529768","-0.12744394988887314","0.41538800876428406","0.22622156963959855","-0.5412066603605277","0.4988282027910332"
"-0.05278517161411902","-0.0054707648822580664","-0.19646253779920322","-0.08873019826324398","0.13372219794818643","0.4774676913406036","0.15252175155161657","-0.6841096036595803","0.40567055582898814"
"-0.1445225976744362","-0.04915236354726806","-0.09665096582934547","-0.11323698931673083","0.07431099185321954","0.5510508021972889","0.01013760394118607","-0.8403239455728083","0.34067266776441746"
"-0.18752210909187714","-0.09401664585355272","-0.15124590685902103","-0.11288077196494178","0.23099057686019278","0.7249855500567423","-0.23779471414836573","-0.9762083912873802","0.291789418279597"
"-0.08580024654703543","-0.0923806659352253","-0.05544298934494541","-0.16877801370783896","-0.0006810567296402555","0.7385275605640083","-0.53557541581425","-1.0847444432188154","0.2564712296681971"
"0.0009882881410102759","-0.10329446974593406","0.014951130760842049","-0.28012963237789545","-0.14593695623337083","0.6080340292063577","-0.8049628794341408","-1.1630429078126003","0.1849523063162832"
"0.09029382512971593","-0.1521661238140646","-0.08785712210305993","-0.2598444983179085","-0.05141129574647051","0.060990196152089345","-0.9091735862957866","-1.2063148478071437","0.041992908157265633"
"0.16064010150208943","-0.12634360903970276","0.03722281012774279","0.13987950786937126","-0.17279932237943543","-0.12125420116558612","-0.8179474220538004","-1.1895865490531556","0.07468633920689279"
"0.07208671897642237","0.10343730119059613","-0.08966008724468683","0.3660005062874604","0.4093821527507278","-0.21450234986104846","-0.7732259823444578","-1.135945174657481","0.23955576219350996"
"-0.04379243904271512","0.2789639237421151","0.07959971933855849","-0.09424867896717588","-0.17021216826290872","0.3087264743925388","-0.8435821413887507","-1.116406838336774","0.3355408254580872"
"0.13274722542140732","-0.08448329747868977","-0.0317855257741138","-0.11654884793876952","-0.20656395723231138","0.005203422759522613","-0.9108454158176311","-1.1701273687202436","0.194496879268184"
"-0.09415751835857568","-0.10641062197131965","0.004969147462989548","-0.13654515711892753","-0.14604704789790385","-0.02274553957127982","-0.9410219386869259","-1.1910905128212586","0.11009931980993827"
"-0.005866985510852218","-0.25224654611936487","-0.07319176646652785","0.17526055564841828","0.02688781070707996","-0.3417754066769173","-0.8875233939878991","-1.1725812043418853","0.13124774001500603"
"-0.10662602872256714","-0.09632155978292961","-0.11335472535452105","0.08185940325973132","0.016460694097566918","-0.6468589444669536","-0.6152659563555086","-1.0968948873453321","0.18763263159729646"
"-0.08933379349961063","-0.05894227512202109","-0.18242088831704836","0.14781256456867325","-0.001795375838479145","-0.8526586740397408","-0.2971725259992127","-0.9626991027037178","0.29440436977326845"
"-0.07064547024362032","0.06578275641644524","-0.03312793968254161","0.10362235795484308","-0.04638537193083119","-0.7947046935892909","-0.01574788982204096","-0.7953237665114097","0.38677753128721204"
"-0.0135310274025412","0.09761321268135047","-0.013070210638463343","0.16336097059946533","-0.018939519962741385","-0.6744768798742451","0.15313475570962623","-0.6130275266197636","0.49122850001255053"
"0.03395907338460287","0.14169741821388032","-0.06163461534104782","0.10518201230591943","-0.06784606662361109","-0.4168389165317087","0.23023396049202555","-0.47045439993652294","0.5778324247935817"
"0.07857612128169669","0.19149353077554185","-0.013332497663648466","-0.043189253961413744","-0.08540568711663285","-0.14652048636113196","0.26096775986860177","-0.42020354035139634","0.5903351616226981"
"0.07872439545899822","0.122096820716205","0.014559765475231174","-0.07078358298027211","-0.1339489312845435","0.2864476829128432","0.2734507536317081","-0.4825124954106121","0.5145342551998973"
"0.03517511420234196","0.01528343216925498","-0.03202302977329718","-0.044420610699084526","-0.050016003563366836","0.5107645343799744","0.24664575363146674","-0.6040169366757779","0.40995253889987515"
