"AccX","AccY","AccZ","GyroX","GyroY","GyroZ","MagX","MagY","MagZ"
"0.040671849775162604","0.12981449106107662","-0.02490617080646299","0.11951735384142992","-0.05806705485661002","-0.43351160688742857","0.12047835238292852","-0.5008766845790281","0.631291839392327"
"0.0940109817291184","0.16694863841358812","-0.015403945586960918","0.020516849782458924","-0.09992821364677543","-0.16387513100942208","0.16088089916083947","-0.4451904471653185","0.6526036940657493"
"0.07938200106352379","0.13241128458223125","0.0029441677134303696","-0.08269568377401768","-0.13650257924229928","0.19739561596775065","0.17102333159336322","-0.49244657187887164","0.5779958592619361"
"0.05407429489228704","0.02958033857932402","-0.049988658372394884","-0.09718795349423523","-0.05454890818566249","0.4345361203955257","0.16414096672843645","-0.6162333441254568","0.45509313905937837"
"-0.13059060192409208","0.008230125478835563","-0.12731996050650388","-0.122498640463246","0.11314941646283615","0.5457844647777965","0.0889643658961583","-0.7616692790339463","0.3451834590910007"
"-0.14519657120762494","-0.08571937119475938","-0.0840508623596254","-0.1077108066160035","0.16869066121976078","0.5817508797809652","-0.06882847714060654","-0.9025669373088617","0.2810027433682023"
"-0.1665711604030389","-0.1038242156242496","-0.11282395554765036","-0.07528925110560382","0.1556352257843739","0.7220732897325992","-0.34777323286037515","-1.0290977837990034","0.25975626248212186"
"-0.05214008266092408","-0.08792352953551544","-0.031378671097251835","-0.1806968537487805","-0.028442345249587806","0.7040658133949802","-0.6606004002228609","-1.1231482899639726","0.24669784846060008"
"0.02465631298793216","-0.1106901376941825","-0.012215196241403168","-0.2968237104320091","-0.2094502734807214","0.5008628492778874","-0.9135760707033107","-1.1990061116007482","0.16406538126058262"
"0.12122324082321317","-0.16115102939725967","-0.12431501860379239","-0.09356897774997841","-0.12992101234086684","-0.0449845301598788","-0.9652077391029442","-1.2327133697367416","0.057891813238787976"
"0.10983212529299055","-0.027026644029621974","0.050312378360997334","0.15312694235752602","0.09117655620027207","-0.07645878361305658","-0.9037680041751557","-1.2076736922642892","0.14098843432893216"
"0.07202509853910226","0.2752037667234832","-0.04540792906640584","0.28796002375767665","0.4062469336085909","-0.03381115804958266","-0.8864645686240643","-1.143768424784543","0.3138530715074498"
"0.022117358406476904","0.01470486657274172","-0.005622291749289178","-0.013693494483681401","-0.38813622490902966","0.386775051079577","-0.9957464917019719","-1.1677394964217642","0.2944207132201039"
"-0.06784366598422145","0.023057193254183542","-0.16028758084532402","-0.08349187769274614","0.18115495228254627","0.2068604620212161","-1.0945794802683508","-1.2122119688978634","0.17862739239096545"
"0.08198161326296603","-0.3465309252854478","0.00564159356850354","0.12708456569294854","0.14835481614286206","-0.029833495823523713","-1.1477993867137368","-1.2264996246948423","0.1304632545669046"
"-0.13096610146401153","-0.05009448023674297","-0.06584979501351114","0.03712042937422613","0.0035287527902214413","-0.5225054286260383","-0.9666566580218761","-1.176261957774348","0.19018220930362612"
"-0.08190082824787209","-0.13266939805723546","-0.15249951492427594","0.17176577460248793","-0.029714382634355566","-0.7384009939891886","-0.6677335395160645","-1.0976204839001187","0.2224114864631266"
"-0.12230072746587074","0.011618006178274768","-0.09133087624763775","0.08624569043473372","-0.008727082099067794","-0.8752044227158162","-0.31358431913865353","-0.943596124315883","0.3266990207201107"
"-0.05949602236601248","0.08325190579195679","-0.019670756563594533","0.11943070637748122","-0.0785752173214735","-0.7918409709372166","-0.04943525468720914","-0.7751126042944462","0.40872678038721666"
"0.013523233038987498","0.12144242874887401","-0.0279173084656749","0.13304398571341933","-0.04903235847373457","-0.5902397499984027","0.1035650103869344","-0.6185684457654064","0.5051040863758446"
"0.05122049838889933","0.14300620214854223","-0.05423068632302676","0.06591819539237184","-0.0748153476479643","-0.3124101150751399","0.1642802858552568","-0.5125258074495103","0.5710008640163649"
"0.08793491776355539","0.14587306219589696","-0.008492785735941196","-0.08052564617690278","-0.08346232990791898","-0.05208559158358134","0.19668591475367775","-0.4952566094455904","0.5536114365834498"
"0.0690288047744118","0.07793367266063209","0.029732966619582347","-0.04192131273896463","-0.14724369642543703","0.22343122326559098","0.22427110186411311","-0.5610616206324142","0.4615161136657088"
"0.014850960899369279","-0.012934364949019915","-0.0652240236069671","-0.047563988141222986","0.002611880688425525","0.4167713324182521","0.18983141371411458","-0.6716821135757817","0.36249116928973857"
"-0.11400122481431807","-0.012292437590590488","-0.03978631266834354","-0.001053266167887057","0.028986732224373143","0.5794210715216506","0.09623682431618225","-0.7949675645663327","0.2965943916492183"
"-0.1679479920494102","-0.07034219867989001","-0.10737788558376707","-0.07758925989864175","0.22491638893443439","0.6070875446010112","-0.09683162163150333","-0.9232926134464919","0.26635901500364223"
"-0.1327569454236273","-0.10487332020679606","-0.10268563266077019","-0.055147566735931915","0.08543742986222297","0.7211025362912181","-0.39408291061547035","-1.0357336941091422","0.2756584362530113"
"-0.033480643984927574","-0.09176159035978204","-0.02095947391568523","-0.15364359000480168","-0.08077465731507948","0.717365135541901","-0.7013094490797767","-1.1140453513675597","0.2787800345985816"
"0.06655147063027665","-0.14160236777000745","-0.0490799474189976","-0.35503155121353785","-0.1656433641847871","0.36092874070280595","-0.9072231185203012","-1.1870931354376162","0.20000462085172943"
"0.14198643974209166","-0.19663361607031682","-0.10242334563558507","-0.04808194742571625","0.017525232627660432","-0.11948500301866914","-0.9270900260048877","-1.2067502057400155","0.1596363071681766"
"0.10715548754689817","0.006055674455961505","-0.01681451281689352","0.182346392700222","0.24144449839672255","-0.1750606375377355","-0.8348050363990666","-1.1573832546852652","0.23321450482135672"
"0.022649797497696","0.44408883016529704","0.007263023044667651","0.04253974686941676","0.5398647081929449","0.09559998322092801","-0.7950433576045296","-1.1089265974901563","0.32463974641884447"
"0.02228007487377533","-0.011956931867657306","-0.1076732166436212","-0.0020090839702010133","-0.3732977831676183","0.36740851992402457","-0.9349197609321931","-1.1655231287635068","0.22061370731122748"
"-0.06707341051772003","-0.10193374994084903","-0.1418552052565268","-0.05696234973085718","0.1824760522569429","0.17031159495321874","-1.0485205769415327","-1.1989401482775859","0.16762825267070994"
"-0.030187801865634068","-0.2598187960270518","-0.11761121007032062","0.17979510626173287","-0.05545596776953263","-0.37024275134541723","-0.996888908541899","-1.1824625101516149","0.19408829309729783"
"-0.09202005943903427","-0.07367336540882718","-0.07279730330266676","0.02890528704229121","0.014827986846600662","-0.5932248168306494","-0.7468389397246775","-1.117858031446347","0.22437270008338023"
"-0.09434045403186975","-0.06318128086595394","-0.17766874308121391","0.21150807806695218","-0.038535357590213586","-0.7580587511771554","-0.43663097194641487","-0.9950739017118304","0.32325055343783154"
"-0.09541881168497172","0.06165073856558395","-0.08268779592952946","0.06949577290385317","-0.06957163380031393","-0.7499286911055889","-0.15267072766111228","-0.8301392084765316","0.4122733083505085"
"-0.0279251764327862","0.09819385571268066","-0.02175046549557423","0.1415932021563564","-0.09076667251998147","-0.7062447862434407","0.0401469438582962","-0.6666029376922757","0.4932060570796396"
"0.03215089867699082","0.10610057262589233","-0.029406355277946362","0.08400729761605931","-0.08719587331382248","-0.519496092957757","0.1434102806575636","-0.5190165984486917","0.5770969696859864"
"0.06616538007769282","0.15374654015203787","-0.020139568805460858","-0.027408825277159054","-0.08225371489511048","-0.2974362432418369","0.18526174635440643","-0.44025639059277005","0.6078226497366259"
"0.09713812264118078","0.15116013380496784","0.012966216903319025","-0.10280078365891127","-0.08089910876194292","0.05545932841982069","0.21931134094930751","-0.4587920844014083","0.5642183335796546"
"0.07405375887400033","0.06525612669035508","0.03044176116323223","-0.03884725326798512","-0.0979106642293545","0.4113108443104836","0.2032896413649638","-0.5643465941259024","0.45666210995558115"
"-0.06490706701818486","-0.012362031656957432","-0.129713587767839","-0.02643548543213548","0.08988896238464637","0.485961783952688","0.15210379417115547","-0.6918009271403177","0.36322662439733355"
"-0.14250067707487002","-0.04946605620462354","-0.09176044869833463","-0.028382165122182633","0.06769113219890603","0.535397402955019","0.032567983359267576","-0.8253370785503079","0.3165987705758047"
"-0.1776243263473341","-0.09328954366762941","-0.18088227545277344","-0.11212982727738652","0.2266275963288068","0.70074098285825","-0.21567083680928922","-0.9607465883381106","0.29107030661883737"
"-0.07218598117662313","-0.10301401604564935","-0.0833445461185757","-0.21541360430422088","-0.02090681014200592","0.793108172805659","-0.5379159771448325","-1.0715122005924353","0.256356825540349"
"-0.00016709505874183984","-0.11178079097306746","-0.02784708989200329","-0.2653899360106245","-0.17631028915921773","0.6428840777519382","-0.8323530197670279","-1.1654967434342423","0.1820595162264092"
"0.09251350882030636","-0.16231439289473695","-0.07549865313685686","-0.2148552095365516","-0.08150221961981965","0.042111468600830954","-0.9260590644664168","-1.2118953449466836","0.05612181794650912"
"0.15497390972663846","-0.10626520153413499","0.07458735232970573","0.13948478053360502","-0.14781090782748774","-0.0652781308519501","-0.86080198546375","-1.1932409171563532","0.11403809049728086"
"0.0871170027400642","0.11738104368178812","-0.09462082294936928","0.33489406672988187","0.32757925940856025","-0.17991440474464085","-0.833161070702586","-1.141908259071363","0.24200727921882692"
"-0.04828880532841707","0.24001202092479534","0.06848866268110985","-0.08458171023930075","-0.043156814203546695","0.3434794475939812","-0.8969413669609569","-1.128293429170641","0.31975305581504593"
"0.1049391737239737","-0.013953346726721001","-0.027248166763627808","-0.06728783918474235","-0.08073636456219842","0.10968318877176389","-0.9935173856728458","-1.1779374261826732","0.20082179319350177"
"-0.03321105457165206","-0.18585172937048272","0.08121681178517229","-0.11171584494963167","-0.23065727868566427","0.048867912552843215","-1.0557094438854642","-1.2028055990149031","0.1346471769567789"
"-0.028685803705956324","-0.20691691841408927","-0.15407530232755348","0.22144365393306825","0.04695081991970112","-0.43523469424587996","-0.98630065490355","-1.1749426913110999","0.15684157775931526"
"-0.08864056357975937","-0.10852960548458185","-0.16136564247639992","0.11069856751065248","0.041405550643112396","-0.6429273930293603","-0.7166066892046545","-1.1009582280521366","0.20284838060109717"
"-0.10918712814868428","-0.034879347637593636","-0.14427981130036413","0.16576784459803995","-0.015917503771309113","-0.8656667701542471","-0.3721819438793062","-0.9638600571913764","0.3253588580796041"
"-0.0837590695608067","0.06993035502843345","-0.03184335283478454","0.13464215004847288","-0.07538734564412515","-0.7828857704404762","-0.10335175676669722","-0.7907459118839382","0.4158688666543067"
"-3.13375327709588e-05","0.09493436048492734","-0.04533357998840061","0.16594113952593734","-0.04524376923556454","-0.6627064943974996","0.037555608099437136","-0.6169985186741409","0.5285896194783813"
"0.041125337681065306","0.11911570175391945","-0.05228934928622346","0.0766855869123953","-0.06849225682847901","-0.44266095807244515","0.10384364864057513","-0.48017739377066265","0.6116960466366267"
"0.06862345783516544","0.1727031328564668","0.010141158464336872","-0.04235166180990977","-0.055166378825869604","-0.16007948505362207","0.1339644438591417","-0.4333170489960841","0.629968020198656"
"0.07135112500591352","0.13094669303630005","0.018561604598862812","-0.0167348204682803","-0.13002153081717963","0.28846199630370895","0.13627714136436","-0.48195840349604785","0.5746454526606696"
"0.050257679055772574","0.03968290409402408","-0.008647266598018732","-0.005451683987842274","-0.07114642326254758","0.5248647281160345","0.1154071361666668","-0.6007319631822897","0.4736429512176101"
"-0.12344648247229158","0.0080275755841855","-0.1648208093514764","-0.07224407412260721","0.15650399261536296","0.5636463280992081","0.03775065487698571","-0.7480808344624892","0.3825445785568313"
"-0.16426039400353468","-0.0814782880160096","-0.13926950954367817","-0.129594105011044","0.17485340113655665","0.5678691055692159","-0.13589670479193836","-0.8880022355546008","0.33379207664669447"
"-0.1610830902042164","-0.1082387646102125","-0.11335266010235423","-0.15111155855830116","0.13538314610440247","0.7402991855945288","-0.4224761486614641","-1.0140053754594431","0.3024616890631435"
"-0.038679868383812044","-0.08834940367298481","-0.02366908475854259","-0.23036510558336648","-0.07939133161725113","0.7610733092400837","-0.7528017983525898","-1.1180559214158343","0.2597889493757927"
"0.029455004544235906","-0.1374578853102446","-0.017374196154099575","-0.48657202898363844","-0.27136726159234276","0.3347426666215515","-0.9955235810990594","-1.2022778924296038","0.1384388566226025"
"0.12349934572672483","-0.19970821959936394","-0.12025886334817361","-0.0414399379392497","-0.06780059397956484","-0.09954087356549501","-1.006251153864229","-1.2313149472856983","0.03724677119625198"
"0.10255571446481841","-0.04330230710281086","0.03252436144824546","0.17151545970663618","0.045017035899207504","-0.14067897752762137","-0.9431674532399598","-1.1969876339119783","0.131721699973234"
"0.0572506358722722","0.2349534671455861","-0.05354915310797879","0.3832529791092433","0.42036738623348235","-0.11268244827819127","-0.9005358004329229","-1.132396347871343","0.2772110637023787"
"0.0023285326527227083","0.06615046237904074","0.014487481649392751","-0.061840601951168236","-0.40498503617669673","0.3826250801176729","-1.0044121413901996","-1.141037543205619","0.2983921708011174"
"-0.06643794975785638","-0.06476324747904136","-0.18328003321844216","-0.06971396817530556","0.11824953248718253","0.17065135865770212","-1.0735422921184734","-1.1859057956206929","0.17848030136944643"
"0.0690798341990675","-0.3050549391655658","-0.0356021117783824","0.06357486286735958","0.09243064385712683","-0.07909437920640619","-1.0674122505383765","-1.1953121655036532","0.1300056380555121"
"-0.1274999518647552","-0.0990502704149589","-0.005781109640917023","0.06386368774718855","0.04509840799907976","-0.5690773249762953","-0.8638391424284344","-1.138926716864422","0.16695817135045662"
"-0.08754294953999486","-0.07558564415780547","-0.19222464035290499","0.12499539906218576","-0.05312968303200814","-0.805771282821035","-0.5680089085380351","-1.033359014475295","0.26121082925047656"
"-0.10669342607588603","0.05593571538422681","-0.0923036100182062","0.07163885351218402","-0.013057753120210342","-0.8615653368644122","-0.22946343036450692","-0.8798095908178291","0.334396784179606"
"-0.04475525837584187","0.09811283575482065","-0.017516698553609603","0.14449107845064024","-0.03604154205883446","-0.760437097108539","-0.02533304574728324","-0.7067218308396558","0.43920730873532443"
"0.0153227423726014","0.13902791447413332","-0.015015678179600256","0.12016239607304792","-0.027078883917316512","-0.5702907667780216","0.08269500518924087","-0.5560616007367032","0.5431516306087641"
"0.07838355741507134","0.1807220312497924","-0.04027990793621161","0.04052760020660837","-0.08318949404364143","-0.20009394190734986","0.13452172036642315","-0.4740032267226607","0.5970850051657376"
"0.0777163236172145","0.13736596662059433","0.014638245057570028","-0.0545602894802797","-0.10186199766726903","0.10024261155433299","0.1594877078926355","-0.49236741589107674","0.561162109021426"
"0.0782776472884274","0.06909107136239627","0.030305661045439324","0.002004234009982264","-0.1313952833267877","0.37425233168576116","0.17305739084494084","-0.5769060108560259","0.4580186160429234"
"-0.012558579876083168","-0.03184837023970193","-0.09239654636571275","-0.03860752861772709","0.029458211744221217","0.4524465213890065","0.1286424532146032","-0.704162453900954","0.35147568612264757"
"-0.14045950008864133","-0.022621443500335226","-0.07204968201828081","-0.02919568853370086","0.012511993286412958","0.5644714685243821","0.001499818078322409","-0.8378701099511664","0.29497639041250906"
"-0.16791910746941638","-0.09724082468941835","-0.13427986030866035","-0.0648097217158099","0.22211144478589664","0.6058498339632503","-0.18281938670504294","-0.9592030465761099","0.25616070417832365"
"-0.11117053597492546","-0.11944652544751598","-0.09118837384812771","-0.128949062779426","0.11236920162288454","0.7092108066342999","-0.4744979106161947","-1.0635834091483132","0.2608676168669322"
"-0.011287658356355873","-0.09668822702811664","-0.0037220532306054465","-0.21656890382353672","-0.10256562700145853","0.667055838442327","-0.75868106550441","-1.1400217080289181","0.23718596240237025"
"0.06910197904372943","-0.12716419579238764","-0.0198710860237753","-0.29187517749093966","-0.2049054023731504","0.23053471157289698","-0.9167525467948153","-1.2002858000700989","0.13438568180741176"
"0.13473159606698157","-0.1550225966873347","0.025630549715426967","0.01893794043939397","-0.1383932839158017","-0.08731908773850731","-0.8830373181042829","-1.197119560558303","0.12930286984158793"
"0.07789155673584358","0.03674229511066855","-0.0731504614231916","0.2476978355095203","0.3079542235570162","-0.16415907639102606","-0.8591858835926335","-1.1581616218985817","0.22483031659477268"
"0.0057070656926644855","0.3594645228979093","0.05692118529479577","0.03815057144561607","0.3458640489092671","0.10714224163894895","-0.8445573752764934","-1.107963532971985","0.36422357465429583"
"0.12053771345802694","-0.06298704071057158","-0.054053074636680916","-0.11410346395621772","-0.2096417372451267","0.2654794085790121","-0.9460652910778237","-1.1514069776067506","0.27665538650997357"
"-0.15513286672549312","0.02016540398902572","-0.22260863023104335","-0.04615548547725712","0.26520993815353133","0.10341212154044217","-1.0259787422219948","-1.1823305835052902","0.19585338535552604"
"0.04218058767017223","-0.2582191712180205","-0.02787600342233866","0.20088894998524096","-0.03367696456842891","-0.14866585146658412","-1.00742143452952","-1.1726339750004153","0.19098303819856297"
"-0.11950855139980313","-0.08826838371512478","-0.07890838446426349","0.04616931285926729","-0.029562886930769867","-0.5893175342290906","-0.7811671725732194","-1.1142300486724142","0.23478347571755956"
"-0.0932909809587616","-0.07947564085249514","-0.20672684106825898","0.17926559398204647","-0.04567934929958662","-0.8421502680367907","-0.46382606550175337","-0.994928782400873","0.32421481680112285"
"-0.10271698223007251","0.0590051253262316","-0.061459068906868794","0.09407765842609556","-0.04137141460046721","-0.8319573569022894","-0.1431134355612341","-0.8253370785503079","0.40823647698215326"
"-0.025238910493362535","0.11103448031608618","-0.009266222672412294","0.13786736120656287","-0.09119267939578327","-0.6971682415665277","0.0563636902201888","-0.6455210596095685","0.49874648555685597"
"0.02935583415292385","0.13474839875127043","-0.02555879049117558","0.09137233205169766","-0.09282012139322839","-0.4497959958665961","0.15310689188426196","-0.5066023010295255","0.5788293750505437"
"0.086426564996279","0.17993260601936137","-0.0548068916775673","-0.013479764072607973","-0.0934375920334355","-0.1882022122504317","0.19116887733159035","-0.43834345422106","0.6051913547961191"
"0.07789829647117547","0.13742828966510207","-0.016655488400048997","-0.1290645927313576","-0.1380654022192576","0.13764331476714223","0.2248841060221228","-0.4797948064963207","0.5408472046049662"
"0.07157642472986518","0.049423995950579405","-0.0035659201667944582","-0.09137294591367891","-0.10238612972232856","0.38825545007768314","0.222014132009623","-0.5953229706829718","0.4186799395100036"
"-0.06206674998546091","-0.024751852905090497","-0.08524870861637637","-0.06829583801534539","0.08789055934366598","0.4730507631823197","0.15801092514833937","-0.727658589611406","0.31032288699099336"
"-0.14962554014000803","-0.04107945184870248","-0.056444636645849235","-0.062107283590210303","0.10414343964462153","0.5408578910627876","0.02406951662322428","-0.859862281893515","0.25620973451882995"
"-0.1805512971200394","-0.10383460279833423","-0.13635956924064008","-0.05248267584471009","0.1944712570969354","0.7047696096399815","-0.22032409564508984","-0.9869340276335886","0.2286219962605963"
"-0.0706550984369516","-0.09310776812114861","-0.08608926624826886","-0.10332066844260338","0.01787226070064505","0.7371199680740057","-0.5374701559390074","-1.0799027352986943","0.23689178035933223"
"-0.00034232817737091134","-0.07169668618052427","-0.011207353183998906","-0.2891505961245532","-0.14421378235372304","0.5974770855313386","-0.8095046829684853","-1.1525283541005116","0.1963763756542603"
"0.10780057650009309","-0.17613972160136435","-0.10053363990295208","-0.20027918060118363","-0.09565378510642694","0.04598962859914834","-0.8986967879588939","-1.202251507100339","0.056633367832458585"
"0.11909829855500244","-0.11755605976411541","0.035101796152426853","0.16023203440131834","-0.027829421873785315","-0.09852158245204488","-0.8559815436757647","-1.177977004176571","0.15721747703653052"
"0.104418866156352","0.09792378918648058","-0.1435734950593144","0.3300899462287269","0.2902198923789746","-0.2777542172178356","-0.772585114361084","-1.109493882069353","0.2941755615175722"
"-0.05460490015372857","0.3212293350924282","0.10956859353116762","-0.15137150095014723","0.0422096984536147","0.20507670257267838","-0.7719721102030743","-1.091538665504544","0.34966156352391303"
"0.13120864012707076","-0.08827773217180096","-0.008600798424265463","-0.06630198359492616","-0.2268136436152277","0.1793808589793214","-0.8828144075013704","-1.1439003514308679","0.22306522433654447"
"-0.1774510188673712","-0.18721244917556776","0.028826114393135194","-0.0005574501241806836","-0.08435502970945873","0.052792183339626195","-0.9451736486661733","-1.166341073970721","0.1885968949605878"
"-0.038814663090449786","-0.17566191159347186","-0.06935246268842431","0.13753039884676244","-0.09560831246238068","-0.3673062221852395","-0.8413530353596247","-1.1280955392011536","0.2685326934327566"
"-0.09250146910559764","-0.11769109302721543","-0.18243121457788244","0.07667018291880441","-0.018326117927527884","-0.7158067076410443","-0.5895755093698302","-1.054071497948293","0.2838301596707345"
"-0.10174453470361451","-0.005234872158796378","-0.11148360689138936","0.13624031438352643","-0.00957933518037692","-0.8883824006825642","-0.24102691789059874","-0.9007595422542115","0.37916148506189395"
"-0.07719264170888225","0.07854963208384996","-0.042115917112507485","0.08747704717240448","-0.05422102648911841","-0.7310960743427961","0.01844102389968079","-0.727196846349269","0.45698897889229023"
"0.004058718994351491","0.13468607570676275","-0.008984315751642456","0.13478656248838736","-0.038386973172799474","-0.6093393239575753","0.14416260394239364","-0.5587792896509947","0.5530067290505384"
"0.06007747343433235","0.12428851444805952","-0.062020817496241665","0.11310544150922712","-0.1256489770975734","-0.3239863498636092","0.19236702182224574","-0.44187908834256534","0.6208810637581476"
"0.08643648203541021","0.12919126061599948","-0.005422168814325094","-0.020584856116400273","-0.10352055252643001","-0.18249418201511106","0.238816018704161","-0.39838287304926984","0.6183805163923243"
"0.09172149363687628","0.14101186472429547","0.013219623344186856","-0.10663252706464206","-0.13427681298108757","0.15054705488670012","0.2602711642344999","-0.46333036103498226","0.538134192430282"
"0.025054920191846637","0.007005166039036491","-0.117200224889125","-0.16105676192041155","-0.010229593990238444","0.41929529136584287","0.2359460446916612","-0.5949667687378948","0.4096256699631663"
"-0.14465739238107395","-0.01587289649755852","-0.0668225287840796","-0.08317320757533486","-0.02604091098453424","0.5351061769226046","0.1727787525913001","-0.7441889983959068","0.3049949233226377"
"-0.1625465755905691","-0.10009522012787153","-0.1008826675191433","-0.0973708759181269","0.15624790983047085","0.6394136341990009","0.00807568086424421","-0.890060291237268","0.23870590295806676"
"-0.1507424105664351","-0.10284782126029547","-0.09850762752730947","-0.09716869850224664","0.0647282304447339","0.727412433660195","-0.2914325779742128","-1.0158655411726232","0.23104082639224235"
