"AccX","AccY","AccZ","GyroX","GyroY","GyroZ","MagX","MagY","MagZ"
"0.07351458004744935","-0.12641631925829505","-0.06710340307876603","-0.3849826912518005","-0.1635875220144851","0.2209072643180002","-0.9174770062542814","-1.234692269431614","0.06049695866435817"
"0.1441181217456343","-0.20076771135599503","-0.018654652497523024","0.06662100259995563","-0.17747103823092492","-0.15082335099005356","-0.8788020166489434","-1.2335577002732203","0.04848289089562143"
"0.08876043905977826","0.03264040006465266","-0.023714520306212454","0.23840730187502224","0.19012502964493497","-0.1753008990144773","-0.8098947765235823","-1.1849163457732566","0.15591000128969482"
"-0.0083992003569756","0.4033711077535922","-0.02932374519127388","0.1430180715635126","0.568153479383829","0.09688865841436137","-0.8193963409727325","-1.1314200906885394","0.3308339127694787"
"0.0751032319471085","0.007424600128573391","-0.06329714333533148","-0.08229325444145599","-0.14633903013862193","0.3163711577434148","-0.951275826420906","-1.1716313324883465","0.2767371037441508"
"-0.0931369298654613","-0.10255698038592613","-0.043656595228949255","-0.06711069325844725","-0.006368009191888901","0.024474577389459306","-1.020545296276","-1.2055628659230921","0.1984029630618557"
"-0.028387329712687023","-0.20998113476905172","-0.09982732366190236","0.12794141283644114","-0.018191375303327647","-0.38434294508147726","-0.9576009147785514","-1.1843886391879572","0.20221098617451475"
"-0.08787030811325794","-0.13118403216313504","-0.08938953921083445","0.0831879977069445","-0.008605263278964917","-0.647659816056093","-0.7017552702856018","-1.1100083959900198","0.23777432648844632"
"-0.10193709857023986","-0.03873818281002945","-0.1806881417490931","0.13278404332157326","-0.012721734213679026","-0.8434365163466206","-0.36786305094787436","-0.9738600969827983","0.33679927086441663"
"-0.08456783780063318","0.061511550432850066","-0.028146551456191035","0.07298477745218694","-0.08485762209102266","-0.7969374265044673","-0.08526813410541165","-0.8170784704903737","0.4086450631530394"
"-0.010295954443235299","0.12733195645485276","-0.021835140834413524","0.12759482298064637","-0.04136902130341214","-0.6646722701162963","0.08219345633268763","-0.6504155381882196","0.5025871955631859"
"0.03775547001512166","0.1376879690172175","-0.03419774030495023","0.09680705354047918","-0.05704990360820681","-0.3607050987838482","0.1587632484331694","-0.5225126545762997","0.5859878047644693"
"0.0940414068200452","0.16536978795272608","-0.0017697703573180507","0.009588679079330687","-0.10571759922298092","-0.08899363742488967","0.1976054209906921","-0.48318532130686875","0.5993730877227"
"0.08275186872946744","0.12414309401087487","0.015342496046452925","-0.06732153542072239","-0.14325407023464143","0.28101146364110924","0.1868778482255226","-0.5461143316038113","0.532168834335344"
"0.03834086416966273","0.007754185162278338","-0.07263001787715496","-0.08903442713666382","-0.010536175342992442","0.47669108858749876","0.13658364344336502","-0.6672493782592674","0.4211804868758268"
"-0.12710519593817324","0.00525648528189095","-0.11074424661567066","-0.05284178144529743","0.11186421594426553","0.5453233568931405","0.045273887725286434","-0.8097037709608158","0.32905247706441504"
"-0.14778655521373593","-0.09018481733373691","-0.11142991033505224","-0.10593934735305258","0.2270775361751593","0.5769699190821634","-0.13628679834703536","-0.9470789877788583","0.2665878232593385"
"-0.15542171252543108","-0.11347390034886029","-0.09311318886759651","-0.09804480063772779","0.10398787533604222","0.7169040276572449","-0.4204699532352506","-1.0567232235394222","0.2599360403973118"
"-0.04715267851532749","-0.10690920632738132","-0.03112877558506758","-0.19349179592520319","-0.05879222386429511","0.6827335065206313","-0.6932846673749227","-1.145325159211176","0.2164624718150241"
"0.0218111818585426","-0.1461415628449858","-0.016296134523023705","-0.296852592919992","-0.19555239748195113","0.41747512866325337","-0.9139661642584077","-1.2083333254959134","0.13940311998589383"
"0.11775805404329","-0.17837296402955732","-0.08708884829700587","-0.017049639587293858","-0.1199960094535067","-0.08502810961684798","-0.9232726819300092","-1.22244947665267","0.060300837302332794"
"0.08571638945616471","0.011788875191966742","-0.0052055238620265145","0.18257745260408517","0.18153548651430185","-0.10007964172546151","-0.8449196050062263","-1.1826735927857344","0.16694182790362116"
"0.057441274100231296","0.2783510804711226","-0.09098597913578015","0.28434971275981474","0.5401997697806541","-0.03245938388245952","-0.8074148960661796","-1.1151535351966881","0.36155959282011807"
"0.0427120639420582","-0.02294448461436686","-0.024338226460589682","-0.06837863448089636","-0.4166882587759711","0.30858086137633167","-0.8865202962747923","-1.141063928534884","0.31100931175808205"
"-0.07279255735649297","0.06257104218948117","-0.17531435561104824","-0.10722943181628856","0.25032363047101863","0.059315646465707","-0.9153036278758835","-1.1734914982015268","0.20270128957957811"
"0.07458812360388568","-0.2992173473300101","0.08981858705994432","0.12421557188664759","0.06513987753820531","0.01159025233872903","-0.9353098544872902","-1.1890588424678563","0.1342549342327282"
"-0.09843243619765846","-0.09719200497122064","-0.12385240211842652","0.08293864556069218","-0.017243868999226884","-0.504109650911867","-0.8029288201825633","-1.1413805524860636","0.22092423280110096"
"-0.08582913112702922","-0.12038137111513166","-0.14991175395926049","0.1830010624278343","-0.035555702756655996","-0.7150786425600084","-0.5029190124875527","-1.0470661930284448","0.27134376628845336"
"-0.10813765507557617","0.016493537950113046","-0.08082080797073142","0.11142062971022487","-0.03714245870416498","-0.8222983601605478","-0.17744166840977607","-0.8943347145781925","0.3617557141821435"
"-0.05395981120053364","0.09223369522292653","-0.05308240611827928","0.14131400477252173","-0.07149823792964233","-0.7249803276620953","0.056809511426014155","-0.7225794137279","0.45772443399988527"
"0.014157730979518023","0.13930836817441802","-0.034598399225311764","0.14892935410401187","-0.0502960193188096","-0.5396392268664142","0.18626484406751295","-0.5515233241031292","0.5484469073834488"
"0.06303621724503088","0.1695558191088274","-0.0576590049199347","0.03535474660887178","-0.07628722533683009","-0.28792285951630237","0.24589343034663638","-0.4538844131581246","0.5950420743113067"
"0.08804891557259759","0.15073425966749848","-0.0221407981551017","-0.05848253134835692","-0.09440687734073737","0.052333502338573645","0.2605219386627764","-0.4610084520596653","0.570167348227757"
"0.07057316698474711","0.07603074236832995","-0.022421672449788134","-0.09438731490949379","-0.10446829816023627","0.3465858586064006","0.25021232327806836","-0.5630405203272866","0.4743784063252053"
"-0.04998336735472014","-0.001401381691127036","-0.12197302264662759","-0.13406126315239852","0.12546053651409741","0.4609406140010908","0.18676639292406622","-0.7049276284496381","0.3688651135555626"
"-0.13320947051019683","-0.05891526846940108","-0.058805219872515364","-0.08470301668882892","0.15165038618768842","0.5513420282297032","0.04056490123875761","-0.8493873061753239","0.3037528213631438"
"-0.17245398652844343","-0.08213164126593211","-0.13854254078096034","-0.07978817998373952","0.19426782684725477","0.6799911280487297","-0.19611043140370737","-0.9724748671963875","0.2782897311935182"
"-0.06905681834396117","-0.08670303658057275","-0.050711496630779083","-0.13409977313637572","-0.024554673513338038","0.7434784031150519","-0.4962595582255384","-1.0795729186828822","0.25276126723655074"
"0.004342750697623889","-0.08447083286978822","0.0007930010564789777","-0.2837880808557289","-0.2197103379557908","0.5469736377434883","-0.7651454729888756","-1.1644149449343784","0.1740185403833695"
"0.08993305672559335","-0.14890455115149437","-0.08184310779330337","-0.274728607125094","-0.18027598237946266","0.02709148597906233","-0.8606905301622936","-1.2089797660629051","0.033262238857770104"
"0.1393098019959993","-0.11837664651680026","0.0257422798576515","0.08538691779204227","-0.14728198917831808","-0.13176746093574315","-0.8015634927397235","-1.2016578371918774","0.047515358842963006"
"0.08519742983560939","0.11960389893589653","-0.00437632511705149","0.28200060373720587","0.2494620435311948","-0.19200271197343866","-0.751074241180017","-1.1535837672711102","0.1825171327378017"
"-0.0383621380038802","0.18964461378847974","0.03802825847279948","0.028635717154450856","-0.16792417627826528","0.3639623452071218","-0.8343034875425133","-1.1449029939429365","0.2592986459707293"
"0.024758371837243595","0.006612011499933677","-0.0013133496284525958","-0.04290620557918137","0.02032060358797792","0.19985647594165165","-0.9625049480426288","-1.1917633387175153","0.17251494327450842"
"0.046958097201147186","-0.2974723020837942","0.01843066761148693","0.004861867371009947","-0.061609134498108196","0.05606119555347695","-1.0363998129081593","-1.2116182989894018","0.1278973334137395"
"-0.10143643251701395","-0.09376112137107111","-0.09439364521101996","0.1145014284284004","0.06507525851771853","-0.5103224729367059","-0.9064707952354712","-1.1692038821959698","0.18813927844919529"
"-0.0911438938458889","-0.14802164135430176","-0.1265289689266149","0.14891009911202327","-0.023586584854563705","-0.7163891597058728","-0.6265229418025955","-1.0905887936510053","0.2243563566365447"
"-0.11208521434139587","0.022003933802003217","-0.11633281897906397","0.09742225053451484","-0.00969086282314301","-0.8396748467612689","-0.28170810292215026","-0.9413797566576259","0.33158571132390924"
"-0.05837915193958545","0.08874672088272004","-0.03389621348859567","0.10015645939689562","-0.07510493659162731","-0.737672928908153","-0.0372587630031078","-0.7764582560869594","0.41112926707202724"
"0.0021754443787555516","0.10689519144336565","-0.02047827016081803","0.15821988773850992","-0.03417955694999284","-0.5469441465128068","0.11200774947224917","-0.6239774382647243","0.5071797041239464"
"0.04383374846515087","0.15289479187709917","-0.06511456524212605","0.0851231244017985","-0.054541728294497285","-0.31481272984255804","0.17888093034603259","-0.5150192210650495","0.5805127500745948"
"0.10005161394322235","0.17116583109194325","-0.004622503175335483","-0.04419340179361907","-0.08367054675170976","-0.024584146589255566","0.2025094542547695","-0.4980534543476767","0.5746781395543404"
"0.0806057444359279","0.09497279302904045","0.029568985597537477","-0.08833835917627603","-0.15095570015784493","0.2919567086926808","0.19905433990962398","-0.5869060506474478","0.47882382386444683"
"0.00781949130954459","-0.02115477451958708","-0.09464560597537103","-0.10041316465232522","0.019722279324211334","0.41123803780238","0.14811926714409243","-0.7166163293140179","0.365694484869486"
"-0.1346825840898808","0.0008153451302714198","-0.08874931103912273","-0.08071241959919219","0.07960735823608137","0.5365380382486418","0.030478196456961766","-0.8484506269864176","0.28074124821883517"
"-0.16082312898427217","-0.08772825066272463","-0.12067397903370282","-0.10791298403188376","0.2274963631597959","0.6579307560933447","-0.16448498961548058","-0.9812479891769885","0.21531843053654282"
"-0.13581871090297037","-0.11925955631399285","-0.0776898856858444","-0.09855505792542563","0.04984910265338646","0.7503222148767883","-0.45591273909835583","-1.0947180976809723","0.19111378577324659"
"-0.025980281379870136","-0.10523687129975771","-0.004497968469676719","-0.18752274840873814","-0.13489907021540481","0.6727832837464752","-0.7620247245480992","-1.1714598278481243","0.1546188689896945"
"0.041305384896360015","-0.1481462874433172","-0.020719904664335036","-0.365515894351329","-0.31028227170772155","0.2510879888105377","-0.9452572401422654","-1.2226077886282598","0.04747776891524146"
"0.12698571453197682","-0.1907129268420842","-0.05520961585009564","0.10581742704154314","-0.18961462748833158","-0.13801183244742687","-0.9313810551109554","-1.2250616242499015","0.041865429271949146"
"0.09077090210928024","0.03109686599567834","-0.10079179642380358","0.2801617520022949","0.2507544239409306","-0.25501431785348405","-0.8683530821374147","-1.1751669666098519","0.18106256596944695"
"0.017465978208141556","0.36546830951881887","0.043307043011170984","0.0443824496027255","0.3641727713805246","-0.037504874894037636","-0.7960464553176363","-1.1123303049653368","0.3329258739644158"
"0.07027661863014406","0.031051162429706014","-0.23245988306673662","-0.0386758838392866","-0.19645706376876623","0.2569367782948586","-0.8683530821374147","-1.150100903808135","0.24251392607072583"
"-0.033471015791596295","-0.09539606257199007","-0.0305649617435279","0.07981837410894004","0.13697468864602158","0.025936289383818853","-0.9280652598926303","-1.1715389838359191","0.1911955030074238"
"-0.057868857693028276","-0.1626052337691063","-0.016595596087211447","0.13534495725605666","-0.038032765208649656","-0.39873436484995173","-0.8352787214302559","-1.1352855414258567","0.2442299879884477"
"-0.08148681593462759","-0.1302907351918578","-0.16721443661281152","0.11990245368120186","-0.03559638880659212","-0.6573188127978347","-0.5963464189333009","-1.0593089858073887","0.2808229654530124"
"-0.10834947532886405","-0.025932874598511634","-0.13373256848445517","0.1352486822961137","-0.022934650736763634","-0.8235118019622741","-0.2763025208015193","-0.9188598781299778","0.36981303347201855"
"-0.0650707463048164","0.08400601463050011","-0.05338806343896745","0.10413261524254092","-0.08599683148923423","-0.7294215246564137","-0.02856524948951624","-0.7487140823648483","0.4494546499011494"
"0.007220617684339757","0.13326303285717","-0.02589542659436594","0.11492503825214953","-0.0636075375390886","-0.5770132343595855","0.11610373180076863","-0.5887134457020979","0.5329206328897745"
"0.04585181778738455","0.12668795166160643","-0.04529020969289756","0.1001949693808728","-0.08975909445979854","-0.25477162949313875","0.1803298492649648","-0.4885943138061866","0.5860531785518112"
"0.08558544602685947","0.13502885245155513","-0.04235755161602449","-0.06724740370156629","-0.0919298148887437","-0.10470285499003885","0.21605127338171057","-0.4679477936563512","0.5790418398594046"
"0.08442910000777425","0.10421426181212559","0.014373273204568047","-0.10618003475291003","-0.09183408300654104","0.15193523230787503","0.23873242722806884","-0.5284097756670195","0.49645840299989336"
"0.019032485263138787","-0.006139075662862427","-0.09946383928054345","-0.12175732327168502","0.04217619229484376","0.3737669549650706","0.2151317671446962","-0.6553100167668706","0.3746506937353108"
"-0.13360422643677886","-0.0011655928394061932","-0.03337990044689267","-0.024980770787396973","0.010130902046327456","0.5300825278634577","0.130425738037904","-0.7831337443909957","0.30131764778466225"
"-0.169344080082444","-0.07906742491096963","-0.10742332113143695","-0.11857062209757221","0.22928176276287537","0.5787658129487184","-0.027840790030050147","-0.9172635657094473","0.2497540730188286"
"-0.13356571366345377","-0.10064574035435633","-0.1067645056902239","-0.09284499005120715","0.054413120137397956","0.7230197743379457","-0.311605987537804","-1.039942154126904","0.23180896839350837"
"-0.03116987758542336","-0.09298727690176702","-0.022723199266142687","-0.1425142046353926","-0.06037897981180409","0.7204958153903549","-0.6113650208045379","-1.1290058330607948","0.22015609079983497"
"0.04115614789972536","-0.14505090956610084","-0.012056171824558641","-0.35382811421425053","-0.19773508439617166","0.3735485354407599","-0.8283406289146009","-1.1986631023203036","0.13829176560108347"
"0.13682187683919975","-0.17353254090612505","-0.1274955069406829","-0.042006997453313884","-0.05654491792958782","-0.0880277377507155","-0.8403220738211539","-1.2281355151092699","0.035380349567643965"
"0.10869503566056785","-0.009701876373886607","-0.0006047616100193928","0.1738549412332507","0.1905462499266266","-0.1052755995204537","-0.7817523129058652","-1.1946789176012937","0.12564193775044788"
"0.044114891710423876","0.31922461049409684","0.005817759578332604","0.17735934977517537","0.4485364925716132","0.012105237039381688","-0.7474798077080511","-1.1454570858575008","0.2651169130441483"
"0.017313852753507525","0.016514312298282284","-0.05805966384029623","-0.03370135665903256","-0.4280564197875363","0.3697383281833392","-0.8619165384783128","-1.18419074921847","0.1924212615200823"
"-0.09390718533196273","-0.09492552358595684","-0.19277399742927698","-0.03943741877243561","0.2707863202918359","0.13774767076209068","-0.9508578690404449","-1.2187819158848399","0.1011136927398098"
"-0.005982523830827433","-0.22553073437372578","-0.06737188586045159","0.1371645539989791","0.022017451200019952","-0.29974178266511686","-0.9022912214308597","-1.2027924063502706","0.1444205581643759"
"-0.09961670397740438","-0.11809619281651558","-0.11487268569712789","0.032542555028937194","0.028785695271747572","-0.6165228994237951","-0.6804951715328116","-1.1431219842175515","0.16963849663146988"
"-0.10005960087064268","-0.04814273022624313","-0.15006251736743778","0.17822582441466223","0.003361700655777811","-0.8142168377610504","-0.3773646153970243","-1.0194539459526586","0.27301079786566895"
"-0.08455820960730193","0.06056631759114977","-0.023185815751508576","0.07929271282765132","-0.04587559965810207","-0.7512634770874879","-0.09287495842980423","-0.8571445929792236","0.3744709158201209"
"-0.01640022901525893","0.09266060807780431","-0.0317855257741138","0.1481110169444965","-0.028524435338576584","-0.6591875131724931","0.09055260394191054","-0.69202520243907","0.47656842820115514"
"0.031156306305870886","0.10532361200436287","-0.029451790825616227","0.16267741838387012","-0.0488026019564482","-0.4271531718463826","0.17687473491981925","-0.54902991048759","0.5801368507973794"
"0.08805064864739721","0.1757050261669216","-0.042338964346523185","0.026922022867465718","-0.08515439092585089","-0.2280079571142626","0.22237636173935588","-0.46805333497341106","0.6203744169062487"
"0.08132882175510608","0.14638203372604328","-0.0038261419398127705","-0.07533064933837931","-0.10769685588752077","0.13746129849688327","0.2374506912613213","-0.4957579307016248","0.5756424029176318"
"0.06077455463151612","0.042883192429495065","0.013176666099117168","-0.09825660554960236","-0.08470684437655347","0.40398165582805645","0.2065775727579247","-0.6142808297598494","0.46388591345684865"
"-0.11110313862160655","0.005095795698801899","-0.1501884977496133","-0.04734448123255298","0.09939513828736987","0.508580339136867","0.10938854988802615","-0.7557985432724916","0.35917344958214287"
"-0.13520250652976926","-0.07308025776859546","-0.10658689400387808","-0.06587452277277932","0.1456934698176283","0.5627726500019653","-0.05071699065395701","-0.8942951365842949","0.3011542133163078"
"-0.16142970516414207","-0.1006249660061871","-0.1405065955915986","-0.06328568909991246","0.21350275527882298","0.7588405763249073","-0.33540169439872536","-1.0249289017751388","0.29412653117706583"
"-0.05680012823325757","-0.09257698352542458","-0.04800188578792173","-0.19741981429087702","-0.008064617474225431","0.7538411961017947","-0.6631081445056278","-1.1245467124150157","0.2731742323340234"
"-0.007628944890474195","-0.1413530755919766","-0.01726473778925854","-0.41987273673513836","-0.2499711859200497","0.4738516347714591","-0.9281488513687225","-1.2124230515319832","0.16002854989222734"
"0.11110304681271786","-0.17817560772194957","-0.12239639934082405","-0.08479255240157589","-0.1356697118671362","0.013983644948454063","-0.9891149012653218","-1.2540327157828337","0.015281178649411871"
"0.09918729102787446","-0.054107045585631126","0.0543995123991183","0.11025570269491475","0.054329354740470646","-0.16253063749310928","-0.955343944924061","-1.2270009459508764","0.09908547098753086"
"0.0789978361496062","0.14936315268832884","-0.018189970759990317","0.34666849433090896","0.2162741932685898","-0.1865179550296356","-0.8953531289152046","-1.1694149648300893","0.24267736053908026"
"-0.0017461187650697153","0.11051512161185524","0.029550191802819484","0.0377577696090487","-0.19986990536929083","0.27979802183938285","-0.9605544802671434","-1.1576734933071797","0.3098652704796008"
"-0.021175812907567624","-0.03091040841986087","-0.1454590702876138","-0.06842099546327127","0.09100423881230728","0.171862373575825","-1.0506939553199306","-1.1944414496379092","0.2119026501479345"
"0.06900858556841613","-0.30670649984502013","0.08386239981085848","0.10039714679675307","0.06181558792871816","-0.14244332190733147","-1.0563503118688382","-1.2004573047103213","0.1828276582276752"
"-0.1199033073263851","-0.10459286650651138","-0.057822159841112844","0.06516339970641884","-0.0021639435849593615","-0.5245440108529386","-0.8695233628027058","-1.1474227928877407","0.21589045117578343"
"-0.09301176335215484","-0.10209994472620294","-0.18806935299327923","0.18788220289694363","-0.022019693272611766","-0.7234756598279547","-0.5993835758979852","-1.048438230150223","0.28049609651630353"
"-0.10459447992966969","0.030511029377305852","-0.07140119283790183","0.12069190835273434","-0.03550065692438947","-0.7905304537913522","-0.2855533108223925","-0.8944006779013549","0.3806323952770842"
"-0.04027814847680246","0.09442019536773874","-0.027859481405004164","0.14528053312217273","-0.07586600505513842","-0.7127973719727629","-0.07002662163126162","-0.7299277279281928","0.4748360228365977"
"0.021863174102531444","0.12181636701592029","-0.036861915600137726","0.1146073308843377","-0.057653014466083535","-0.5248109680493184","0.019471985438151564","-0.5844917930197036","0.5754626250024418"
"0.0662260376956798","0.17366914004633632","-0.08201245847098196","0.019854478058051184","-0.06470366759030897","-0.2929707774114839","0.06831727130137762","-0.4981326103354716","0.6327137192670109"
"0.09514510587799506","0.17518566746269065","-0.0014337538297777362","-0.09593637901497641","-0.10826167399251642","0.04678321953747736","0.11459908523110855","-0.5071959709379873","0.5928683958821924"
"0.07298310377556338","0.05361833684594839","0.045444579003821414","-0.06147283160418604","-0.10790746602836662","0.4154365464363531","0.11267648128098737","-0.6124338567113019","0.47287480921634417"
"-0.04100026297664752","0.005740319850752484","-0.1659174582520536","-0.05463538394903524","0.08507843530396302","0.5017850650471994","0.033515353421646195","-0.7423816033412566","0.3679662239796131"
"-0.1442433800678295","-0.04842630007875322","-0.10501523710493414","-0.09657179375060014","0.1163971205665612","0.5301310655355268","-0.08777587838817856","-0.8857990605609762","0.2966761088833955"
"-0.1748225220879352","-0.0991105160246497","-0.14511623842792298","-0.09147499737121849","0.24367026465793426","0.7654902373983675","-0.353541044710739","-1.0247837824641814","0.2653293778530091"
"-0.0688161135106795","-0.10927748201867438","-0.057469001720587984","-0.1465384979610094","-0.01650051093392328","0.7847596932097818","-0.6834208731960396","-1.1261166395062812","0.25096348808465163"
"-0.01552406342211359","-0.08250973440261224","-0.009054947375747423","-0.3214315901934361","-0.20246663267403783","0.6081311045504959","-0.9594120634272163","-1.21283202413559","0.17416563140488853"
"0.09176924947579937","-0.16224168267614464","-0.10621927911818554","-0.1741886664566347","-0.14567369355731352","0.011000276934729686","-1.0334741112449313","-1.262212167854973","-0.001992210310971523"
"0.11582760128037085","-0.08247337929331608","0.01891930627415465","0.1021493510677154","0.05288380331921058","-0.12202352326788064","-0.9696102235104683","-1.2380827842421618","0.07128853660980349"
"0.05673167625171688","0.13493536788479357","-0.055996476925651024","0.4252096066523962","0.3483291448759854","-0.21198081779706107","-0.8920930613476077","-1.175193351939117","0.24815241522895484"
"-0.004287961804524359","0.13893442990737176","0.06966792166835951","-0.022369793873743216","-0.2503780464194109","0.3057171387242575","-0.9423594023044015","-1.166209147324396","0.3080348044340308"
"0.04819435722488194","-0.036381333010229486","-0.06962920647877711","-0.043965230138554204","0.031095226929886588","0.09859233070398517","-1.024223321224058","-1.2002726074054666","0.21435416717325148"
"0.023337250501548508","-0.27976217026951955","0.06897399694031067","0.01073435110265221","-0.03719511123937644","-0.1303647222129475","-1.0118239189370442","-1.2112620970443246","0.15022248179095943"
"-0.10544176094282125","-0.11879213348018502","-0.051744122714185097","0.0957980919602767","0.027703925002857586","-0.4982608614275461","-0.8533066164408133","-1.1681088910314736","0.17996755503147205"
"-0.09097058636592611","-0.13205655478624295","-0.16467417644763274","0.16016464192935823","-0.028683589592738496","-0.7001047707267054","-0.5845042931535684","-1.0758921652504194","0.23360674754540747"
"-0.12498699340529439","0.01970213602485173","-0.0852714263902113","0.11586853285959078","-0.020744305271966915","-0.8397233844333379","-0.25186594595722434","-0.9239786320073812","0.33813943350492326"
