"AccX","AccY","AccZ","GyroX","GyroY","GyroZ","MagX","MagY","MagZ"
"0.007492132736281502","-0.01232256039543588","-0.030242782405505226","0.015147595266438644","0.034256772339629225","-0.08486065464820976","-0.2984263981405961","-0.5871435186108325","0.7200204122619661"
"0.0015823476695494675","-0.011608961535822582","-0.021812423060578588","0.018042583311924206","0.04805652315914176","-0.10556925243647147","-0.29825921518841153","-0.5726843581736315","0.7274566805720943"
"-0.0012647090985063308","0.0044257294857772385","0.0014670993637264176","-0.031413863610787233","0.007682559158994587","-0.08554018205717652","-0.2912932588473924","-0.56608802585739","0.7285190046163983"
"-0.0007062738852928146","-0.003632027325798881","-0.006887052176244856","-0.07062954304436335","-0.042501050810458525","-0.024834115600411197","-0.2773334823399901","-0.573383569399153","0.7177159862581681"
"0.0064802096171652805","-0.017620019178591368","-0.015494816682300645","-0.027408825277159054","-0.032832130707990494","-0.009741083782178639","-0.26618795219435953","-0.5823809666785063","0.701748438699937"
"0.004315791756296334","-0.018856092894660982","-0.0120313887985569","0.01903614089853581","0.011810278589867508","-0.008822265649911454","-0.2668288201777333","-0.582565663983361","0.7023858331265193"
"0.0033163852885107654","-0.01077071658719386","-0.018041272603979856","0.02144397764670987","0.010661735333141171","-0.0035738871690846915","-0.264488258847151","-0.5806659202762835","0.7038894302353803"
"0.0018817844821518916","-0.006423061002335899","-0.015602209794974868","-0.006422520683907335","-0.0048872763039193535","0.0035303292033023372","-0.2666059095748206","-0.5805076083006937","0.7047066025771528"
"0.0018740819274868784","-0.01162350357954105","-0.014396102529556651","-0.012607512935524527","-0.025030221638179723","0.017924903920461217","-0.27056257277651974","-0.5762331849597694","0.7092827676910777"
"0.004534351744916111","-0.018476961040572403","-0.007856688068563095","-0.004462747599307931","-0.017365448489624253","0.023171826271125906","-0.2704789813004274","-0.5810485075506255","0.7059487045366467"
"0.005612709398018078","-0.02065203529389154","-0.009371963583353068","-0.015201160356388545","-0.037420081162552674","0.012336033670070039","-0.269670930364869","-0.583766196464917","0.6999833464417087"
"0.005475026233380947","-0.01341736854395468","-0.019829780980439058","-0.022130069223485184","-0.026317576124099906","0.012666817905220638","-0.2617576039614714","-0.600547265877435","0.6828227272644899"
"0.006541830054485386","-0.018747027566772483","-0.03648190920144431","-0.00040119586419321896","-0.02184689722523598","0.03274855165871052","-0.2626492463731218","-0.6046501845781371","0.6749288424429692"
"0.009767274820460024","-0.031722685433278046","-0.03550917543087586","0.03180701433497278","0.007199591813282199","0.012964596523364283","-0.26485048857688404","-0.599373118725144","0.6848983450125916"
"0.02121712233000339","-0.04108049056611095","-0.04193210966966122","0.04688367306204425","0.04387064660983073","-0.06514707913736366","-0.2700610239199663","-0.5889509136654827","0.6988066182695566"
"0.02892449109168306","-0.043734413544730996","-0.05508983122442055","0.0503717148607786","0.12357461843470514","-0.17512859027863217","-0.2676647349386555","-0.5683571641741771","0.7225373030746248"
"0.02202396493116361","-0.035830812783744705","-0.029224613087266905","0.025731101612971","0.09010196582254727","-0.2938929931807959","-0.2553489241277338","-0.5411275043727328","0.7415610751910845"
"0.028862870654362955","-0.008936341643850217","0.012515785405737325","-0.02913118431053906","0.09709278652039606","-0.3436441070515759","-0.22584113306717707","-0.516153790223443","0.7471505340088074"
"0.004277278982971268","0.03857355390178681","0.02576499763148643","-0.17956080922145326","0.09632214486866471","-0.2992321371083918","-0.2066986850420563","-0.5185944331804523","0.7376386479505774"
"0.006372373851855078","-0.003013471109059843","0.018212576982671577","-0.13914458103738814","0.027703925002857586","-0.23166527070466578","-0.19332404886729973","-0.5411275043727328","0.706912967899938"
"-0.0770867315822383","-0.048059632833566186","-0.027326646345966665","-0.02306489908453157","0.04651284655862398","-0.06335118527080867","-0.18312588878404792","-0.5489375618351625","0.6923999871100617"
"-0.10339095576326125","0.008247160444334337","-0.025664118351682995","0.02527764655163954","-0.016824324025473753","0.04087133107946663","-0.18396180354497013","-0.5513913974568043","0.6969598087771511"
"-0.1506172440531286","0.003657919964616316","-0.14882130081518374","0.14017796024519452","-0.10641165536895016","0.3113960463563368","-0.1874726455408437","-0.5421565322140665","0.7092010504569004"
"-0.08789919269325175","-0.04427974018417347","-0.028008179561014628","0.09662990761418408","-0.17132505139351456","0.5103276953313529","-0.2175377131086822","-0.5392937239888177","0.7258223358885497"
"0.023652092423480958","-0.031795395651870374","0.054477991981457155","0.039835383244618314","-0.20653045107354046","0.4595572903471228","-0.2155872453331969","-0.5572093625597293","0.7198079474531054"
"0.1184272134798131","-0.0026389096115684964","-0.030798335238377657","-0.05464501144502954","-0.2342400443770986","0.17918428140744175","-0.19048193868016386","-0.5827767466174807","0.6850454360341106"
"0.11784663342193766","-0.04534961911488919","-0.053419042221469634","-0.23840406473860576","-0.24961219136178972","-0.03222154928932115","-0.14219392932421943","-0.6290302288189651","0.6067603256923219"
"0.09674076710239939","-0.028246098267156197","-0.056097674281824814","-0.07322704146362509","-0.005598085529274058","-0.10819514049540727","-0.10265516113259508","-0.651602878005143","0.5463222592948407"
"0.10469249941082662","-0.028207665723043108","-0.012301936832409271","0.017442790311479408","0.056258352166854125","-0.04520294968418953","-0.09123099273332377","-0.6465237021216372","0.5444754498024352"
"0.09769617272666105","-0.026919656136550403","-0.018720740566861006","0.0856160521967066","0.1455091859443882","-0.1309908581826383","-0.11413505718259459","-0.6340566340439411","0.5765576359404168"
"0.0549292784601036","-0.03076602670008467","-0.0033191225328604223","0.10295806073123648","0.28323146497818086","-0.2477579358791605","-0.15069239606026272","-0.5924997404516206","0.6413594026429621"
"-0.14639046718070212","-0.011228790964325542","0.009855059081668404","-0.058696261759430345","0.2519510724684638","-0.4549895267779848","-0.20469248961584297","-0.5416156329641346","0.7190071185581683"
"-0.07052030373031382","0.047500291310108037","-0.20385614055639026","-0.09813144810167647","0.06656867588007993","-0.1869645016126709","-0.17615993244302883","-0.5614310152421237","0.6803058364518312"
"-0.07401533790956397","-0.16198200332402918","0.1517596300469702","-0.14997551403097395","0.17375009119417104","-0.09123607787447995","-0.1854664501146302","-0.5292409135388659","0.7162777629366488"
"-0.09363759591868724","0.116404649317834","0.1266213806725344","-0.15261344793341175","-0.21458628896089377","0.014105959882068078","-0.15690602911645196","-0.5978031916338785","0.6286442010049847"
"-0.025258166880025076","-0.023666393213247858","-0.015752973203152144","0.14960327882361277","-0.18284159682249382","0.1597279555585616","-0.12809483368999705","-0.5909825840188849","0.6100290150594111"
"0.003074717635895949","-0.05651894740807958","-0.07939165347129751","0.16374607043923728","-0.029524115518477796","0.23369451402459235","-0.14623418400201052","-0.5666685031012193","0.6561665654758766"
"0.03362401225667475","0.011028014690268428","-0.058483040534492686","-0.014886341237374987","-0.038631089472416245","0.2587084033253791","-0.17381937111244622","-0.5694785406679381","0.6708102938404368"
"0.04205542115686575","0.0253922299884058","0.044496628259254704","-0.054476530265129317","-0.23552763819272426","0.2831956588842166","-0.18521567568635358","-0.6031726061392989","0.6368649547632143"
"0.034053429679249285","-0.008953999839794067","0.007921012385013958","0.01827941971338395","-0.07679699760955921","0.22511062671918022","-0.20644791061377984","-0.6270249437948278","0.6240680358910596"
"-0.01721862544841668","-0.08652333846890888","-0.034621116999146696","-0.005620839092462098","-0.08878741585544159","0.19597346217612738","-0.24646036383659364","-0.6415632602198237","0.6251630468290347"
"0.010127369251049428","-0.03328595513301314","-0.030259304422839722","0.06275652570784421","-0.05377587323687606","0.05977190058315611","-0.25741084720467533","-0.6599802200467696","0.6070381642885244"
"0.015987087712458853","-0.016206324785674776","-0.05217162991271518","0.07654887646927624","0.07197992052158492","-0.0482050047016605","-0.2561291112379281","-0.6387532226531049","0.6367832375290371"
"0.006210620203889784","-0.004109629590209644","-0.019906195310611104","-0.030298036825048034","0.01989220341512104","-0.0743498217616562","-0.2587483108221511","-0.6164444267595767","0.6593045072682824"
"0.004045239523687714","-0.008540590311226249","-0.008746811752459073","-0.06018082164175118","-0.04810375921636883","-0.06142423968966724","-0.24531794699666631","-0.6233573830269975","0.6411632812809367"
"0.003304831456513237","-0.020251090374225258","-0.01037918706510729","0.017157816430048174","0.03061656751887332","-0.04357208390266933","-0.234283872152492","-0.6225658231490485","0.6353123273138469"
"-0.0010143760718933936","-0.014022940793087945","-0.009730904409944997","0.044188936933240094","0.06909121097611985","-0.05331359468692839","-0.2357327910714242","-0.6140301691318323","0.6493186612518246"
"0.002018504827455897","-0.009361177063911118","-0.022093297355265024","0.039726592539882734","0.03678648732683436","-0.035985645758276265","-0.23868635656001613","-0.5996501646824262","0.6670676445151195"
"-0.00157281128510691","-0.0023772566963769534","-0.01200247526822153","0.05318775743911091","0.02386507652653117","-0.024266224837203268","-0.24169564969933646","-0.5837530038002845","0.6907983293201878"
"0.0028908191432687395","-0.00783218503865526","-0.01125278873166877","0.018719396280323392","0.022457817858152162","-0.012912777963530943","-0.24685045739169048","-0.5705471465031693","0.7026963586163929"
"0.0001352302118599579","-0.015878090084600827","-0.017258542032758104","-0.021333875304756694","-0.005560989424920529","-0.0024997484861965357","-0.24654395531268566","-0.5700326325825024","0.7022550855518357"
"0.005322900778746916","-0.019710957321825096","-0.014315557695050983","0.00872538151352194","-0.012296684656699244","0.013237620928752709","-0.2498597505310108","-0.575349276429393","0.6951947165189228"
"0.004318680214295708","-0.017930595683721465","-0.008941565031789445","0.031426728243198","0.01086085764812269","0.013044926370638567","-0.25398359668489423","-0.5716289450030329","0.704314359853102"
"0.006346377729860666","-0.010711509694911536","-0.016389070870530244","0.01820625074382728","0.00499153595027799","0.015690229498401986","-0.2587483108221511","-0.562723896376107","0.712437052930319"
"0.002513393964683042","-0.01619282145936477","-0.02133948031437864","-0.005920543042764611","-0.002836460057433004","0.009249280414838575","-0.26167401248537914","-0.5651909246623813","0.718042855194877"
"0.004328308407626987","-0.011254758899537087","-0.010602234299122984","-0.012421702262834566","-0.007116632510713652","0.0030908205827170567","-0.25966781705916564","-0.5684495128266045","0.7155749947227246"
"0.0021677418240905384","-0.009381951412080355","-0.010362045472122747","-0.018978027034951852","-0.022105851966594155","0.006564904461059567","-0.2577452131090446","-0.5704811831800068","0.7100509096923437"
"0.0034540684531478784","-0.014495557213938092","-0.01867323976702433","-0.007681315785161865","-0.00601739117332168","0.012299873104378592","-0.25721580042712694","-0.574254285264897","0.7073378975176596"
"0.003744839891752165","-0.013096404864739966","-0.020507183691153397","0.007231001585286925","0.001578694349753386","0.02059544663770054","-0.2602808212171753","-0.5747687991855638","0.703399126830317"
"0.003955697325706929","-0.015264208096199869","-0.02421431133058096","0.010056671659613537","-0.002096213278300984","0.028455394564202735","-0.26526844595734517","-0.5784627452826588","0.7098711317771538"
"0.006180772804562857","-0.021633623244887996","-0.02632706429722965","0.001986230592472925","-0.0032825706284973707","0.027159438719959003","-0.2726802235041893","-0.5797028557581122","0.7093317980315841"
"0.009131814060596358","-0.0234202171874424","-0.033635991715577365","-0.011212488765950672","0.0011021889060896756","-0.003932095188954306","-0.2838257536498199","-0.5835683064954297","0.7107209910125971"
"0.017959904526035575","-0.04616916715016559","-0.05133520278515632","-0.017569524370985978","-0.0016577612578128305","-0.06128590732427043","-0.27496505718404357","-0.584887572958678","0.7076811099012041"
"0.03638730374274854","-0.06876230950161952","-0.051713143931682914","-0.029624112105447138","0.052108375073369094","-0.2127137366453038","-0.2557390176828308","-0.5831989118857203","0.7025982979353801"
"0.02896396668434126","-0.03281022255993761","-0.001493852667831965","-0.08343892646477752","0.10841786818497","-0.35330310379331753","-0.22834887734994397","-0.5724996608687767","0.6968290612024675"
"0.01865024598788746","0.00958430136424729","0.011319343520459787","-0.1108975077901163","0.028823988024628634","-0.3127741476156578","-0.18371102911669335","-0.5707582291372889","0.673899205292336"
"0.01832962714995626","-0.008477228549310075","0.0022624279731657234","-0.09375382567306893","0.029518044170597876","-0.265425648512296","-0.14851901768186507","-0.5673281363328435","0.6494494088265081"
"0.01889961619516729","-0.011343049879256346","-0.0023606390022429657","-0.013480726822207405","0.050602991225732356","-0.2243045327353938","-0.1223270218396332","-0.557829417797456","0.6428303128581523"
"-0.022292683333994673","-0.046234606346898695","-0.07516614753800013","0.10965879794326824","0.10091727521439207","-0.08924117955244185","-0.11112576404327443","-0.5399269718911769","0.659876527907523"
"-0.11884420605994568","0.01074288676164565","-0.07697117793179382","0.02680167916753699","0.11748128413250622","0.08847465296119095","-0.15509488046778688","-0.5254018481308134","0.7064063210480392"
"-0.12703779858485437","0.03079667666463286","-0.07314839617102478","-0.0020666563962469177","-0.08333548516400047","0.3195989129360068","-0.18733332641402334","-0.5433306793663575","0.7042653295125957"
"-0.10874423125544598","-0.008090825673362261","0.014630603624552825","-0.015988689528722164","-0.2859424406576968","0.4560140402860819","-0.19797730770310065","-0.582921865928438","0.6749942162303111"
"-0.02250450358728256","-0.10031335078364853","-0.031799982539281485","0.15286699996567996","-0.26344544834007316","0.44742287232985944","-0.20140455822288192","-0.5973810263656391","0.6651227743417013"
"0.06488386754530111","-0.009816135288817413","-0.07582289772704634","0.04255996461100479","-0.1512069963486269","0.1902897007768412","-0.18178842516657215","-0.6115235628516605","0.6478967813771407"
"0.11442477351200517","0.019409217715665488","-0.026196953410720494","-0.19385764077298653","-0.28486545698291693","0.13451263491868826","-0.14824037942822435","-0.6379880481044209","0.5977877733796617"
"0.11269266153171013","-0.07243833041016604","-0.03323120229088221","-0.07685660745347561","-0.1296170636148734","-0.028370085010641748","-0.09920004678744987","-0.67108844366732","0.5166262163948343"
"0.08759985663562728","-0.029057336563164907","-0.009685881912708492","0.07525205275884424","0.0777836658801208","0.0008760466062061417","-0.09351582641317817","-0.647394417987381","0.543805368482182"
"0.10790744944607017","-0.004030583195425696","-0.0034157763342672247","0.06322153376436883","0.11602615952302592","-0.014848217637284453","-0.12441680874193901","-0.6375922681654465","0.581836569268266"
"0.08162248165170975","-0.024689529860582787","-0.005096272022402158","0.03364875431868209","0.08298430038077997","-0.18183649655857534","-0.1471815540643893","-0.633317844824522","0.5983597940189023"
"-0.014551615895655559","-0.038255179215094685","-0.04599033017744683","-0.03822627977635286","0.20247683574613234","-0.26773118793557604","-0.15749116944909752","-0.6213784833321252","0.6129871789366269"
"-0.05489374595366659","0.044176395603030084","-0.07910251816794382","-0.043428978611671776","0.10425353130915456","-0.13056858043563752","-0.18228997402312558","-0.6142016737720546","0.6343644073973911"
"-0.12024029409297947","-0.06914975109497579","1.1833757232511979e-06","0.1177170120904961","0.15504647470882757","-0.03509497947580913","-0.2298535239196039","-0.5811540488676854","0.6976462335442399"
"-0.09793177014443255","0.0623768020340988","0.06384391055794963","0.11020756521494326","0.07273380909393082","0.0667564715938929","-0.26412602911741795","-0.5681988521985873","0.7271298116353855"
"-0.05636685953335053","0.018519036896613675","-0.0453501020057351","0.037594102177145615","-0.026844340805920013","0.14993548021863004","-0.26468330562469944","-0.5548214902612498","0.7406131552746288"
"0.009774014555791912","-0.030032692209710596","-0.025934666385535366","-0.05926813502149168","-0.26224879981254","0.2435039775497481","-0.25231176716304965","-0.5780801580083169","0.7133359425062684"
"0.04575938713140438","0.005416032275830691","0.009502375969141916","-0.07088370893861283","-0.19800792026044922","0.15138190284628786","-0.23052225572834165","-0.614597453711029","0.6612984077822068"
"0.05061392220902948","-0.0166550507061303","-0.028547210376552563","0.1313399189224285","-0.012795208433269563","0.11797827692836517","-0.2243922141482449","-0.6107583883029766","0.6580950922024593"
"0.04023761825592244","-0.006411427367361127","-0.04398910082780599","0.04974496487154977","0.055210088056735065","0.18424433372064056","-0.25470805614436","-0.5990433021093319","0.6954398682214545"
"-0.002439348684920988","0.0015504454402398785","-0.03685365459147048","0.07259871486281558","0.06676971283270551","0.1793905665137352","-0.3123861746479981","-0.6065499282852146","0.7189090578771558"
"0.0016391540102039504","-0.03255365936004753","0.018962676569657704","0.0373678560212796","0.03397436328713141","0.10387080254149474","-0.358250031197268","-0.6017346056943584","0.7425253385543761"
"-0.04414868219597201","-0.02018980604712601","0.002712652945530743","-0.03723657318813897","-0.038683742007627704","-0.03592011990098304","-0.36663704263185487","-0.6034892300904786","0.7398286698265273"
"0.00219181230741872","0.011917780022356859","-0.033080438882704934","-0.034720908484828776","-0.04031357730212788","-0.039143021326368196","-0.3548506445028508","-0.6089114152544289","0.7326212097720953"
"0.01589080577914618","0.004052944195054362","-0.012260631789073032","-0.05067174384818253","-0.031489491060098275","-0.0141048631895469","-0.3423397869143804","-0.6190961523507056","0.7126004873986734"
"0.013420211370342936","-0.009913774725212826","-0.005328819416385192","-0.0019463126963181867","-0.002428642239249699","-0.02119184868834942","-0.3231416112385317","-0.6220645018930143","0.7061121390050011"
"0.0023256441947233347","0.0011832588363486108","-0.01816725298615539","0.006793624442265943","0.012015144817781187","0.006184369112038186","-0.33180726092675933","-0.6186739870824662","0.7084655953493054"
"-0.005761075384208282","-0.0038116215657219366","-0.02265298069247108","-0.00830228927679412","0.0023694396967473045","-0.000276723105433881","-0.3373800259995746","-0.6190565743568082","0.7109661427151288"
"0.0010845700743229492","-0.009838987071803574","-0.012564223857594396","-0.02617361754109056","-0.011996804535699433","-0.04247998628111563","-0.33818807693513303","-0.6218138412649971","0.7097076973087993"
"-0.0001237681887511342","0.0013408322672122748","-0.012547701840259901","-0.023222790018838067","-0.006573593408919099","-0.04114034653200975","-0.3288536954381674","-0.6189642257043808","0.702483893807532"
"0.005078344668132726","0.004397393274874399","-0.0006171531230202659","-0.017657134584534096","-0.012001830459515072","-0.01273610083719959","-0.3121075363943574","-0.6248877321243655","0.6964695053720876"
"0.0018904498561500293","-0.002867427441430106","-0.007868666531130605","-0.012770217617828171","-0.0066939762507889355","0.002238013684463785","-0.313389272361105","-0.6252175487401777","0.6921384919606944"
"0.005916960307286124","-0.002603800963162485","-0.03703539678214993","0.006317448490387938","0.028934079689161684","-0.02622471990518958","-0.3143087785981196","-0.6245315301792885","0.6936094021758846"
"0.0018788960241525182","-0.006959662415547296","-0.01946216609474652","0.007222818213691771","-0.013916468103568143","-0.014615236811352999","-0.31754098234035233","-0.6173547206192179","0.7017974690404433"
"0.0033298647591745428","-0.0023943955336165747","-0.01630026502735733","-0.005022201391536617","0.0026125986775420457","-0.028935548890246222","-0.31651002080188156","-0.6114707921931306","0.7025492675948738"
"0.0051958086267741895","-0.009081762081034875","-0.013644350740837079","-0.009534416214144442","0.0012388461679339643","-0.030466912444024868","-0.30803941789120237","-0.6096897824677454","0.6998525988670251"
"0.003155594459878596","-0.021871489531425762","-0.015021873936100692","0.022283495297412702","0.024341342640489375","-0.027620177977174875","-0.3062839968932655","-0.6074866074741209","0.7086944036050017"
"0.0015784963922169694","-0.01323143812784001","-0.02583346902936158","0.04279006176526852","0.05270191274302553","-0.03544930448191322","-0.31285985967918745","-0.592077575183381","0.7243841125670304"
"0.003603305449782537","-0.009985446226396697","-0.024507577138268268","0.050455474075929006","0.04762333639217475","-0.024142453773427185","-0.31450382537566807","-0.5780537726790519","0.7436693798328572"
"0.002177370017421818","-0.00223682210275291","-0.014334144964552294","0.03638200043146344","0.03063332059825879","0.0013034208087741583","-0.3261230405524879","-0.5657714019062104","0.7597840184126073"
"0.0008698613630356702","-0.008751449945144006","-0.012103672624395318","0.005631393125834227","4.387294833934065e-05","0.008332403789454153","-0.3313057120702062","-0.5561935273830281","0.7704726326429896"
"6.590721987483917e-05","-0.01104389926561933","-0.02988755903281356","-0.03309097341299404","-0.036742778095968896","0.0302828379176026","-0.33428714138416227","-0.5625523917358848","0.7630036774391906"
"0.009196322955915855","-0.031120229336370167","-0.02364636698470766","-0.0038687310964597124","-0.043197500253482825","0.040509725422552184","-0.32977320167518204","-0.5733439914052556","0.7525438714645047"
"0.013370144765020343","-0.03360380266000247","-0.03538939080520077","0.06817006670543826","0.03397436328713141","0.02780741664208087","-0.3383273960619534","-0.5682648155217497","0.7617615754796965"
"0.010752238998248691","-0.04068577795089544","-0.059742844356248014","0.07998300429044253","0.04791292533583778","-0.011649585047933824","-0.34774536903501135","-0.5487792498595728","0.7881072117784362"
"0.028380498168466446","-0.06434360564602276","-0.07080226970952636","0.0805365853101147","0.08222323191726887","-0.13452440070926538","-0.3524543555215402","-0.5237131870578556","0.8090268237278077"
"0.03618703732145818","-0.06609696063150639","-0.022392758919452766","0.038688748471697364","0.0544394464050037","-0.3191325826567038","-0.3380766216336766","-0.48562596426387805","0.8323652658088254"
"0.04229323753214806","-0.007512260076849007","0.046644490512739195","-0.15445229966832277","0.04574459820394768","-0.5510213109666072","-0.281373737017781","-0.47471563061281485","0.8165611527189487"
"0.017983012190030616","0.04989453493661262","-0.009471302212576724","-0.24727098854935467","0.03185868869045276","-0.46251286594868807","-0.22274824845176444","-0.4979611056952494","0.7670731957012166"
"-0.03227711981851913","0.02393179331210843","-0.059567297922069","-0.08142196605397198","-0.006444355367945517","-0.23404847040325633","-0.18920020271341662","-0.5141748905285707","0.7339777158594374"
"-0.017459330281698354","-0.011415760097848678","-0.033301420864553816","0.016822779569446583","0.05874977440117818","-0.13491027520221438","-0.17482246882555305","-0.5124862294556128","0.725577184186018"
"-0.07866575528856617","-0.08325864965411325","-0.03837368018624412","0.10593295699347473","0.17549001815320425","-0.023936168667133707","-0.20029000520831883","-0.486773726086904","0.7635593546315956"
"-0.10685710536251757","0.008102882596298985","-0.0219342729384205","0.031196631088934255","0.112278256334792","0.13262694635880554","-0.24242010915880255","-0.4792275219171239","0.793876448511349"
"-0.09705560455128719","0.03259365778127188","-0.12234889854098738","0.05440467293279025","-0.19783320957542938","0.32515647638791345","-0.25587833680965116","-0.47623278704555033","0.801966454694895"
"-0.10134015058370126","-0.01080291682685618","-0.052999796031606795","-0.04500307420673959","-0.23557071753971545","0.6281043566069113","-0.27170498961644657","-0.5282514636914297","0.7668443874455204"
"0.02485754222855565","-0.14513400695877782","0.08415360036637896","0.12457178923843663","-0.25616982529267146","0.5549338159628131","-0.2615904210092868","-0.5632384102967738","0.7367724452682988"
"0.08180349168633759","0.00014609950399944337","-0.009276548933246356","0.08637951262905445","-0.10950140186704078","0.24739912573328962","-0.2643768035456944","-0.5636737682296458","0.7468726954126046"
