"AccX","AccY","AccZ","GyroX","GyroY","GyroZ","MagX","MagY","MagZ"
"-0.0004020229760247679","-5.426908409284976e-05","-0.02842122999437703","-0.02249110032327138","0.050997885239818304","0.005153428957291489","-0.17919708940771292","0.13675118243812637","-0.8959378935928062"
"-0.0008121840119367674","-0.0012403804928154474","-0.017750072048459364","-0.01713917530004084","0.020693957928568266","0.026329444527578186","-0.1691382484512815","0.13562980594436536","-0.8911656071168559"
"0.0035407221931292895","-0.0014415800548345104","0.012807812062124542","-0.0029748180933890965","-0.040478714798927465","0.03083859426279326","-0.17083794179849016","0.13454800744450177","-0.8939930234193881"
"0.0020579804201140877","0.0051217636340134464","0.0004883763618742062","0.01414922393182989","-0.0249536361324176","-0.00821263248872414","-0.1700298908629319","0.13652690713937418","-0.8924730828636916"
"0.000566573273100748","0.012934061134795945","-0.013074341142796967","0.012419162901654447","-0.026407324763664895","-0.0062650583969533664","-0.18028377859691208","0.13403349352383492","-0.8974578341485029"
"0.002394004367375329","0.01742319003068641","-0.032529016554166124","0.004167339809981253","-0.0009038726854669324","0.021975615342984083","-0.17822185551997036","0.1279648677928929","-0.8984547844054651"
"0.001423482479583564","0.013026922471112435","-0.018460518793842695","-0.0015513928106320617","-1.5959478037317973e-05","0.03909970604894618","-0.17869554055115952","0.11880915853794989","-0.9037990915206561"
"0.0038728948630580326","0.014187585303327714","-0.00967989268142474","0.025025406156588912","-0.014894129950562746","0.0008906079078268578","-0.1764942983473976","0.11467985450798278","-0.9073783063776187"
"0.003973990893036329","0.021370316182841482","-0.017128431146248946","0.030051921815212167","-0.015338325883983062","-0.00721930902983096","-0.17019707381511623","0.11139488101449459","-0.9065447905890112"
"0.00741221873163198","0.021103365808866778","-0.0312361686977418","0.03896890860513144","0.006085990693559827","0.015192718359694185","-0.1725376351456988","0.10341331891184255","-0.910646995744708"
"0.00801590645350245","0.0270562552767617","-0.04563304155258835","0.0678359925944361","0.03719095452914056","0.0655478835593735","-0.16197724533271365","0.08388817525576817","-0.9113824508523032"
"0.017997454480027517","0.05688614181296941","-0.059059245889033246","0.0694351196790891","0.05356589297990449","0.1732918080182586","-0.14433944387725361","0.04522971008320406","-0.9184918502257223"
"0.04173961641560017","0.0908200008300099","-0.032231620242145195","-0.03134069464123057","0.1152507312771844","0.3584533194272842","-0.11293691269193919","0.014684733659616828","-0.9115458853206576"
"0.05495431176276489","0.03455060137881403","0.039899376935931166","-0.02008326357509732","0.17288132436318193","0.5509537268531507","-0.06409162682871344","-0.017886636051519734","-0.8910185160953369"
"0.03702469014127845","-0.04536312244119919","-0.003777608513892689","0.07237150595735013","0.2696136047348534","0.46776015692679285","-0.024274220383448206","-0.08302277914147661","-0.8678761953763446"
"-0.03808292039727346","-0.03639275890172257","-0.0510398717253022","0.1079836136402603","0.14512147182146745","0.261377975289177","0.013286216207326913","-0.14466682390321534","-0.8366602119206419"
"-0.09727705299790634","0.03583445609567288","-0.06583533824834346","-0.04533522281854288","0.03371588720518424","0.038238162369720476","0.022732053005748515","-0.15800988491250834","-0.828651922971273"
"-0.11273030329459077","0.022968902274464284","0.019991791724380127","-0.002854570668420308","0.07117337941402757","-0.18120307993807422","0.04098285861921871","-0.13734753356511392","-0.8213464022358286"
"-0.1559512631586508","-0.02099273460386703","0.09198297133076332","0.03507747472423599","-0.3241633946271063","-0.40684015608548363","0.028388409554656265","-0.10741073898108416","-0.8397818102662122"
"-0.0848566836005712","0.030849651252464416","-0.04064958807407096","-0.08839708690184124","-0.4831979839362648","-0.5464345009560817","-0.06322784824242698","-0.04982211932737063","-0.899043148491541"
"-0.0032384887314161797","0.07671214098828093","-0.04947441058285869","-0.09095896358592408","-0.30860696376917507","-0.46345935055403464","-0.11093071726572586","0.04000541488874092","-0.9250619158535719"
"0.09577019707364094","-0.012397348048845135","-0.0013170670823528564","-0.05787599910071611","-0.16595449280194569","-0.3190112384765312","-0.1451474948128117","0.10417849346052657","-0.9454748809510446"
"0.11098654567340954","0.07461289310577951","-0.04113698758543859","-0.046385582631520844","-0.24319815525421187","-0.20739643467013896","-0.1816491060397518","0.15184359077768658","-0.9571277585447181"
"0.09022382816419762","0.04879764935327689","-0.06955898790510552","0.009052812652288031","0.049217272230848944","0.08194390918429978","-0.19251599793174162","0.15196232475937896","-0.9587130728877562"
"0.10090900455937173","-0.01060244436702304","-0.02992060306748255","0.036473461643409276","0.1292515190493225","0.06597016130637426","-0.15685030146572373","0.1362234758528271","-0.9499693288307924"
"0.09910439228329224","0.00777132399951796","0.0465081838697296","0.07041134777291096","0.14350120971518754","0.004321978634748601","-0.12948802495820072","0.12014161766583062","-0.9392970580472458"
"0.07015048929750446","0.03793889756521661","-0.058933265506857714","-0.01710933006245851","0.07108482742299012","0.17157842819422103","-0.12957161643429319","0.09130245277922343","-0.9372868140864857"
"-0.0574452171864525","-0.057570129425442984","-0.09676661995068696","-0.023103409068508763","0.23632284269888054","0.2597519632748637","-0.1235808939810168","0.0672918031481049","-0.9284776962421802"
"-0.0648878106315223","-0.003996201649205609","-0.026234127949723112","-0.12172844078370212","0.3482812789348841","-0.0025754672546242584","-0.06921857069570338","0.106104622496869","-0.8799540025877396"
"-0.11066024172836825","-0.03804016471154308","-0.007988864207239064","0.13932111310170195","-0.037353068845010814","-0.0811766453381686","-0.049769620591578086","0.11139488101449459","-0.8629404744320398"
"-0.054768579440360114","0.024785619021864075","0.08896150741071734","0.04124484865818361","-0.19208451004916005","-0.1194558804154277","-0.08050341996815431","0.09037896625494966","-0.8950063171231858"
"-0.01748821486169216","-0.0024264919015380463","-0.009318680077449319","-0.0781235859263253","-0.07086401421004976","-0.10748891736680254","-0.08641055094533853","0.12904666629275646","-0.8845628545953357"
"0.023033962411613578","0.003460002749607993","-0.02184133659091396","-0.027393421283568177","-0.2059440932950492","-0.14635303139249375","-0.11692143971900223","0.15770113387450893","-0.8906426168181216"
"0.05766849946284921","-0.0030336222267840036","-0.012277153806407527","0.06658345536557787","-0.15481848160472197","-0.12182937257960443","-0.17844476612288304","0.15477236232609776","-0.9261896136852177"
"0.036111937413474286","0.010406030706081468","-0.001148335980324315","0.04465587048896358","-0.05883530321128631","-0.11699744732513014","-0.20625286383623126","0.14599924034549674","-0.9436444149054746"
"0.009186694762584593","0.01613206429196832","-0.00046163963485932057","0.024993635419807734","-0.011653605738002918","-0.0774271101708342","-0.2233612526097741","0.14502298316269305","-0.9471092256345892"
"-0.0021408746916516883","0.004973019301121708","-0.014561322702901612","0.019384656253529416","-0.017830466107423643","-0.07709705400076465","-0.23910431394047724","0.1451153318151204","-0.9526823410054766"
"-0.04884724054163057","0.030296014873754246","-0.0005140970398963454","-0.04118866029379851","-0.010288469097793077","-0.0289161338214186","-0.24615386175758866","0.15524729825286712","-0.9499039550434507"
"-0.0009854914918995727","-0.009124349494781811","-0.013706308305841441","-0.07279958064147823","-0.026162490474931608","-0.023276056326994577","-0.2575223025061319","0.1742843133175397","-0.9444942741409179"
"0.015898508333811193","-0.0021600608862675785","0.0060653833131333644","-0.004627955430570093","-0.06384686724459523","-0.007223920108677519","-0.2623148804687529","0.18524741762713282","-0.9423042522649681"
"0.016147878541091024","0.003008887779113007","-0.006486393255883326","0.01603813864591126","-0.041170377647841636","-0.009183871306825903","-0.28204246882651907","0.18126323290812302","-0.9516200169611726"
"-0.003142206798103506","0.006051000227623426","-0.010577451273121243","-0.0178313922620309","-0.006299321566408496","-0.038895479198816016","-0.28115082641486866","0.18721312465737275","-0.9473216904434502"
"-0.008177751910356431","0.005709262200239475","-0.006455827523814507","-0.026758969297543907","-0.00955994947423088","-0.00679314826906467","-0.28510748961656746","0.197305513101222","-0.9442491224383861"
"0.0018673421921549898","-0.001433374187307661","0.0023599078754392515","-0.00960180868610453","0.002506575618002607","0.03009111411292984","-0.2869186382652325","0.19743743974754688","-0.9425820908611706"
"0.003970139615703831","-0.004699101719511751","0.003697365178666711","0.020566912761629273","0.0019611432191529864","0.025793103251215144","-0.28173596674751405","0.19131604335807487","-0.9426311212016769"
"0.002238027635408799","-0.0025334797946096176","0.007646746897261323","0.023470565553509702","-0.009834460646446991","0.0043096015283709925","-0.2774449376414465","0.18324213260299543","-0.9452787595890192"
"0.0021947007654180934","0.005499545155471025","0.003288858300071294","0.017818262655257048","-0.006655444168202367","0.003510428757754025","-0.2808164605104996","0.1775429014817629","-0.946847730485222"
"-0.0008314403985992918","0.005581603830739512","-0.004899453490904973","-0.0008368400579352265","0.01850648442023763","0.006681394874025295","-0.2768597973088008","0.17614447903071973","-0.9458834671219307"
"0.0006349334457527422","-0.0011119950211295618","-0.004821800009432844","-0.0005962489330377066","0.009856630203816852","0.01964993278579538","-0.27482573805722316","0.17307058817135126","-0.9456056285257283"
"0.0007937986357186628","-0.002915104570478505","0.0009222858421214083","0.021021330572560167","-0.0030666952341303864","0.012276089645064757","-0.2706740280779758","0.1682288802512301","-0.9431214246067403"
"0.0020579804201140877","0.0032455907021532956","0.0004987026227082662","0.0359969005916915","-0.00776880595821923","0.0004955112571847617","-0.2730145894085583","0.15689638133192746","-0.9489396916801592"
"3.220854321539576e-05","0.005421952965058924","-0.001297860237201505","0.023917281367645156","-0.0013911479658784396","-0.0078020037830199476","-0.2700888877453301","0.1532683985579947","-0.9526986844523119"
"0.0020262073821209104","0.0077846195823462715","-0.009429584118807125","-0.0005573538492207406","0.008771987978460787","-0.006658941605793736","-0.26869569647712627","0.15216021472886618","-0.9496588033409189"
"0.0018798588434856428","0.007943023987136704","-0.010986371202150017","0.006165719153517794","0.023929695547017963","0.009296119268385212","-0.2656306756870779","0.14797814004036916","-0.9519141990042104"
"0.0037535052657503027","0.0065538433250598134","-0.013382063715651954","0.01870591778593137","0.03272266892733171","0.02562564828257691","-0.2542343711131709","0.14411268930305174","-0.9498876115966152"
"0.01140695614477488","0.02548363712035045","-0.03478633717249166","0.04039570351148648","0.06799029433078933","0.09233582477428416","-0.2377668503230015","0.12883558365863673","-0.9463901139738295"
"0.012625885420513351","0.03859952183699836","-0.0457631524390975","0.035623353747112715","0.12325630992638133","0.21227483934051905","-0.1959153846261588","0.1027009150216885","-0.9365840458725617"
"0.02393227284942084","0.045858079087329834","-0.06636610805521415","-0.03824746026754032","0.15542222234647296","0.30714900005029455","-0.14913202183987476","0.07890134802468969","-0.920861650016862"
"0.03386279145129019","0.03571708102851669","-0.039108909957629195","-0.12183434323963942","0.19906399414560777","0.4553830505491842","-0.09680375780613906","0.062331361246291385","-0.8994517346624271"
"0.038976324929526386","0.029627080862704807","-0.059639581747907414","-0.09662955872656592","0.3796813362973545","0.49151934740459463","-0.011150358636968243","0.04326400305296413","-0.8580210969345705"
"0.005474063414047823","-0.010453907777612995","0.03910425485170854","0.10193754615584083","0.3428006286787822","0.4432243636958863","0.07834824843244526","-0.025583236598110144","-0.8067190173181039"
"-0.04048034053675907","-0.042810993768608405","0.03269990788242449","0.10544195469776549","0.055021017589384824","0.2389171675392225","0.12167649687358392","-0.08426420888339325","-0.7794091176560728"
"-0.06865243422404793","-0.03081173026605699","-0.10040559426860973","-0.02183739334525851","-0.021215066802698464","-0.15631053481746007","0.10420587837030802","-0.09409274403459288","-0.7867309818383529"
"-0.160418744864359","0.10464844568886268","-0.020668273360164736","-0.14367913165070273","-0.044920674133130584","-0.17393213666212998","0.10874768190465253","-0.0565279507600616","-0.7867146383915175"
"-0.15401599629906607","-0.0519807910505097","0.012796246649990394","0.13770369377465982","-0.4046499745889874","-0.45297521338711905","0.058481340947858555","-0.03620069309433223","-0.8265109314358297"
"-0.13742661918929205","0.031926801205039365","-0.10474468907108177","-0.0050389532345666965","-0.6075776318880626","-0.5868906506256379","-0.01463333680747803","0.014569957477314242","-0.8715371274674847"
"0.05057733507437066","0.08546437387198057","0.010469450948773308","-0.02169105540614517","-0.5784990726690066","-0.4931644058602954","-0.1346428326505549","0.12026035164752301","-0.9362408334890174"
"0.14229069065135974","0.08094491442776301","-0.061806031270893215","-0.08876774549762174","-0.412858983487865","-0.24887430233674873","-0.2091228378487312","0.1791524065669258","-0.9639593193219347"
"0.10501908772862321","-0.002007161683741993","-0.1825468686992239","0.1604823492971701","0.1001274871862202","0.13597604573157024","-0.22497735448089062","0.14340028541289765","-0.9878697820421928"
"0.09435461194911134","0.007139887686913994","0.040727543054822776","0.1151079606760412","0.1101242889852323","-0.00040534793641687283","-0.15275431913720458","0.09917847356481561","-0.9743864384029494"
"0.09994820714684453","-0.0018969537667041898","0.052144257032959586","0.03830172313272656","-0.004892062898029486","0.0642543545987332","-0.1426397505300448","0.0750095119581073","-0.972539628910544"
"0.09320375400022492","0.01699835461062551","0.01787800613164803","-0.05060146312742416","-0.011919740370526297","0.051416140336468526","-0.1380979469957003","0.06198835196584686","-0.9685191409890241"
"0.08769893074500601","0.038012646501217405","-0.05817738321380451","-0.11565349081129978","0.06989535878662213","0.1252807696911543","-0.1552620634199715","0.0882681399137524","-0.9602820437839592"
"0.028438267328454055","0.0435957525716999","-0.1670409554307993","-0.07712906559011427","0.18569503679600716","0.1706634930757194","-0.18560576924145059","0.09915208823555065","-0.9555751310953506"
"-0.16124676949084799","-0.02190265105367962","0.10632201712493912","0.18055567844528247","0.23194310908810914","0.18003611755225363","-0.11232390853392951","0.04245793124391944","-0.9218912871674952"
"-0.13229479214372644","0.019919227963220258","-0.200716957262836","-0.11409383646022339","0.47117708271254083","-0.02176289440024183","-0.05779440229643207","0.022089776317829383","-0.8871124323016651"
"-0.056569051593307156","0.07202129317166717","0.29626532415880674","0.0789952232014275","-0.20658789020286206","0.24890379356743028","-0.0017881133146384913","0.06685644521523296","-0.8449790263598842"
"-0.018479918774812715","-0.18917562507756067","0.03133064569582812","0.05126514648904951","-0.21077137345511804","-0.10097030800792865","-0.008196793148376284","0.041457927264777254","-0.8549485289295066"
"-0.0013609910318190044","0.0018969615677027548","-0.10656417623004315","0.06530107289913731","-0.32952438003045487","-0.2928737020673458","-0.06846624741087363","0.0441624235144362","-0.8923913656295145"
"0.038532465216954956","0.037907736042962756","-0.034263828374288215","0.03578220743101864","-0.17269401730901252","-0.2720995784217909","-0.1277047401348999","0.06643427994699352","-0.9219566609548372"
"0.01502908247599774","0.03071150183713899","0.08033494910994356","-0.04560479270638324","-0.12783645060590404","-0.23576185022729393","-0.1614199688254322","0.09099902149267632","-0.9319588504181303"
"0.019688165228998102","0.04269414586115501","-0.014631541276573222","-0.06929228385075528","-0.08352216233429564","-0.07270439467851529","-0.22742937111292932","0.11275372547164031","-0.9544147463700338"
"-0.004547923024468576","0.002788700462867262","-0.055259181902099136","-0.011690975316867308","-0.01770146739615557","-0.039014396495385205","-0.24214147090516167","0.12392791241535317","-0.9512114307902864"
"-0.008360687583650517","0.004245127689967975","-0.051706948175182475","-0.010526048301557189","-0.043345884670896936","-0.01862566196605855","-0.23837985448101146","0.1439675699920944","-0.9427945556700315"
"0.005595378650021785","0.014950003881138721","-0.0013885248073245526","0.0052872101440380554","-0.08394816921009746","0.03854880347096242","-0.25236749481377774","0.1424636062239914","-0.9515382997269954"
"0.006790237442432091","0.00545446481994378","-0.003021106645189448","0.03489262680114546","-0.027164803281593392","0.06738988821439407","-0.25690929834812226","0.12942925356709847","-0.9563432730966166"
"0.004686477199550126","0.007333192996628746","-0.011638990886862615","0.03669393130167871","0.020868668613588107","0.042252227849831216","-0.2555996985560104","0.0946138116019766","-0.964776491663707"
"-0.003594731884673087","0.011492009756628343","-0.005651205279624545","0.025153451853313087","0.01974860559181706","0.048268472302790404","-0.24473280666402059","0.08114410101221176","-0.964008349662441"
"0.00030372359515714074","0.008310729949732204","-0.003771619282608934","0.020752723434319238","-0.005129717295597574","0.07077539084121055","-0.2390764501151133","0.0769884116529797","-0.9619163884675038"
"0.0009661432963483437","0.006044871794913502","0.0007554134670429982","0.024156043268303763","0.007494685340171877","0.07406867189109584","-0.2355934719446038","0.06308334313034292","-0.9621942270637065"
"0.000858307531038159","0.012906119636508317","-0.0022082233923322405","0.029927727116885714","0.023908155873522366","0.06971969647370863","-0.221104282755284","0.04517562015821088","-0.9608867513168707"
"0.0028648230212743094","0.02742188380454028","-0.010210662488295425","0.023855665393281645","0.052981928498468306","0.07898068430448406","-0.20736741685079435","0.0259275224594186","-0.9600368920814275"
"0.0019588100288020407","0.04137809090463383","-0.054751129869063386","0.00776138033961283","0.058108370790420395","0.12295581519904661","-0.18485344595662054","0.010485508507097575","-0.9525025630902866"
"-5.925929343163803e-05","0.022578344528882625","-0.009861428346887514","0.03752959795398382","0.06946695861376526","0.183581794496898","-0.16445712579011662","-0.0056847405329364725","-0.942892616351044"
"0.004983025554153177","-0.003317815309739168","0.015824319376970167","0.008352989968462473","0.055135895848028","0.11483546266189394","-0.1417202442930303","-0.031075342884612698","-0.936845541021929"
"0.00622795095188606","0.005504738742513333","0.009040977982554444","-0.05148430451010134","0.054003866340981616","0.04504314399380179","-0.1259214553115991","-0.028022560288656195","-0.9291314341155981"
"0.009934805384424083","-0.011749188385964934","0.03464950592789503","-0.057891403094306994","-0.007807577370511305","-0.07046195422892501","-0.11530533784788573","-0.015344409576840317","-0.9250128855130656"
"-0.003257745118078721","-0.007954753692853759","0.018578126616197305","-0.04932389440898074","-0.05766019435724873","-0.15409721697111123","-0.12985025468793393","0.014957821817509237","-0.9272192508358509"
"-0.0013898756118128253","0.014473232590654727","-0.01114126511466092","0.0017611397361262263","-0.04857523873621689","-0.14365433682545437","-0.14982861747397658","0.04029565351065552","-0.9321222848864847"
"-0.008235521070344056","0.01662960993062155","-0.012989665803957674","0.04196979910655429","-0.049451185458371176","-0.1222249546069672","-0.16348189190237405","0.044979049455186874","-0.9385125725991443"
"0.008375038064758731","0.05880257543158154","-0.029720273607301787","-0.005737909443752767","-0.0384850983520572","-0.0367476872097604","-0.18242929314994594","0.044984326521039876","-0.9458998105687663"
"0.018302668208628706","0.038016801370851255","-0.053421107473636445","-0.024218273104648528","0.023419923274288833","0.047511284618513165","-0.18429616944933908","0.05115717430257852","-0.9481061758915514"
"0.018008045492691922","0.05267622015647348","-0.06059166299680775","0.002731880157231345","0.05331459678912252","0.1477998226475917","-0.17220326924133003","0.04599224609896157","-0.9421898481371197"
"0.028073358801199016","0.061060747077577616","-0.025777707220857655","0.02248470996369354","0.12213864020166533","0.3170992228244505","-0.141998882546671","0.022476321391561128","-0.9324981841637001"
"0.05467798261415751","0.05840474666414064","-0.0425991861195415","-0.03944897176762877","0.2406786433391013","0.4470103021172725","-0.09429601352337215","-0.01458846989339905","-0.9152231608586331"
"0.040280945125913147","-0.029118620890264162","0.02050046333306593","0.09831760766198461","0.3065900442356284","0.49037871211097184","-0.024998679842914297","-0.07318764765796076","-0.873710805896599"
"-0.09590984954486635","-0.039832990958548246","0.05959155634648371","0.06485243158580299","0.2770328256055591","0.23584473289725144","0.038335795209631436","-0.14151641558897848","-0.8284721450560832"
"-0.11004403735516712","-0.0017810329039198455","-0.2091638386250971","-0.14630743805714622","-0.07805826515757917","-0.10929937253497823","0.03345962577091798","-0.1370322288803976","-0.8356959485573505"
"-0.14926929698675115","0.023147561668719726","0.08318706235231096","0.13190794118609211","-0.29833971940294046","-0.2505488520231311","0.02211904884773884","-0.1165044427122545","-0.8457144814674794"
"-0.13049431999077943","-0.04279645172488993","-0.00945312799350878","0.05938401386104144","-0.358387542514555","-0.526315635883459","-0.008642614354201644","-0.09159537261966388","-0.867631043673813"
"-0.01648688275524034","0.11840937391616539","-0.00860720070598258","-0.10874094868739344","-0.5432458070478794","-0.445184917020036","-0.09042294179776583","-0.024803550118330416","-0.9197993259725581"
"0.10699951081493163","-0.028746760058034816","-0.13250787394953564","0.021703920038555927","-0.2577972672901166","-0.2594312460117679","-0.17805467256778604","0.03520460422898043","-0.9703986373751005"
"0.12890461346289844","0.09638648742195703","-0.13431496959549616","-0.022103112234701145","-0.2919256832953626","-0.12032955851267067","-0.22143864865965293","0.04714924278723029","-0.9977739108244734"
"0.0914641320291315","0.0069844955626081","-0.03981729145084572","0.038454800319035906","0.14879518280099427","0.15227984977956535","-0.19505160603987265","0.0305001000210371","-0.9903539859611807"
"0.08958692317533427","-0.0084138667873939","0.018241903563440312","0.02061312474240191","0.15217212494569288","-0.007060833530525501","-0.1430298440851418","0.014410326235261188","-0.9676529383067455"
"0.09523326161613616","0.012963560709196261","0.014410241218353983","-0.0019870370043740693","0.04138879756372693","0.017943833612568145","-0.13508865385637997","0.013754650803026802","-0.9588601639092753"
"0.09371809208798124","0.02638005024385303","0.0031591604639955007","-0.0253687588759672","0.06467079131541233","0.049855654179448455","-0.14080073805601562","0.0050791545407061715","-0.9564249903307938"
"0.025234967407141342","0.060512304285909764","0.006951996068345761","-0.031090379745378805","0.19536635019553025","0.15893193773662911","-0.14447876300407397","0.013050162511652233","-0.9449682340991457"
"-0.11154603551484485","0.03172113515816392","0.08355467723800349","-0.17714430772688436","0.40406903328848054","0.33772773345379836","-0.09189972454206166","0.02527052776072096","-0.9011351096864783"
"-0.18005063106681346","-0.15426433297915754","-0.11423658802974979","0.06248599307040442","0.27729608828161634","-0.11464337022978104","-0.00886552495711386","0.001511858024082849","-0.849914747304189"
"-0.02698161348632197","0.12187869006042801","0.28023896734434556","0.20210201448052256","-0.3045383587755623","0.08526388595382305","-0.01739185551852141","0.00811478667264044","-0.8647382535839389"
"-0.025941768606545068","-0.11294415447054472","-0.07622975240390832","-0.07736301374277572","0.003231505295982203","-0.2463018057170889","-0.0005621049986194503","-0.0034842040722383614","-0.854376508290266"
"0.00996176432575162","0.018698735008277574","-0.07140325809006864","-0.1289586902754203","-0.24855914065756055","-0.298455534355287","-0.03366432953114191","0.0555371389605628","-0.8614695642168496"
"0.032696817238873695","0.033982422956385386","0.0054714167899582306","-0.019789624947271215","-0.1248232896135755","-0.28010829431318474","-0.09644152807640617","0.09390140771182252","-0.8849550973193862"
"0.029191192046959174","0.04850369232668219","0.020784435506002577","-0.006644434466575916","-0.12180773532419192","-0.19284484058383672","-0.13514438150710847","0.11731838743447932","-0.9008736145371112"
