"AccX","AccY","AccZ","GyroX","GyroY","GyroZ","MagX","MagY","MagZ"
"-0.13180375428383181","0.12259540507226668","-0.1714027680071063","0.11551231550780174","-0.07561949545846658","-0.5654127307350817","0.18746298855816834","-0.5871962892693624","0.025407578308654522"
"0.022196309591793303","0.04474457402545873","-0.10617590882268249","0.08148778191435138","0.035221271052820975","-0.40919423318083276","0.2694940904300093","-0.5239902330151378","0.06533625327233386"
"0.09429395433112434","0.21807430925808088","0.08978967352960895","-0.04350888682842445","-0.11446988655335853","-0.13060983745689622","0.32605765591908437","-0.47860746667939724","0.05379941415119219"
"0.07593703348959627","0.03372897590872069","-0.016132979601845555","0.011959931342726408","0.04525157901060402","0.06212112391129831","0.3182000571664147","-0.4907974887998112","0.05729037439524356"
"0.10537619741927992","-0.0048878366726292696","0.03186348075486562","-0.023161174044474556","0.009603658705096338","0.02591930119859468","0.317921418912774","-0.4949004075005134","0.06270005529777634"
"0.10425220212978775","-0.017447592088786698","0.00023021984102270432","-0.022564269292828048","-0.037175964862935916","0.02079954754875091","0.31853442307078367","-0.5007315652680707","0.05776270000878796"
"0.08639026670742013","0.006821520801220435","0.019243137813910773","-0.009028106199804284","-0.04877148909473234","0.03799304712577176","0.3128780665218762","-0.5029479329263278","0.042048475876506154"
"0.08666467021736125","0.02365861063368296","0.015499455211130638","-0.022305289650581418","-0.048075039651708035","0.07490594673428702","0.3067758887671434","-0.5091748706328597","0.03497993512017555"
"0.0905563859618596","0.043597830006516826","-0.014123489243537467","-0.07552031100946699","-0.009433344060017872","0.0746292820034934","0.29602045217661","-0.5207052595216496","0.014388826452196486"
"0.05483107088812467","0.1289731299602225","-0.07984600894799615","-0.12930528013121506","-0.03523021435716697","0.32132200029445823","0.2680173076857132","-0.5410483483849379","-0.01876058676413964"
"-0.029350149045813793","0.059449696377053274","-0.015916128124330294","-0.22026586228534736","0.1341146986652173","0.19421639844722763","0.2338562577893554","-0.5635550342479534","-0.04710175792148741"
"-0.19049722083123877","-0.11483462015394534","0.10086562090022179","-0.014511831643196775","0.13328422458710928","0.18462535444638262","0.19292429832952723","-0.5904680700982181","-0.05810580067579353"
"-0.26645403802160844","-0.18418978151694373","-0.07984394369582934","0.1132594814451359","-0.07275711218060722","-0.14182446658845105","0.18280972972236742","-0.5972886777132117","-0.02896216627882534"
"-0.20993654316706795","-0.1508885014016565","0.05268741835283114","0.07616473937910374","-0.14905781559317732","-0.4539702356645347","0.24349714136532588","-0.5514573607799668","-0.031086814367433387"
"-0.06484929785819725","0.08689157159120715","-0.13465780145518694","0.11275885165343237","0.037887403972164876","-0.36009837788298504","0.3119864241102258","-0.4898476169462725","-0.014016084147809521"
"0.059599915045101474","0.03148223015421769","-0.09570094983261197","0.18509022905859707","-4.710981878507366e-06","-0.2362739226676224","0.3429152702643506","-0.4559820468346894","0.045336777379797986"
"0.06938986202433432","0.18210352540304664","-0.014094575713202098","-0.013698308231678549","-0.011381966522252889","0.15089895300920075","0.35133014552430175","-0.4544516977373214","0.06632176311651129"
"0.08298775946608349","-0.01699055642906348","0.033100566802786016","0.004719476705254273","0.021979158447138894","0.03199379085803674","0.3439740956281853","-0.46941217943055685","0.06486556200347299"
"0.09568200282272654","0.005037419780446343","0.0314297777998351","0.000600448819053598","0.0001551612613999248","0.04521059896244003","0.34414127858036997","-0.47470243794818234","0.07050731985106913"
"0.09618618316651836","0.012432360626508864","-0.0017255739609482708","2.896065683203855e-05","-0.027853115514630475","0.0925688056002156","0.33302361226010335","-0.48648348746498943","0.07196352096410742"
"0.0944257642978294","0.015578427913258147","-0.01947455760774739","-0.047557248894026974","-0.022649130398094217","0.06519113166966595","0.3246087370001522","-0.4965890685734712","0.06354337715448538"
"0.08868533915179438","0.015682299654104333","-0.006394902584893553","-0.10282966614689416","-0.04177588180277342","0.06977066102938115","0.3102310031122889","-0.5092936046145521","0.03485735926890969"
"0.08964912130425426","0.02240799487389488","-0.016440702174700544","-0.1090105185752338","-0.03480660077842023","0.09211497836636996","0.2988625623637458","-0.5187791304853071","0.0008401090256113521"
"0.09370076133998495","0.07663839205228014","-0.0856514327889047","-0.11963927415293935","-0.02384577892562739","0.1497995747368367","0.28270154365258143","-0.5325390796969867","-0.03718782307110557"
"0.02324193138756896","-0.13920293055646057","-0.025461723639335417","-0.08834124742507432","0.0709508027879064","0.034328452884558214","0.2502401871034323","-0.5519191040421036","-0.06743790881883348"
"-0.22055644041145606","-0.0788368296462911","0.001556524782549379","-0.08176951865936614","0.10044579569454401","0.02690946970880338","0.2488748596605929","-0.5460879462745463","-0.095385202907447"
"-0.3014717771674286","-0.1300726045360808","-0.02645924043590562","0.040929066789570624","0.03186826187867302","-0.02599659284646503","0.24742594074166072","-0.5471301667805124","-0.08331393307478621"
"-0.20451587032156435","-0.1854570167552672","0.13047720646797242","0.12365717711897828","-0.17197124159838248","-0.40800506021514094","0.2829801819062222","-0.5159954782478532","-0.0806891755130135"
"-0.07446786299613352","0.0811796645620754","-0.14249749868040534","0.06670957556310317","0.0010842391781766784","-0.33061174210103494","0.33469544178194804","-0.46534883872375216","-0.07053826068351769"
"0.05180011562744164","0.042624551794788065","-0.07498647059948749","0.1654693922222167","0.062131503139986916","-0.18437016304058","0.3733147037365579","-0.43301361770953706","-0.018317679354899037"
"0.08350671908663881","0.17633864378608333","-0.02184133659091396","0.010621709399518916","-0.03145119830721722","0.1305883641319053","0.37663049895488304","-0.43277614974615225","0.0012323517496620636"
"0.08876929699764304","-0.00609077530336895","-0.026023472228708287","0.016383765752106573","0.0421091799773019","0.09725269095487928","0.37050045737478626","-0.45265749534730376","0.00414802266510572"
"0.0921719968028463","-0.010117363337271352","0.04370976718369932","0.0387513271956603","0.06770788527829151","0.05591072877006289","0.3642032328425049","-0.4631852417240249","0.030598257023592326"
"0.09899154985744979","-0.00066212651152473","0.006791732500201149","0.004100910087620593","0.006232699803035395","0.10217198401907786","0.3505778222394717","-0.4762064017162854","0.03998756723055635"
"0.09584982223249053","0.02024330779466036","-0.01198388799872022","-0.04869906991895078","-0.003683926544631996","0.08762281681637905","0.3401846153786712","-0.48577108357483534","0.036485166573720154"
"0.08696478100349686","0.046120874591670684","0.0015232742226637043","-0.14055982294855002","-0.03188917166829435","0.13872570485428212","0.32212885654274953","-0.5061273651027561","0.012692376670677142"
"0.08110833612782006","0.05748444304024344","-0.04260744712820875","-0.1535665700368473","0.016253434572598174","0.16629510258950456","0.2979709199520954","-0.5266419586062668","-0.03224229605869945"
"0.0728367552369281","0.11481541168288736","-0.05378046135066174","-0.16417607062256426","-0.03826970161710122","0.3349368173098278","0.2606612577895968","-0.5541618570296257","-0.0742760069747843"
"-0.022234914174007064","-0.0641981852088381","-0.11017836752196417","-0.17556539838381938","0.08990571546403184","0.07912144355348433","0.22220917878717156","-0.5820115720687967","-0.09450592546769997"
"-0.22873077654970225","-0.12272887245825545","-0.03961076623416451","-0.05583496994992483","0.06566879618737498","0.032865042071676245","0.21733300934845812","-0.5827239759589508","-0.11474728437340045"
"-0.2646343094819989","-0.1553549862580425","0.06816028758658674","0.009757641634030626","-0.03471326219327264","-0.23707722114036525","0.23694914240476803","-0.5704943758446394","-0.10537268326858835"
"-0.16040911667102767","-0.08770124401010461","0.04228887369293266","0.10839759596801515","-0.15182207369177894","-0.4173242932523992","0.28395541579396477","-0.5223147646068125","-0.10853514023124723"
"-0.017517099441685963","0.05276451113619274","-0.1480406354961288","0.1654019997502566","0.16993517568839528","-0.21780776532895096","0.33073877858024897","-0.48348875259341584","-0.07470257093718946"
"0.10059069648784001","0.06775839692733969","-0.07231816479996636","0.19656620428380092","-0.026173738971090422","-0.1739879549850094","0.3542001195368015","-0.46164169996202453","-0.00600779519844074"
"0.06669107943358003","0.10083323664758226","-0.012485744275255544","-0.005763326033177716","0.019760572077092392","0.12974866240511068","0.3514137370003939","-0.4732116668447118","0.01492162281903204"
"0.08477378932903362","-0.00153963497819331","0.024776361419233516","0.004265347719203212","0.026354105463800168","-0.017374118091758005","0.3503270478111949","-0.47880535664888446","0.019017290595994937"
"0.0950092616982842","0.023900631789854573","0.025472351399449165","0.013274084545948153","0.022041384170570617","0.05187967510472799","0.34762425675087943","-0.48317212864223624","0.028035604559794328"
"0.09469818439994429","0.015007133338604125","0.03074700543348705","-0.025550718550259442","-0.0327675116875037","0.13453447687111933","0.3348904885594966","-0.49422758160425684","0.02360653046738832"
"0.09436173681217648","0.002071258348842655","-0.0058108492721191144","-0.025998397113994324","-0.040380589619669734","0.1159809517227236","0.31521862785245847","-0.51082395371192","0.011433931264347764"
"0.0892301023304775","0.029312349487940863","-0.040802416734415044","-0.09569857986391722","-0.04222342835207082","0.09765312674944898","0.2975529625716343","-0.5276314084537029","-0.016683334671354393"
"0.08311485161805623","0.08588193827018224","-0.05668420589719943","-0.18019622395707696","-0.027517814597215678","0.1378398923390219","0.2798594334654456","-0.5371960903122529","-0.06319841870971867"
"0.01704233770156578","-0.0601866585773584","-0.08525077386854318","-0.12023617890458585","0.0020800900827897847","0.12112594496204328","0.2503795062302527","-0.5587265189924647","-0.11281875764681779"
"-0.23032905664269263","-0.1455702682703318","0.11533271232873994","0.015051320306495659","0.09042506092498123","0.09342306862863096","0.22892436069991404","-0.5713387063811183","-0.13175590949504962"
"-0.27391588785334087","-0.148478677014025","-0.037628124154024986","0.05760196435249678","0.0019632971865025466","-0.04944999599023172","0.2182525155854728","-0.5758901756793248","-0.10933596912618412"
"-0.19908556928272947","-0.16069399373753646","0.07332135275144996","0.06648044115843887","-0.1314000699208978","-0.36182146524143644","0.25564576922406296","-0.545890056305059","-0.1090352497044119"
"-0.06106541787900909","0.055364420809572774","-0.10188431482004712","0.1041422427385352","0.007975738048240212","-0.33260178665586615","0.3088656756694489","-0.4999531980547543","-0.09601769429997878"
"0.05689150426101592","0.03620839436271915","-0.051508683967168525","0.18589893872211816","0.127717415637025","-0.22782594084400365","0.34478214656374356","-0.468106105631941","-0.027656324876673168"
"0.07588696688427368","0.17182022305927425","-0.03781193159687125","0.04642347875351679","-0.00495931454527685","0.09392543353454566","0.3585747401189614","-0.45851503844412606","0.0025365588071306943"
"0.08331993213601223","0.02361602321993602","-0.0109822406978164","0.04870134430576781","0.05956110210284568","0.07184079274312628","0.3451443762934768","-0.47616682372238794","0.02340550607131233"
"0.09969315630549926","0.010180629028445244","0.039029905773703306","0.00882117509866521","0.02892450650094142","0.0047534785394424866","0.33990597712503046","-0.48263122939230446","0.03430658511055515"
"0.09033281931270756","0.02689421536104165","0.03766064358710694","-0.00022876741093533258","-0.01467131399473607","0.1330176746189614","0.33246633575282186","-0.4901114702389221","0.04579602823587402"
"0.09128572160670312","0.013819463853768832","-0.00441928236212118","-0.03099410478543582","-0.04913527024710242","0.17508042123400328","0.30724957379833273","-0.5145442851382801","0.028303637087895645"
"0.09422886774420497","-0.00806174158592533","-0.04112666132460454","-0.05926428402309396","-0.0164796892495442","0.1336341030542384","0.28222785862139216","-0.5351908052881156","0.009940140223587956"
"0.09410427892249838","-0.010877704480265432","-0.035856137794900274","-0.10389831820226128","0.012922204401651333","0.09099618502517828","0.26470151246738804","-0.5480140753108887","-0.014074920556417125"
"0.06513805184924658","0.05922948828645937","0.09632206613323537","-0.017877604242803533","-0.01931813955685288","0.14561077363727737","0.24544760914081132","-0.555019380230737","-0.037941255970219655"
"-0.07402496610289522","0.041860055782160135","-0.04166775739230928","-0.15843808300996234","0.12878482612358455","-0.0996792059308918","0.2492370893903255","-0.5474335980670595","-0.06856070361642866"
"-0.23079120992259342","-0.06404133888016036","-0.0900359631390466","-0.020482804658860706","0.07798470283274637","-0.00490479013721814","0.2647851039434802","-0.531048308593516","-0.08201462905136822"
"-0.2609852242094485","-0.13679310616882906","0.13894060984756806","0.036901885215155555","-0.034344694446792425","-0.17591004679894393","0.2742309407419024","-0.5255997381003007","-0.07203858910301168"
"-0.16456849619013528","-0.09084648032292714","0.047385916040624705","0.12177981540009009","-0.16864455869184025","-0.38169764195371386","0.31847869542005547","-0.4831193579837063","-0.06725976524832712"
"-0.0116342733162815","0.060141482171088875","-0.19863105257435584","0.08242453727459664","0.08961373322331374","-0.24387492211363623","0.35952211018134006","-0.44174716169624056","-0.048080730386930656"
"0.09260006627835445","0.0347500351212387","-0.026101951811047144","0.09508950825509632","0.005843549701881608","-0.19232063372549094","0.38727448024396005","-0.4172615761383526","-0.010842186772365812"
"0.07361086198076203","0.09898016479088631","-0.00644983829253075","-0.00850514061739399","0.03358186257010052","0.1109912790340249","0.38699584199031933","-0.42286845860715777","0.004517384563586806"
"0.0827720879354631","0.0183112934149213","-0.008824878284364564","0.0018267992588073424","0.11637558089306559","0.05507830769407862","0.38231471932915445","-0.4356257653067685","0.020208727870298985"
"0.09373378604311121","-0.003742339114577531","0.053216122907535024","0.016264384801777273","0.09726271061130579","0.06257495114514396","0.3776614604933538","-0.4445176212690619","0.04907942670511523"
"0.09159796391643613","0.0063792349286973735","0.05201621139861724","0.04249738588704185","-0.01019297654529593","0.12482936934091209","0.35358711537879156","-0.45781582721860453","0.06401733711271333"
"0.0898082753400201","0.025465978924406597","0.011608107078423444","0.010469594962809","-0.03430879499096643","0.12600640788858664","0.34361186589845244","-0.47480797926524215","0.0629255948641055"
"0.09202275980621165","0.03444257476833399","-0.02922667833943372","-0.07355437632743123","-0.03408382506779019","0.12750864883912383","0.3274229833619241","-0.4897552682938451","0.04608857593422851"
"0.08523786824760073","0.04688640932170708","0.004236395994204646","-0.12124706598398721","-0.10648106098354708","0.17439846694143304","0.30334863824736213","-0.5079347601574064","0.008933383898524454"
"0.028277476499821885","-0.15330871296337265","-0.08766505365154642","0.014441899810056563","-0.11138731994643307","0.20212318522727646","0.2595745686003981","-0.5460879462745463","-0.04752015016047484"
"-0.20772205870087643","-0.15303864643717252","-0.0313559533234169","0.083236135186916","0.09635565102743562","0.03380667290981589","0.25207919957746167","-0.5469982401341876","-0.07778004197630403"
"-0.28430470845777855","-0.1374994340065831","-0.018419213750506452","-0.0030963170928371433","0.03981640139854835","-0.01057593174176636","0.2549491735899611","-0.5467475795061705","-0.05867455262566707"
"-0.21118820830013274","-0.20555619860900423","0.11597707100478528","0.08298967128946196","-0.16125645068285047","-0.4272987848625897","0.28802353429711997","-0.5096102285657316","-0.0557033139909829"
"-0.09418640293856947","0.06215867137832181","-0.1030160730074601","0.06305979183166462","-0.03617556669391818","-0.3683983198067932","0.3494354053995445","-0.45111395358530326","-0.05827904121224927"
"0.04602416244801424","0.05922117854719167","-0.08797897198090185","0.164930252446536","0.08960416003509347","-0.16161570237460765","0.3799462941732079","-0.4281851024540484","-0.009931856783631446"
"0.09205434028033821","0.17964176514499205","-0.017607569648949335","0.03382301199617889","0.0004157913106966495","0.1608103456457015","0.38677293138740676","-0.42765739586874907","0.02139035907650177"
"0.08206537854494805","0.021217624723797585","0.015312549890034152","0.044754070948105414","0.02489658755726477","0.1658218602868313","0.36969240643922774","-0.4517867794815599","0.03136639902485832"
"0.09351253016035868","-0.025328341066786834","0.018076063814445306","-0.010040822503444543","0.061952005860856946","0.09474814707611613","0.34868308211471444","-0.4763779063565077","0.04599051525321584"
"0.10091064135223804","-0.009778741462112783","0.011542989677603862","-0.020570414872408828","0.011766959913170807","0.10709127708327645","0.3378997816988168","-0.4859425882150576","0.053719331261698484"
"0.09215697682124951","0.01890128490292764","0.025980196907268244","-0.06120711271474339","-0.03599367611773313","0.14008961343942256","0.32530533263425404","-0.5044782820236958","0.04196512429764536"
"0.09450981842561136","0.03035937663567042","-0.008810008468763522","-0.08980944056420484","-0.030053512827058475","0.12495556728829162","0.29758082639699796","-0.526787077917224","0.011638224349790845"
"0.08560373959418889","0.03244408247445337","-0.055222007363096515","-0.10489957778566833","0.005057830278703329","0.13868202094941998","0.27885633575233876","-0.5400984765313992","-0.01284099032034091"
"0.027326210998692653","-0.013677047896070146","0.12274283710326143","0.043615138171979914","-0.22708887277656037","0.34772649390002336","0.23243520269578777","-0.5779350386973595","-0.057260844474400954"
"-0.12039434518627973","-0.054528764853466645","0.020077499689302825","-0.01368771798608482","-0.025647692278386838","0.07082878228048652","0.21496458419251158","-0.589755666208064","-0.08019723776326657"
"-0.21610821509241043","-0.07342303451338789","-0.11913536616942787","-0.0521572664801028","0.08503296265991676","-0.03577208000117242","0.22505128897430743","-0.5778822680388297","-0.09076327614238272"
"-0.25823156091670596","-0.1306750606329887","0.05025248604815979","-0.028699872489994484","-0.02708462783024867","-0.23714032011405503","0.2518841527999128","-0.5578689957913534","-0.09094141971288909"
"-0.15588386580533195","-0.09013703633294767","0.09858558250806132","0.07932063256603479","-0.14482407310276496","-0.44724776808297073","0.3066087058149591","-0.5104149811083131","-0.10015748938339737"
"0.0005357630544406952","0.05053957844726745","-0.09007520293021604","0.12441774930252786","0.14207719796742307","-0.2006569789033509","0.353670706854884","-0.4661403986017011","-0.07087330134364433"
"0.09671005316567263","0.05447527870792943","-0.061919620140067876","0.15406080946897296","0.008961776434927548","-0.20185585940345652","0.3741506184974801","-0.4470374202138661","-0.012847527699075096"
"0.06094015955681393","0.10180547614190255","-0.004987639758427846","-0.0009798083734505595","-0.029702176819374728","0.10500173030070369","0.3730082016575532","-0.4525915320241413","-0.004214919080592259"
"0.09350290196702742","0.00151907617450433","-0.004297019433845911","-0.0029356341846923013","0.05894123816558349","0.030600759669654896","0.3680205769173833","-0.4626839204679907","0.0025953952157383034"
"0.09404391015031133","0.019339623649298542","0.043726289201033816","-0.0003205174477609973","0.035374442064345216","0.049819250925396664","0.3647047816990582","-0.47116680382667697","0.012257640984854273"
"0.09527455693733396","0.01701393537175244","0.04068417275931972","0.0040695244506791795","-0.026942226655472225","0.17185509292501464","0.35041063928728705","-0.4845573584286469","0.0173061317123237"
"0.09214532670731868","0.011668799459548553","-0.017394848675767693","-0.006905339608021406","-0.051753537225345","0.18297264671243138","0.3220174012412934","-0.5116287062545015","0.008380975395486354"
"0.08824581212622201","0.00797771714857933","-0.04854711235996009","-0.03181821844254777","-0.007842519507515274","0.15412185443458593","0.2935684355445713","-0.5312593912276358","-0.0031607667597059598"
"0.07639629831149772","0.09524909185969128","-0.0421179823646743","-0.14138778760405968","-0.012308890471680083","0.25921804888210415","0.26743216735306746","-0.5541090863710958","-0.03322453721350979"
"0.02305129315960986","-0.1111263990057365","-0.07666758586327245","-0.19142188428642903","0.04685748133455353","0.08649431594077357","0.22407605508656486","-0.5814838654834974","-0.06764383624896012"
"-0.26150514664933694","-0.03394138581775258","-0.01688679664273194","-0.0016013595148424713","0.05357307287106968","0.14525402174756982","0.2053794282672693","-0.5914311346163894","-0.09624323386630794"
"-0.2598202128163651","-0.1491019074591021","0.029304220269752174","0.041817684669844375","0.022632528543172003","0.1348815212264131","0.16818122140622738","-0.6201779508505691","-0.07665070979997468"
"-0.16287393416383217","-0.17388570482500207","0.045779149854844964","0.11872789916989744","-0.17794491104782809","-0.36182146524143644","0.19821842514870178","-0.5973678337010067","-0.0631265075436427"
"-0.07641275804904958","0.046574794099168516","-0.10283639606894746","0.047611511759213215","0.016064603434953438","-0.4439472063822751","0.2610792151700579","-0.5454019277136573","-0.05353453859591915"
"0.05228633939067065","0.006277336750927265","-0.05412329321035253","0.1693107631239418","0.1407848175576872","-0.3786397686133635","0.3139368918857112","-0.4981326103354716","0.00465793820637165"
"0.079839340246759","0.2341536547410705","-0.029873102267645876","0.04239148343110457","-0.011771834612523195","-0.014182280776497042","0.34202362785269985","-0.45996623155369915","0.03624328356055555"
"0.0778020145378628","0.04667658840519778","-0.02211808038126677","0.013547505432186233","0.04523003933710841","0.11295705475282157","0.3387914241104672","-0.4750454472286269","0.049170950007393736"
"0.09484739251199895","-0.00011524179596956023","0.034814726101239986","-0.040021807779289535","0.02978130684665517","0.035112336288473434","0.3326335187050062","-0.4846365144164418","0.05659577790473709"
"0.09766430340673456","0.0004913691705721656","0.04857137078437481","0.004100332437860936","-0.050640654094739154","0.050192991000328376","0.3197882952121673","-0.4954808847443426","0.05605480981448379"
"0.09144092808320314","0.015496369237989659","0.013714664288571697","-0.008640792035953655","-0.06482093914600724","0.11867236563895264","0.3101752754615607","-0.5021827583776438","0.04261886217106321"
"0.09287283299542926","0.021983159453833976","-0.030401806822349754","-0.07225562711780037","-0.07686400992710107","0.1357115154187939","0.2882185810746685","-0.5231722878079238","0.01807100502422259"
"0.09093785498164442","0.01107870409980137","-0.07292121843267546","-0.10787447404790658","-0.029356345394917646","0.1323260127919774","0.2635869594528248","-0.5382515034828516","-0.014568492650847614"
"0.05549156495064962","0.02813236651192819","0.0820263906345626","-0.02131558306236753","-0.05207423903072389","0.14565931130934642","0.24291200103268015","-0.5532251778407195","-0.05098822957895659"
"-0.17756655718734649","0.055925328210142185","-0.08676047320248276","-0.07818809014948712","0.01610792211165014","0.07655137381742792","0.22552497400549673","-0.5549929949014721","-0.07914308544238027"
"-0.24626371660594043","-0.033270374371886215","-0.15771221139330946","-0.07676322074233093","0.16943258330683136","0.16053125403130444","0.19704814448341063","-0.5708901557836138","-0.06756211901478287"
"-0.18272726881290585","-0.28118521311911227","0.16478724071522038","0.06870824373151954","-0.12360031481843661","-0.36187000291350546","0.21515963097006047","-0.5586737483339348","-0.068609733956935"
"-0.1388034508356633","-0.010442481886119912","-0.0499246355552237","0.1558515237239125","-0.18514394858946764","-0.47122537808508325","0.2847077390787948","-0.5027500429568406","-0.061220861642629645"
"0.01816402222465845","0.04697262286660941","-0.09969101701889277","0.06278925919422483","0.10366478023360826","-0.2806422087059443","0.33377593554493334","-0.4576839005722797","-0.03620885060566231"
"0.11958548513756458","0.1660657286163955","-0.026463370940239244","-0.005111544554363708","-0.057274873531383046","-0.12836739700730593","0.3720608315951743","-0.42251225666208075","-0.009520001923378183"
