"AccX","AccY","AccZ","GyroX","GyroY","GyroZ","MagX","MagY","MagZ"
"0.06122900535675195","-0.029722115704580502","0.014005245268442148","0.07119791419564514","-0.019807329474908444","-0.06039766792540676","0.3154415384553713","0.14760874543065963","0.4633302362644435"
"0.08883688691482852","0.0008299910457307322","0.035227776534602386","0.07637846979017716","-0.026455190704766225","-0.04149709842171729","0.3202341164179923","0.17308378083598375","0.4508111559884915"
"0.09503788631705808","-0.00036609205011309953","0.03575441583713945","0.020507222286464625","-0.05502517429962069","-0.0798272980546489","0.31859015072151187","0.18628963813309898","0.43781811575431145"
"0.092664286327874","-0.03506943292334216","0.008326855088314187","0.029212404164509338","-0.03934668529188108","-0.1701559057751576","0.31468921517054127","0.2066195343317548","0.4291887758251956"
"0.08311677725672248","-0.04060683542785234","-0.03679582753079974","0.08139343245360726","-0.035002851136935666","-0.21775680077327844","0.30072943866313884","0.24655373017427992","0.41292704622392634"
"0.082991610743416","0.0202422690772519","-0.04387964246296495","0.16201312116026353","-0.13922854458801984","-0.15843648485408462","0.2864910239020959","0.28185730073080373","0.381907184130249"
"-0.02080994156097947","0.14624700046294326","0.1261546336828349","0.009657708225609808","-0.1659832123666065","-0.17897520079010465","0.27517831080428073","0.3113824841783","0.35194964608087553"
"-0.18051278434671433","0.09399743738249475","-0.060440899588630484","-0.008452767039185004","0.0622966406367865","-0.016118205826971245","0.2712495114279459","0.3055777117400076","0.3550712444264458"
"-0.2787203563256433","0.10298442040050675","-0.03525308416219117","0.0663976446928879","0.04346139281341438","0.003279632127065675","0.26837953741544607","0.3113165208551376","0.35706514494037034"
"-0.19042019528458867","0.16526591621187992","0.12304229866744919","-0.016713639977092843","-0.08661669542649643","0.26506683836642514","0.28562724531580946","0.29096023932721676","0.35327346527454667"
"-0.05369984998058943","0.003514057603544348","-0.0234646247940282","-0.02944022693195604","0.024073293370321942","0.2708428213426425","0.3187573336736962","0.2536777690758206","0.3534695866365721"
"0.07671787996876206","-0.0060606524985235555","-0.11553356639050773","-0.13463891291205643","0.06721965267905798","0.15000100607592326","0.33271711018109834","0.22188344731153728","0.38329637711126197"
"0.09285733160416593","-0.1023076882078953","0.03080937604892477","0.019037103648135243","-0.036927061969209","0.040716010528845666","0.33188119542017613","0.20002320201551343","0.4071578094910139"
"0.06870626029781433","-0.04379465915442178","0.008646122420781655","0.10280402079532772","-0.03837500668752414","0.006597910078066523","0.3382341476031857","0.21416573850153492","0.389703008270757"
"0.08563936390951458","-0.009754850961718162","0.018082879146595787","0.04334941928253727","-0.008082567202138428","-0.03168520801295811","0.3382898752539139","0.22619744864635918","0.3693227300669552"
"0.08793655455642169","-0.023465920753414717","0.04231778722326804","-0.007368518440307107","0.012399747654530351","-0.18270046712140453","0.3310731444846182","0.24359857329660384","0.3779520699960709"
"0.09196932333322311","-0.02002361126177211","0.01517128664182421","-0.025106890984922282","-0.018220334197693953","-0.2463018057170889","0.30045080040949806","0.27424513323786115","0.3784096865074634"
"0.08939744033057492","0.0030051380092684598","-0.011954974468384855","0.00022189567655778064","0.01787704729475518","-0.19242013595323249","0.2750111278520961","0.29965420532002285","0.3806160518302487"
"0.10961741658170328","0.02349449328314598","-0.027776871318331686","-0.0003405426394291383","0.0518307526149814","-0.17158534021759125","0.25193988045064125","0.32530074536556924","0.3747814413099943"
"-0.06980781742380004","0.11441031189358722","0.014348903228999666","0.15478287166854535","-0.10489669833309315","-0.0024063134674636067","0.2302618243173898","0.3418311541500701","0.3720193987948039"
"-0.18359380621271995","0.10298234296568982","-0.04260538187604193","-0.08374219258859791","0.06296197721809495","-0.01276425268699964","0.22750330560634582","0.32667278248734744","0.3882647849492376"
"-0.24437659071301202","0.11604109822487234","-0.05569288485712966","0.08521843661214205","0.01238945647719356","0.12459396163137716","0.2311534667290399","0.31775454119578916","0.3885426235454403"
"-0.18835013371836612","0.1582441865306777","0.09545879072750794","0.021833891234478958","-0.08210054388358623","0.3436493294462229","0.2601039812823153","0.3011845544173909","0.37505927990619686"
"-0.0507054818545652","-0.029154975999560327","0.012420164230413928","-0.0368697655907562","0.013675853644291722","0.3353493875224147","0.29746937109554183","0.2530840991673589","0.373817177946703"
"0.0777875722478659","-0.021476776916210256","-0.08872865851745461","-0.15160256085401042","0.054532784990151274","0.2426594220557466","0.3182000571664147","0.20278046892370238","0.40290851331379773"
"0.0867599893313408","-0.11702631388579984","-0.007293287277456776","-0.04156605813677502","-0.016748217179122643","0.0445965974107665","0.32304836277976423","0.16941622006815357","0.4251846313505113"
"0.06307184156035657","-0.047949528788269226","0.004408018449266724","0.011932011604342943","0.023348124362636846","-0.06259642447013489","0.3194260654824341","0.1756431577746854","0.4332746375340573"
"0.09026224465558937","-0.010742671217165392","0.037377704040253694","0.00610208140499548","-0.0023159179479560746","-0.08809569049161219","0.3186180145468758","0.19226591521161362","0.43330732442772824"
"0.09222167828043565","-0.0012749697825172274","0.031173686531150407","-0.018065340414692353","0.0023421561103195493","-0.16477550482630304","0.2972743243179933","0.21245069209931214","0.4341735271100068"
"0.09415540462908742","-0.007163251027605821","0.020565725301537188","-0.020355721711735966","-0.03566100782707892","-0.1975238721712935","0.2827851351286736","0.22953519279837728","0.4326372431074749"
"0.09005639388216688","0.009364924247580146","-0.012049976068058207","0.021293788709198812","-0.023453517538302018","-0.14543081562318175","0.2644786018644755","0.2536249984172907","0.42866578552646134"
"0.07943495612684576","-0.014401033929768062","0.030639818846029503","0.06247925382320841","-0.042149236143363765","-0.061810114182616206","0.26325259354845615","0.26808415885449177","0.4103938119644322"
"0.0010970867256535851","-0.0013887093387438014","-0.21699114433731467","0.15826802521848143","0.04511516107846523","-0.036827774368674335","0.25464267151095643","0.29225312046120006","0.37406232964923464"
"-0.21620449702572309","0.09557005553890599","-0.05786966064094952","-0.08821031347955186","0.0004849575955880662","-0.004662829841953908","0.25207919957746167","0.28676497197408723","0.38202158825809707"
"-0.2579715996967618","0.16345854792115627","0.02198765141838726","0.02869155663121779","-0.022779804417300837","0.17048633057266735","0.26080057691641717","0.2733216467135874","0.3831492860897429"
"-0.17403301023477125","0.1339381991726702","0.11189613272316475","-0.0011735135928558455","-0.06806864324973226","0.37490759025869336","0.30137030664651243","0.23628983709020845","0.3773473624631594"
"-0.020569236727697778","-0.028854786668514848","-0.023826043923220304","-0.09123527272096045","0.12326827641165666","0.18813220125337177","0.3212929417818273","0.1939545762845714","0.3900625641011367"
"0.12132241121452525","-0.03486065072424133","-0.10435022590722068","-0.18985260243935836","0.05390095456761378","0.15811650484586906","0.318673742197604","0.15990430886813356","0.4325228389796268"
"0.05763480078618977","-0.11818967738327715","0.026824678518277672","0.02033970385616383","-0.02606986987890054","-0.008413821139450368","0.3283146257735745","0.1395612200048452","0.44541781853279416"
"0.08001842464272059","-0.005994693943086228","0.014196281093872259","0.06790627331519447","-0.036130094049871914","-0.031966726510958623","0.33324652286301587","0.15614439944787595","0.4289599675694995"
"0.08854977418969014","-3.3183120701073665e-05","0.04153918715637991","0.0017427512187771163","-0.00026964896587435163","-0.07004695713273461","0.3343610758775791","0.17313655149451368","0.4268353194808913"
"0.09502064222280177","-0.005917205624414973","0.015357572387270653","-0.017863162998812084","-0.028924594606183674","-0.14087312821589762","0.3256396985386233","0.18609174816361176","0.4195951725327886"
"0.09290085103802324","-0.01773843296315602","-0.007772838830590528","0.004506997868660104","-0.020983395647768046","-0.17385204950321606","0.3134074792037934","0.20840054405714","0.42234087160114364"
"0.08712104658126334","-0.020244858069774486","-0.022037535546761102","0.08643920310421911","-0.03260716078481425","-0.20554229559710113","0.29933624739493486","0.23956161791906413","0.4093478313669637"
"0.07178535652515369","-0.12277042115459394","0.07730522418123034","0.08225605609469641","-0.1398436219311719","-0.2805936710338753","0.2776581912616834","0.2825433192916928","0.37692243284543786"
"-0.004499782057812248","0.0224890148317549","-0.055988215916983775","-0.04180963378543076","0.09732732963179258","-0.18136082737229867","0.2568160498893544","0.3112637501966076","0.35706514494037034"
"-0.1697292078156947","0.0835676758841292","-0.11735098829730228","-0.12095824110415825","0.008935210837616312","-0.09931760027397737","0.22967668398474408","0.30706848284347815","0.3894251696745544"
"-0.24687029278581024","0.11319501252568684","-0.15377790601553257","0.08432789323266944","0.06337841090567649","0.09642512364610192","0.21543826922370118","0.31274132863544574","0.3960115787492393"
"-0.18911076099153626","0.16319886856904078","0.14946306963747524","0.040646018407338246","-0.09193938807696396","0.3700295542157535","0.25943524947357777","0.2861185314070956","0.3782299085922735"
"-0.07560398980922312","-0.010198383295131378","0.0708698984294441","-0.041461118430437156","-0.03024521592116929","0.3226325174403227","0.300813030139231","0.2389679480106024","0.36765569848973956"
"0.0677116679266944","-0.001522496140953689","-0.11105196918852565","-0.10560238499325213","0.07221207033592636","0.2432467278877821","0.31984402286289515","0.19985169737529115","0.39754786275177123"
"0.09081259218640463","-0.12054756590048557","0.038352503062988964","0.0028974730883332793","-0.071486271444367","0.2061323969401803","0.3352248544638656","0.15462724301514047","0.4207228703644344"
"0.07184793978180692","-0.05633197827455643","-0.01969760484176309","0.12336835223914933","-0.0363095913290019","0.035869523972750665","0.35353138772806364","0.15770113387450893","0.39217086874290935"
"0.08738495536047337","-0.009823406310676646","0.052090560476622465","-0.017880492491601823","0.05150765751254743","-0.01401409774277777","0.3558998128840102","0.16559034732473354","0.39202377772139035"
"0.08800472216520706","-0.024230416766042647","0.03583496067164512","-0.06487711418777","0.03243068668661361","-0.1628946700336272","0.3400452962518508","0.17942945252420792","0.40539271723278564"
"0.08719017700938184","-0.02944789430874657","0.004764067922825115","-0.0584883078459535","0.0521634209056356","-0.27387120345231136","0.31716909562794393","0.19615775127819604","0.4257566519897519"
"0.0883793551677267","-0.0036716024590612776","-0.0070898599390257925","0.017992520332753854","0.02172786225635693","-0.23331312467141013","0.28657461537818807","0.23254312033458333","0.4306760294872214"
"0.09924477134206212","0.034113301349851584","-0.03550091442220861","0.123551274663041","0.01122416014108176","-0.1613269032257968","0.2602433004091357","0.2623981203978917","0.42073921381126994"
"-0.05058994353458999","0.10658980852527787","0.1288745707865263","0.21124813567510614","-0.21947818814144937","0.06520083920407975","0.2524414293071942","0.28105254818822223","0.3985448130087335"
"-0.24089118472709314","0.18589484394393246","-0.0772582479829807","-4.2860463285428344e-05","0.09171026144355186","-0.02898408656231528","0.2596581600764903","0.29037976208338756","0.36919198249227164"
"-0.278133036532436","0.10685987505147795","-0.03490199129383313","-0.06518519405958755","-0.03237501097047282","0.15371413798920586","0.2651194698478491","0.26460129539151633","0.3829858516213885"
"-0.15766508157161638","0.09475466237326345","0.06166920002629659","0.02423402598585758","-0.05806705485661002","0.35226476623847985","0.2984446049832844","0.22734521046938516","0.3788019292315142"
"-0.004528666637806052","-0.00986495500701512","-0.013576197419332286","-0.04982163595188598","0.06903616514385333","0.2298940143015855","0.33344156964056476","0.18862473977304842","0.38452213562392046"
"0.0928176634476411","-0.06760933317822684","-0.020542292977989204","-0.139914780716932","-0.03038713843653472","0.13872570485428212","0.34305458939117095","0.1522789487105585","0.41132538843405275"
"0.06284654183640491","-0.10289975713071856","0.01475162740152801","0.05172630354717641","-0.021433096164415008","-0.08943047647351116","0.34168926194833094","0.15156654482040446","0.4121752476694959"
"0.07985474535608902","-0.01309848229955689","-0.005597715248504117","0.07713326547613018","-0.001133629202753301","-0.15251246197805662","0.34121557691714194","0.18226587542019176","0.40032624871379724"
"0.09912470777122122","0.029247949008616225","0.03976513554508838","0.01348107570982557","0.025686375585436662","-0.14603996340764835","0.31989975051362335","0.21979900629960503","0.39643650836696087"
"0.09540037816778697","0.00915292202451308","0.0049598538282388934","-0.08588431044732933","-0.006642520364105009","-0.18553749405384068","0.3097851819064636","0.23018163336536893","0.40714146604417834"
"0.08530045150425394","-0.03968964795618051","0.009269580744898866","0.01335591826189969","-0.020157708163770154","-0.2563248349993485","0.2901969126755179","0.25456167760619697","0.41099851949734373"
"0.08615495366240396","-0.032928636344502264","-0.04281603759705676","0.05116213228191051","0.03720292101441589","-0.21712338415277732","0.2546148076855922","0.29254335908311474","0.40944589204797627"
"0.06619041338035413","-0.1381122772775756","0.03767510035227462","-0.04946349310089807","0.0333209931910983","-0.3472358947846858","0.2318221985377778","0.32629019521300545","0.395782770493543"
"-0.1667829806563268","0.07632573811233312","0.06540524119605952","-0.17275416955348422","-0.01828638919641378","-0.07766737164757602","0.20610388772673538","0.32676513113977484","0.4108023981353183"
"-0.19961511991594916","0.05570200396732289","-0.07121325489072193","0.07918873587091291","-0.07242923048406315","0.041065481767742856","0.21906056652103104","0.31421890707428374","0.4133029455011417"
"-0.22017131267820536","0.17736697402046056","-0.006810018270422765","0.05514887837314953","0.0035814053254329004","0.2442441770488011","0.24029280144845713","0.3101027957089492","0.388460906311263"
"-0.11171934299480767","0.05480039725677799","0.05741065005833022","-0.023462514669096095","-0.028298747426283827","0.39837555470408076","0.2833981392866833","0.2659073691901321","0.38331272055809734"
"0.031954483533032964","-0.005314022425321172","-0.05867304373383939","-0.10133740426777789","0.09132015402357604","0.23169476193534735","0.30602356548231335","0.22066972216534889","0.41384227924671135"
"0.10130395304982032","-0.089420321321109","0.00248526868196474","-0.06828717326895052","-0.03233193162348163","0.1621232896751694","0.3154415384553713","0.1777012134573527","0.4375075902644379"
"0.056853954307023974","-0.062378352309212924","0.020306329629385597","0.0982694701820131","-0.027335206031914118","0.009927837070363946","0.326698523902458","0.17797825941463483","0.42920511927203114"
"0.08838070311479308","-0.010550508496599949","0.021572535732858045","0.011432344562238851","-0.024680560938434532","-0.030750857825628832","0.3310731444846182","0.1882157671694414","0.41899046499987697"
"0.08931049774479359","-0.015598675101724588","0.021733418876652703","-0.04228041833955196","-0.05317036908194427","-0.132029564364916","0.32547251558643864","0.2068042316366096","0.40818744664164697"
"0.09499030378561493","-0.023129376313073075","0.007086443984405223","-0.06083356587016461","-0.03451461853770214","-0.22887192767709175","0.3138254365842548","0.21912618040334847","0.4162120790378512"
"0.08712056517159678","-0.028989819931614893","0.009084306973014161","0.03011161229037682","-0.039456776956414134","-0.241884877558805","0.2907541891827994","0.25263554856985454","0.4121589042226604"
"0.08764048761148523","-0.006093475968630951","-0.03984000922468065","0.08009083224557867","0.03779167208996222","-0.1683915613954475","0.26840740124081003","0.2845881823097276","0.40465726212519054"
"0.014767195617387258","0.02839100714663519","0.10706344265282464","-0.05247593659751408","0.022122756270442873","-0.17058789105657218","0.2519677442760052","0.30734552880076027","0.3915825046568333"
"-0.13759992666925486","0.06283799256345586","-0.11460007241110869","-0.017399117691886897","-0.009128677344907927","-0.031500764859095705","0.2515497868955438","0.2952214700035087","0.3975315193049358"
"-0.26323822144896514","0.04582380141285059","-0.05166151262751261","0.12710382068493714","0.06025994484292505","0.004648394479412987","0.24399869022187945","0.2967913970947741","0.39408305202265664"
"-0.19264430794411141","0.2119562637222405","0.1448121217578146","-0.009969579033086736","-0.1125241360475896","0.2751626741567883","0.2597138877272185","0.28576232946201857","0.3804362739150588"
"-0.10287103332337279","0.008626811657127148","-0.009943831908343316","-0.025792368699716336","-0.03409818485012059","0.34605194421364105","0.3126551559189637","0.23989143453487616","0.37004184172771476"
"0.04230960546081121","-0.026325509778910218","-0.053935355263172634","-0.07619327297946846","0.10911910422210444","0.18107482373453138","0.31956538460925443","0.20788603013647317","0.3999830363302528"
"0.10068774867661918","-0.06620187108976103","-0.005436006003842734","-0.034465779840979864","0.013692128064266172","0.08845523789236331","0.32446941787333183","0.18183051748731976","0.4273256228859548"
"0.07402294865534027","-0.05623433883816102","0.007229152909131934","0.04968527439638513","0.03050168926023014","-0.018996247092305775","0.3232991372080407","0.1861840968160391","0.43069237293405677"
"0.09032627214124231","-0.010552585931416872","0.01747714068606982","0.044980317103971434","0.03141114214115534","-0.05057606998223376","0.31633318086702145","0.20383588209430095","0.4266555415657015"
"0.09343280871957578","-0.0068422873483911075","0.016220847792998077","0.002143832701899592","-0.009201433575381942","-0.10835531481323513","0.30752821205197345","0.21813673055591223","0.4281264517808917"
"0.09008989999495969","-0.025464413047295336","0.0252577716993174","-0.003590592737184429","-0.010155880440942401","-0.1754392313798741","0.29390280144893993","0.2374771769071319","0.43069237293405677"
"0.08735693731787939","-0.01860887815144706","0.018097748962196833","0.02620766266468877","-0.019726675364152707","-0.1756649315549952","0.27724023388122226","0.2647464147024736","0.4229782660277261"
"0.09428567408485945","-0.005543475100850397","-0.018613347454186784","0.033591952092315726","-0.006249062328252103","-0.14761986463349605","0.2587665176648399","0.2869100912850446","0.417307089975826"
"0.0297679208275021","-0.011756459407824167","0.08116104997666837","-0.04971669624554813","0.09738955535522428","-0.22181697704185482","0.2288964968745498","0.30969382310534227","0.4162120790378512"
"-0.14297245854810217","0.11974931937308121","-0.07252055951231395","-0.01770142106610787","-0.07826169540725982","-0.03502702673491245","0.22719680352734112","0.30880991457496587","0.4172907465289906"
"-0.2577886640234677","0.03531509739144195","-0.09256383179122452","0.07937454654360286","0.059127915335878654","0.03473131556273136","0.22730825882879754","0.30512916114250316","0.41738880721000343"
"-0.20189700173545952","0.21487505964001835","0.09650587357608163","0.00027147728092841796","-0.1126294411180125","0.3028291472361488","0.25238570165646634","0.2876620731690961","0.40537637378595015"
"-0.09706523274461847","0.025008943264683378","0.0125731994159747","-0.022100223985902858","-0.05288796002944645","0.3941042395620041","0.301871855503066","0.2428070134186549","0.3975151758581004"
"0.04100883654175697","-0.017874504943664524","-0.09035194672056884","-0.08058726215126631","0.07885346966373546","0.19077507749753175","0.3218223544637446","0.19816303630233342","0.41575446252645876"
"0.10369087845857486","-0.08422777299620816","-0.000486216135644384","-0.09777523074988745","0.0074717096884432425","0.09734976629901738","0.31964897608534687","0.16890170614748673","0.44827792172899716"
"0.06521026329923109","-0.06410054577244269","0.004707480013454467","0.06277385520063396","0.00020254854309023846","-0.0204926635221947","0.3234105925094971","0.17330805613473596","0.446512829470769"
"0.08677346880200458","-0.022874890547999918","0.018670856438487166","0.05494766370686869","-0.02278171905494489","-0.042392618471391336","0.32001120581507947","0.1879123358828943","0.431689323191019"
"0.09011002291902202","-0.013520201567392405","0.028717069078727522","-0.012084739903034119","-0.0032196269159491253","-0.14637487334492483","0.3198161590375312","0.2097989665081831","0.4289926544631704"
"0.08938463483344435","-0.013342580890545427","0.018199565894020664","-0.04899944779397288","-0.021147575825745595","-0.2323083948595807","0.3017046725508814","0.22767502708519718","0.43718072132772906"
"0.0914033781292112","-0.012257121198702783","0.012415207625213578","-0.029869613253301754","-0.014096204712403628","-0.19925909394776217","0.27885633575233876","0.2516724840516833","0.4416588257606413"
"0.09040108320342626","0.0019320702161087656","-0.022415476693287698","0.09797101780618986","-0.014234776611891969","-0.18118366486924659","0.2632804573738201","0.28213434668808585","0.4284206338239297"
"0.02087435864741027","-0.033955927861471044","0.11096057349159891","0.018424794902897855","0.045586640598313306","-0.29292223973941484","0.23148783263340886","0.3184801377505757","0.41212621732898946"
"-0.11285546980789726","0.1707399569544739","0.012165126240334312","-0.14079088285241317","-0.05267256329449048","-0.035784214419189685","0.23176647088704957","0.32147487262214924","0.4090046189834192"
"-0.24632148576592805","0.00191970947894807","-0.15327398448683044","-0.002864198164414607","0.05876413418350858","-0.039941466031904134","0.22934231808037514","0.2971475990398511","0.4348599518770957"
"-0.22074900427808145","0.15183530012046806","0.08113626695066661","0.07499114761739877","-0.0929828655929729","0.21409985581031543","0.23909465695780174","0.29851963616162935","0.42082093104544716"
"-0.10798360398227584","0.08681262906816406","0.06682200418249255","-0.06064197869987808","-0.13663181728327287","0.32010855849273184","0.28646316007673167","0.25983874345919006","0.4033824732720256"
"0.03396292466193538","-0.0033237359989674014","-0.09315242865876594","-0.06978713714486222","0.00887274578447908","0.20149462237398222","0.3131845686008809","0.21971985031181013","0.405261969658102"
"0.1159768382770055","-0.058853984142301835","-0.03570124388238938","-0.11836844468169196","0.023123154439460603","0.20563245891786902","0.3237170945885018","0.17970649848149012","0.4297607964644364"
"0.059338991005824133","-0.08737924161348144","0.02165122184041358","0.09584719218984761","-0.0066111681726836406","0.02917617899442818","0.32970781704177815","0.17485159789673646","0.4286821289732969"
"0.07794354897983242","-0.037539502920664464","-0.0011691950272091152","0.06422664434617359","-0.0010302387699744346","-0.014095155655133088","0.33402670997321016","0.19139519934586977","0.41635917005937023"
"0.08808126630219065","-0.026537408130236435","0.0637840182451121","-0.018704606148713773","0.005857430824800993","-0.18266649075095617","0.32410718814359896","0.20593351577086574","0.41768298925304137"
"0.09368805212478767","-0.026877068722803467","0.020320166818903238","-0.010172719198566434","0.0034650910885566776","-0.24119321573182098","0.2949337629874107","0.2390207186691323","0.4213929516846877"
"0.08832043062453933","0.009606322173306682","-0.01593884589816523","-0.02191056231481518","0.03966083708996903","-0.2092457199759699","0.27211329001423235","0.2661448371535168","0.4299405743796262"
"0.0990774333419647","0.011069251771384365","0.0039003794666643307","-0.02500483952738272","0.024702730495804386","-0.22196016317445852","0.24466742203061703","0.28925838558962647","0.43610205383658956"
"0.013654176468292723","0.04694769364880633","0.14418428509910375","-0.04268958691930965","0.12628861729515037","-0.19934888864108988","0.20158994801775482","0.29845367283846697","0.46937731159355855"
"-0.18297760183951883","0.08116823867058232","-0.0425145107807022","-0.005478833526546196","-0.0981882866877422","0.14921226890480113","0.21234538460828856","0.27596017964008396","0.46398397413786124"
"-0.2584915221366502","0.05821362266098366","-0.1390650495791638","0.062220274180961786","0.05857027712204821","0.034374563673023814","0.22042589396387074","0.26874379208611593","0.46418009549988665"
