"AccX","AccY","AccZ","GyroX","GyroY","GyroZ","MagX","MagY","MagZ"
"0.09734224033980365","0.004099354088864437","0.03734466000558471","-0.04048777858541359","0.005719098255018158","-0.13568445107171576","0.3414663513454184","0.1957883566684865","0.4226023667505107"
"0.09787188725495669","-0.019135507877537223","0.010855240053533794","-0.04544979002087503","-0.01269516861636779","-0.19678852643944733","0.33007004677151136","0.21043221441054233","0.42423671143405534"
"0.08964122618572262","-0.023744297018882494","0.007600485248724733","0.027013484079411555","0.004745026353606156","-0.20843756773602015","0.3070823908461484","0.2356829745171142","0.42801204765304357"
"0.07707508594135208","-0.04063903566751465","0.031588802216679625","0.07730078390643097","-0.045516605099842115","-0.2708375989479955","0.287995670471756","0.2734931513538097","0.4151987853340536"
"-0.018325867681512432","0.026952383535915517","-0.006841616628574992","0.04845006666031662","-0.009599678205344983","-0.13768663004456422","0.26230522348607754","0.3080183546970169","0.39073264542139013"
"-0.13748438834927965","0.12899390430839175","-0.062456585703439","-0.11718426267439323","-0.03507943664269779","-0.049095670984127635","0.2521627910535535","0.3054325924290503","0.40459188833784865"
"-0.22077788885807517","0.11400521210428707","-0.16816445260954507","0.13934036809369055","0.08217057938205741","0.05246455405316008","0.2554228586211508","0.30320303210616073","0.40032624871379724"
"-0.19620673947668046","0.16858981191895786","0.09501682676381017","0.04863202633460886","-0.06347351290400488","0.33578622657103624","0.27712877857976614","0.2967913970947741","0.37858946442265334"
"-0.09570765748490977","0.0054341059587379266","0.09670413778409558","-0.03016228913152843","-0.03659200038149971","0.3565603502165911","0.32051275467163304","0.2448518764366897","0.3738498648403738"
"0.048369590343511015","-0.01706118921283889","-0.05619474113366498","-0.09976812242070723","0.09956984897238973","0.19711895123695702","0.3400174324264865","0.20184378973479614","0.4064713847239251"
"0.11075354339479286","-0.07462379183756979","-0.02230395307627985","-0.06649838451320986","-0.010726681788575724","0.12703055276924363","0.3439740956281853","0.1719360190129577","0.4310682722112719"
"0.0655414731498267","-0.07912143821620965","0.017076894816141656","0.10885008827974717","-0.02378379253190117","-0.020033254456061106","0.35007627338291814","0.1734135974517958","0.4237137211353211"
"0.09282777305063893","-0.01725439065081279","0.014694213391290635","0.09670596483253904","0.004712956173068268","-0.08071796433711603","0.3533084771251508","0.20314986353341183","0.4025489574834179"
"0.08908683481370824","-0.014073837946102577","0.02553079803576995","0.004054216732048245","0.007323564600734635","-0.17579112950237474","0.33642299895452066","0.2300628993836766","0.39896974262645507"
"0.0879638986254825","-0.03240616148804595","-0.0040789288050305595","-0.017261444499168426","0.017384028101411514","-0.27523025827024483","0.3099523648586482","0.2606962666603014","0.40606279855303884"
"0.08546701924888488","-0.008920760882723288","-0.025953253655036677","0.03753922544997812","0.013052160431741433","-0.2187348348654699","0.28164271828874643","0.2931238363269439","0.4076154260024063"
"0.08376090339058428","-0.004250791286019611","0.01489826030537166","0.09472655165611127","-0.08621940811535542","-0.2533154993310671","0.25506062889141756","0.33410025267543525","0.3864996926910094"
"-0.036282448244326415","0.14162470799528798","0.0969643595571139","0.12186646286403875","-0.07329081742388702","-0.1303380264933095","0.22574788460840925","0.37117164029271166","0.3723952980720191"
"-0.1781731333672163","0.11424411710823335","-0.032688040971010655","-0.07671123226396172","0.0037836389265860078","-0.01479870921177402","0.2236859615314674","0.3620027383731362","0.380665082170755"
"-0.2330538353554413","0.1079183280907006","-0.1596927882212822","0.010545652181163958","0.017080079375418087","0.07053027559726183","0.2202308471863222","0.35072301011236345","0.3891636745251872"
"-0.19899891554274804","0.1513055542421525","0.046219048566375924","0.008229180369975794","-0.10127563988877776","0.3700780918878226","0.2512990124672673","0.32341419432312424","0.3838357108568316"
"-0.08119797013468955","0.023126787320550485","0.05458331984196457","-0.02158130195181017","-0.015058788787951312","0.42451309111326613","0.3075560758773374","0.2641923227879094","0.378834616125185"
"0.056749006999713164","0.006272350907366649","-0.11146915012622167","-0.15808186565817328","0.0631295080119496","0.36459333494401946","0.33215983367381685","0.20913933327655895","0.40790960804544435"
"0.08059322778459725","-0.195729931924955","0.052794811465505374","-0.10945338339097153","-0.06677147624588631","0.10301896639668286","0.354450893965078","0.14499659783342808","0.43430427468469046"
"0.06610375964037271","-0.03773478179345529","-0.00011653599778503318","0.0313525965240419","-0.009206459499197583","-0.04891608159747213","0.3493239500980881","0.15545838088698685","0.4374585599239316"
"0.09668039833021233","-0.006153513834840046","0.04498196251845553","-0.02597914212200573","0.027938468114254086","-0.08270315512474033","0.3459245634036708","0.1666325678306997","0.43953417767203334"
"0.09312566935230836","-0.01495259287366131","0.028604306310419585","-0.028435116350151276","-0.031056304293131266","-0.13748034493827077","0.3384570582060982","0.17599935971976244","0.4474770928340603"
"0.09115468189546456","-0.020233432178281406","-0.007909765049250162","0.06739986702589437","-0.015313435594610366","-0.18996898351374528","0.32474805612697255","0.20365118478944624","0.43958320801253964"
"0.09237553680986929","-0.01904513946300104","-0.024831821728457753","0.14416374358683412","-0.04364983339689036","-0.21611622745734446","0.30730530144906093","0.24784661130826327","0.4146267646948128"
"0.07409516010532478","-0.0028692971327653367","0.007149021125059628","0.10915816815156472","-0.036058295138219926","-0.24353515840915288","0.2842340540476055","0.2985064434969969","0.3880850070340477"
"-0.04015298196349598","0.15161716946469106","0.11925049568918233","0.023157671933695004","-0.06830557965818385","-0.20011578385978093","0.2523578378311024","0.3311582884623916","0.37907976782771674"
"-0.16120825671752287","0.08754076997149582","-0.07387743018590943","-0.12229646304736574","0.012864286612918724","-0.07126282581806441","0.22789339916144327","0.3270553697616895","0.40035893560746805"
"-0.25011499393844744","0.08209685203374721","-0.16554158235769378","0.09990614450104386","0.08896993631550089","0.01448576716600842","0.21137015072054569","0.3309867838221693","0.40321903880367116"
"-0.1794247985002811","0.1896965496589028","0.13446727365425323","0.03817849118399954","-0.11279697191186715","0.2736337374866131","0.24221540539857833","0.32106590001854235","0.3882974718429085"
"-0.09530327336499651","0.046967429279567104","0.04031449262146038","-0.013409483351849593","-0.07585643186691815","0.4103400908691025","0.2888315852326782","0.27799184999348625","0.3696332555568287"
"0.03400240025459357","-0.021689713984944934","-0.07463950823546307","-0.07543270079591888","0.11041387792889534","0.282152098934732","0.3140204833618031","0.23209456973707893","0.3934783444897451"
"0.12023249972942576","-0.1001887046946331","-0.026725657965424365","-0.07688260169266023","0.03904336644976192","0.26344082635211186","0.32948490643886563","0.175550809122258","0.42961370544291727"
"0.05428418950690867","-0.11740025215284612","-0.026740114730592054","0.07787554541729058","0.016661731050192495","-0.026654278303000708","0.34235799375706916","0.17464051526261673","0.4161140183568384"
"0.09199560830101747","0.00018307784374068569","0.029261469549899166","0.0011225479268244063","0.053209291718699606","-0.05653406922871009","0.3375375519690839","0.18808384052311658","0.41920292980873786"
"0.09227646270049054","-0.0046287805509588826","0.028937431484926363","-0.061186894973155374","-0.0006822533781677891","-0.11599757128050764","0.3228533160022156","0.20266173494200998","0.4273256228859548"
"0.08587910592346314","-0.030473108390898427","0.005730812462109818","-0.02306201083573328","-0.030054709475586004","-0.1788999673983976","0.3124601091414151","0.21134250827018367","0.4326208996606394"
"0.08209715158294124","-0.04476793736615055","-0.017628222170617453","0.09874121748573374","-0.03433512125857215","-0.23670348106543354","0.2887201299312221","0.24948250172269115","0.4185982222758264"
"0.0886459598410695","-0.00911707847292258","-0.012107803128728941","0.17778295959892448","-0.045451986079355314","-0.33265032432793523","0.26188726610561647","0.30435079392918674","0.38971935171759237"
"-0.03259485019845095","0.1384566198994793","0.12392829184701153","0.14204569446808843","-0.019981561500517272","-0.3233068224546424","0.21256829521120107","0.3657230697994963","0.36724711231885343"
"-0.15273544658600746","0.09294106177808903","-0.1688976171287633","-0.08947055270520553","0.10403574127714353","-0.10718313003276751","0.18046916839178515","0.38555164474211784","0.36268729065176386"
"-0.1911808225577588","0.0344259552897986","-0.14298489819177299","0.04944940074452481","0.10358819472784611","0.01778802768522648","0.14842576922309741","0.38485243351659626","0.39248139423278283"
"-0.22328121912420473","0.1820308151844543","0.1598388965235388","0.008531002369397052","-0.07448507265436513","0.22629979968487204","0.17018741683244074","0.377002798060269","0.3768897459517669"
"-0.15274507477933869","0.10049980835946601","0.12214804447921958","-0.0861606195823657","-0.24867880551031385","0.3968466180339056","0.2395962058143553","0.33015564595032293","0.3635534933340426"
"-2.7486255438460756e-05","-0.029780283879454365","-0.1862395395734838","-0.06935678807391708","-0.011580610177823395","0.34005754171311287","0.2893052702638675","0.2736778486586644","0.36056264256315584"
"0.115084304755197","-0.04005943135359294","-0.142776307722925","-0.11000215066264656","0.059137488524098926","0.440263565699674","0.3316025571665354","0.20519472655144663","0.39661628628215084"
"0.04623309424330274","-0.13152680890792742","0.08876943895920383","0.13945589804562214","-0.1063087435955823","0.10242195303023349","0.3533920686012433","0.1845613990662437","0.3815476282998691"
"0.0780687154931389","-0.04432440503273733","0.0059908277099114515","-0.03075052913678007","-0.01370849058948288","-0.005228051033198036","0.3623084927177477","0.18520783963323542","0.36946982108847415"
"0.08963776003612337","-0.03685187199626271","0.04811081955117573","-0.08940219748364601","0.09542465847301483","-0.1342064789572131","0.3470391164182337","0.18970653827291198","0.3913700398479725"
"0.08921970388167973","-0.018400095952346224","0.014557287172630998","-0.024968255042604384","0.02973822749966398","-0.1679935524844813","0.3279523960438413","0.20382268942966852","0.4147248253758256"
"0.090094617809692","-0.005713305397133911","-0.010030572499349423","0.05273719062657775","-0.015406056190641438","-0.1455400253853371","0.30440746361119686","0.228598513609471","0.41108023673152094"
"0.09228108423328955","0.014252920628319966","-0.029902015797981244","0.1525396651018738","-0.020964009941622005","-0.16907108880441427","0.29245388253000804","0.26193637713575485","0.39171325223151693"
"0.08939724776670831","0.0004386023262223034","0.023768311836612578","0.011878097626774872","0.028701929874820255","-0.20402792022854666","0.2646736486420241","0.2900631381322079","0.38202158825809707"
"0.0009873253216771342","0.10253050089300894","-0.14969696773391203","0.08474668930842143","0.08353954529755536","-0.03222882994013151","0.2416302650659329","0.31441679704377107","0.36155959282011807"
"-0.19694811036318804","0.045387540101296614","-0.18201816414452004","-0.07518431139926597","-0.031999263332827405","0.048421365969807915","0.2379243762925106","0.2978863882592702","0.36973131623784133"
"-0.2597143026897212","0.09204464865458646","-0.05829097208297917","0.06278925919422483","0.06871307004141937","0.07001092250612297","0.24143521828838402","0.29597345188756025","0.37072826649480356"
"-0.19142152739104049","0.15642643106586948","0.19819475976557152","-0.03135417313562258","-0.1131918659259531","0.2305638341761384","0.2666519802428732","0.2793111164567345","0.365694484869486"
"-0.03174756918529942","-0.001688067695862509","-0.09651259393416908","-0.11905199689728714","-0.02545981845956413","0.19837850382714897","0.3027634979147164","0.2397067372300215","0.3710061050910062"
"0.08453212167641881","-0.01877715037161788","-0.15518847324546517","-0.14020360559676096","0.05989377039349989","0.2034798131616065","0.30605142930767765","0.20413931338084806","0.4040198676986081"
"0.08509151970896545","-0.07962833231153903","0.02858344726353478","-0.02142629926630196","-0.009824408798815711","0.10137839308074884","0.3173084147547643","0.16833442156828998","0.42605083403279"
"0.07497999107246826","-0.04295745292320153","0.031807718946361696","0.1002045968768671","0.013436045279374073","-0.006256806992701628","0.31613813408947317","0.18291231598718338","0.4171763424011425"
"0.0887963522209039","-0.015390931620032217","0.0256675177292129","-0.032450744929373186","0.012568953756323538","-0.026258696275637917","0.32062420997308944","0.19098622674226284","0.4190394953403834"
"0.09267478105860508","-0.02284061287352068","0.01465869105402147","-0.06043595028560009","0.05037084141139093","-0.12706173362864837","0.30716598232224057","0.19450866819913565","0.43137879770114546"
"0.08618614900879726","-0.02235033825672668","0.018746651193009167","-0.037068092008238754","0.01655355402330349","-0.20045797444786778","0.28913808731168317","0.20921848926435388","0.44556490955431305"
"0.08974309247116742","-0.01106051874415472","0.03143390830416872","0.023132640444109828","-0.04972162802559368","-0.2158152938905163","0.26966127338219364","0.23311040491378016","0.44442086827583194"
"0.0904857150228081","-0.04201533623372662","0.02558614679384051","0.09450415649864297","-0.06928683145076105","-0.2405161152064577","0.2494042723425101","0.27032691184201385","0.416277452825193"
"-0.029494571945782793","0.02594378893229905","-0.15167547930971795","0.002720615986918015","0.05593047047031002","-0.08812238621125015","0.22346305092855487","0.29759614963735553","0.40290851331379773"
"-0.18982324729805003","0.06587312483098141","-0.1142221312645821","-0.11702059524249016","-0.012517346645176362","-0.06761521976207502","0.21245683990974468","0.29076234935772954","0.42363200390114386"
"-0.24649479324589088","0.14970592943312122","-0.05503406941591663","0.06879970494346538","-0.019824082554293906","0.15960903826199244","0.21816892410938032","0.2839813197366334","0.42018353661886476"
"-0.1817163085131228","0.11994667568068895","0.09126839408104635","0.008120485940200164","-0.11052812630366426","0.36546701304126245","0.26475724011811624","0.2510260434846916","0.40653675851126686"
"-0.03226749162518785","-0.029751199792017433","-0.021692638434903495","-0.04476431230608098","0.0008765009937969195","0.3030718355964941","0.3052155145467551","0.20433720335033528","0.40029356182012626"
"0.09203267684534285","-0.039435162191107355","-0.0783404401183902","-0.13434046053623316","0.018659655431761873","0.2033317732617959","0.32577901766544365","0.16051117144122773","0.42355028666696665"
"0.08144724853308068","-0.10444744606932674","0.031250100861322454","-0.028429339852554695","-0.041378594491632406","0.006006478543905105","0.33678522868425387","0.137397623005118","0.4317383535315253"
"0.0787166929043332","-0.045259250700353006","0.006626305801639507","0.09252955707021233","0.01891813151370904","-0.12431207450593651","0.3397387941728458","0.15915232698408202","0.4273419663327902"
"0.09284982161336754","-0.005631766080569654","0.024015315995763294","0.0650623109984787","0.029168622800558187","-0.17211925461035082","0.32224031184420565","0.1951551087661273","0.42377909492266297"
"0.08939695892090836","0.0020797758315920425","0.017142363309829593","0.029754432188988343","-0.0016118099543555565","-0.20544522025296302","0.3046861018648376","0.23710778229742238","0.42116414342899144"
"0.08750184162751497","-0.005403248250708045","-0.002407933276862961","0.025157302851710805","-0.009441241940299591","-0.22080982034642196","0.28445696465051834","0.26297859764172093","0.4144960171201293"
"0.0939175882538051","-0.00471925283723591","-0.012663355961601376","0.05414376779134476","0.0034813655085311284","-0.20824341704774393","0.254085395003675","0.3008679304662113","0.4069126577884821"
"0.1041279984358144","-0.020417285159579156","-0.028425360498710653","0.06243111634323691","0.002289742904813595","-0.22574852847944815","0.2304568710949381","0.3325699035780672","0.38934345244037716"
"-0.033692464238215446","0.1256803957753984","-0.20051043204615482","0.12237672015173659","-0.02136105792305751","0.09538399058022072","0.21162092514882247","0.3497335602649273","0.3739479255213865"
"-0.22875003293636476","0.01661818403912847","-0.05726454175607361","-0.03850066341219036","0.04922923871612427","-0.06323469485784293","0.2169707796187252","0.3332427294743239","0.3831656295365784"
"-0.24057345434716132","0.1762036105229833","0.03635953472201538","-0.00967786590445949","-0.08812447257118822","0.14309166845689347","0.22627729729032678","0.32854614086516","0.3847672873264521"
"-0.13673338926944079","0.13012610628361515","-0.000550652003248919","-0.03221005752951572","-0.1313881034356225","0.40432141953253986","0.27150028585622266","0.29034018408949","0.37098976164417075"
"-0.009641237296709109","-0.02791266997903994","-0.07316904869269292","-0.051984934301804855","0.0672675186201593","0.35027472168364865","0.32307622660512786","0.23080168860309563","0.3820869620454389"
"0.1008473841220516","-0.041888612709894274","-0.03236173112865435","-0.10358061083444944","0.02185231370322038","0.34202331743190956","0.3452558315949329","0.1726088449092144","0.4090046189834192"
"0.06757494758139039","-0.1220744804909245","0.03790434334279076","0.00785688509987627","-0.04129961568881522","0.009908422001536323","0.35690291059711704","0.15181720544842162","0.4108023981353183"
"0.07721373192532235","-0.03725489435074591","0.00414614447451496","0.02514286160771936","0.009654396602663746","-0.0853144818820554","0.3650391476034271","0.1628858510750746","0.40982179132519164"
"0.09333623794046317","-0.018053164337919963","0.026280691097539388","0.014832776147425083","0.029051351244859937","-0.15468209591954335","0.3426366320107099","0.18937672165709996","0.41271458141506556"
"0.09283961572843638","-0.007463440358651298","0.006723785703913033","0.03062860882527065","-0.009118625497276647","-0.20509332213046239","0.3346118503058559","0.2157752435866978","0.41392399648088857"
"0.09038067143356396","-0.006797622499827248","-0.011878560138212809","0.06942741768229364","-0.019711836922411293","-0.2286486543855741","0.3124601091414151","0.2532160258136837","0.40060408730999975"
"0.09242906956479115","0.01197148171237434","-0.01262824667476557","0.0735441349694557","0.012720928119320253","-0.22739880932979598","0.28462414760270266","0.297662112960518","0.38506146936949015"
"0.01068484164492982","-0.017478753611040555","0.20150122848463753","-0.04341550011727976","0.09886382634114516","-0.262197893319704","0.25232997400573814","0.3313166004379814","0.3819235275770845"
"-0.13307467580355914","0.15067193662299075","0.04011829366561324","-0.10587195488109248","-0.11835181437667613","-0.12639434063769892","0.2518005613238209","0.3375567308091457","0.3642726049948022"
"-0.22944326285621597","0.028198844426069746","-0.1988788828343733","-0.010476948071986267","0.07124517832567956","-0.08523682160674492","0.2334940280596225","0.32874403083464726","0.38599304583911065"
"-0.2078761097941767","0.19186746904258814","0.040713086289655094","0.029778500928974088","-0.0859776851127937","0.30731888190253626","0.26013184510767956","0.31581521949481417","0.37520637092771597"
"-0.12180968960597607","0.05912353911079625","0.08755920118945199","-0.047538956651637806","-0.0652636991011945","0.4440737729570947","0.3064693866881387","0.2626751663551738","0.3698947507061958"
"0.037812276355776143","-0.03352901500659322","-0.06021578710244797","-0.11193727735750054","0.09265082718619293","0.22801317950890965","0.33146323803971506","0.21098630632510657","0.3938542437669604"
"0.1186650298550954","-0.0808197411790448","-0.052138585878046186","-0.1689609361317306","0.00950912347142122","0.15822328772442093","0.33904219853874396","0.1626088051177925","0.43446770915304495"
"0.050493569792388636","-0.10111316318816414","-0.011667904417197984","0.05082709542130892","-0.0028575210715175874","-0.047003697317951426","0.35063354989019957","0.15390164646035392","0.4355463766441844"
"0.08971517071050675","-0.027501337885289048","0.02594446804478239","0.04245983865266409","0.019681593274275204","-0.058720691355420955","0.3498254989546413","0.17233179895193224","0.42745637046063834"
"0.09588120051455712","-0.0069056491103072805","0.03399275573884881","0.015993852164337484","0.03146858127047694","-0.16173461967117683","0.3300979105968753","0.20320263419194182","0.4316076059568418"
"0.09053838124033013","-0.004043671034772316","0.01005317872203068","-0.0027870819215002757","-0.005157718871141851","-0.19605560759120463","0.3114570114283083","0.22531354011598276","0.4366413875821592"
"0.08270950467880986","-0.03054789604430768","0.013330527385544664","0.07015044263146546","-0.039595588185607974","-0.22779681824076223","0.29309475051338196","0.2622530010869344","0.42363200390114386"
"0.08384948276923194","-0.023779613410770197","-0.0439911660799728","0.12521683147005463","-0.029037079567771795","-0.20965586330495342","0.27138883055476626","0.3006304625028266","0.40200962373784815"
"0.03920451311147743","0.0009833057352197027","0.03445124171988107","-0.05620947954410305","0.05370470420909833","-0.3435713005434723","0.24544760914081132","0.3472797246432855","0.37244432841252545"
"-0.14409895716786048","0.13722054618340965","-0.043210500760917855","-0.12941118258715234","-0.07093102652759162","-0.13216789673031282","0.21688718814263308","0.35848029691626326","0.37907976782771674"
"-0.21364339759960593","0.04639717342232154","-0.09019292230372432","0.09693124823880561","0.03400786944590233","0.028249109457909257","0.21164878897418674","0.352978955764518","0.38676118784037655"
"-0.2273250603233371","0.15418280146359187","0.0780734979872844","0.05483791025253369","-0.05386681852496858","0.23389594536367894","0.23658691267503484","0.34585491686297737","0.36991109415303125"
"-0.1298107182642594","0.10929982224395486","0.08460589059091081","-0.03836972946666791","-0.11824172271214307","0.40507375344961016","0.2886086746297657","0.30541939976441784","0.35325712182771124"
"0.015582703592545617","-0.029524759396972747","-0.11160958727356489","-0.06305462919604927","0.10041468283282814","0.2620332338621093","0.3144941683929927","0.25763556846556546","0.3703687106644237"
"0.11926294066096711","-0.06068108806378624","-0.07715911587897373","-0.12217130559943985","0.06833492910671889","0.33105380354430347","0.3397387941728458","0.19673822852202527","0.40898827553658385"
"0.04897231524604836","-0.11919723326948513","0.04033101463879487","0.11514647066001839","-0.06912887384512666","0.02067868874529897","0.3551196257738159","0.1868833080415607","0.4016500679074683"
"0.08068469562124428","-0.03324960002371698","0.010928143455022259","0.0723320332237735","-0.020030145430735117","-0.04589946527838046","0.3586583315950539","0.2047197906246773","0.3803055263403752"
"0.09255134762009823","-0.01714740275774122","0.04292084085597714","-0.0010378621742961793","0.026775325745491848","-0.13219701933355427","0.3511072349213889","0.22726605448159026","0.38161300208721094"
"0.08864422676626986","-0.016685173510975693","0.011768329341524721","-0.01447620990801787","0.017312229189759522","-0.21511392452911848","0.3253889241103465","0.25089411683836677","0.39019331167582033"
"0.08878460582503975","-0.011906034714642674","-0.015048722214269249","0.047987946852590294","-0.01899336914648038","-0.21575704868403348","0.3004229365841341","0.2821475393527183","0.3855027424340472"
"0.09775914111104754","0.009240382030305569","-0.019239118860730823","0.12446588678249934","-0.04993941805760472","-0.2082215750953129","0.28139194386046995","0.3212374046587646","0.3645504435910048"
"-0.011672786089606566","-0.0027000900669268994","0.1571045026546797","0.03817656568480068","-0.011467407227118757","-0.2816614998193944","0.2347479002010058","0.3587441502089129","0.3523092019112553"
"-0.132458471430358","0.1641441014107411","-0.0776712984163431","-0.017471323911844135","-0.039119322071649774","0.025457222560497296","0.23664264032576304","0.3634935094766067","0.32382257407707216"
"-0.2395336094673844","0.016299297794730678","-0.15424671825739888","-0.008763350059961076","0.06531219492617009","0.08628317706727318","0.2324909303465157","0.34125067690624084","0.3483050574365709"
"-0.2188811347718155","0.14758694591985907","0.10117953922957722","0.08405350959683193","-0.04184528741737034","0.278050665644897","0.2689646777480918","0.32121101932949964","0.3341516324770743"
