"AccX","AccY","AccZ","GyroX","GyroY","GyroZ","MagX","MagY","MagZ"
"0.0864568938052725","0.02619515854514682","0.013042631233491067","-0.12348064505466445","0.04893964977246125","0.3198658701323866","0.271667468808407","-0.5657845945708431","0.005801979484852904"
"0.04224605938482485","-0.16795462842268488","0.03309643629845239","0.03610472854682764","0.1664433552850535","0.30656654798546595","0.20434846672879853","-0.6133441505709432","0.00775175269232167"
"-0.200616452022401","-0.10034451230590238","0.02697750717862176","-0.0014048623215988385","-0.0894838652984659","-0.20010364944176368","0.21588409042952625","-0.6010617797981017","0.012148139891056774"
"-0.25076971108497365","-0.021738533703142642","-0.10862323264035473","-0.07428317777419964","-0.022827191698991153","0.01955043055805382","0.22402032743583633","-0.5913255932993295","-0.01666045384578476"
"-0.2065763036944556","-0.16236632876516005","0.0956591201876887","0.09723932811062316","-0.10319745742399605","-0.20086326400964438","0.24711943866265604","-0.5770643228316158","-0.02298536777110256"
"-0.05726228151315843","-0.05784227338645998","-0.10702266221107541","0.19352391554960258","-0.14254086771223165","-0.370048600657141","0.2831473648584068","-0.5406657611105959","-0.0008792215814776151"
"0.029793916949496523","0.0046263785275698155","-0.07117401509955251","0.11927666644157245","0.06673859997098963","-0.33963974910587896","0.3395716112206615","-0.4866154141113142","0.038191422423340775"
"0.10024552575691408","0.20424898055145352","-0.010612560559957048","-0.03856324213615331","-0.06421782828813052","-0.15720848175073757","0.3706397765016067","-0.44988703577448236","0.05626400593397751"
"0.06919633533837585","0.08224746605797419","-0.0016142568691571053","-0.0896727301210858","-0.0008275265094103161","0.0426890668984527","0.37253451662636355","-0.454768321688501","0.031220942348022848"
"0.09585294176712986","-0.0034609505686252124","0.05659281020027267","0.048720599297756406","0.029994310284556073","0.020692279293478305","0.3697759979153202","-0.4571034233284504","0.02422594710245174"
"0.09032540560384249","0.0189241366859138","0.033061327011616584","0.09517615571904502","0.013941030957993072","0.08835573566462177","0.3586583315950539","-0.46617997659559857","0.054462958092711296"
"0.09542748153201448","0.04061255617459744","-0.00783190504256135","0.05752879538294012","-0.04028485773746708","0.22209643728369202","0.33569853949505457","-0.4850586796846813","0.07206321598980363"
"0.09092206474458114","0.009994594740589724","-0.054294709140197926","-0.05450252450431392","-0.0150475402917925","0.2306512019858627","0.30008857067976485","-0.5164176435160927","0.05817782355840828"
"0.08583963033080494","-0.01935779340294806","0.037598686022102576","-0.1807161087407691","-0.07566018150840269","0.20591640429947303","0.2631132744216358","-0.5480140753108887","0.013954090766373616"
"-0.021637966187468483","-0.1142737127533759","0.12800923012863205","-0.04288983883599106","-0.01842017450179199","0.05977432746675956","0.24246617982685512","-0.5626843183822096","-0.011036673789707623"
"-0.26898625286773187","-0.04676746837743963","-0.17319953739223276","0.029305790875654034","0.07519411846653902","0.022691303317642273","0.24932068086641795","-0.5508768835361375","-0.029279229147433004"
"-0.2559496790971956","-0.09182910699133205","-0.020984256941686975","-0.015449549753041449","0.02123723636006833","-0.09433278135248557","0.25210706340282557","-0.5477238366889742","-0.021202297721355342"
"-0.13974701378212753","-0.13587903484938263","0.15581785055475583","0.0404929412210289","-0.10050978483115654","-0.3665053505961001","0.29053127857988686","-0.5167738454611698","-0.028234882894647973"
"-0.010035993223291084","0.01845152026506365","-0.1321175412900082","0.0957018170003337","0.05402540601447722","-0.29039828079182406","0.3318254677694482","-0.47123276714983936","-0.015099654672999624"
"0.06829032234590357","0.048706242221332255","-0.05891674348952322","0.1718620495624309","-0.030955785816818484","-0.28702491258302487","0.3750979885598587","-0.4252035602471072","0.026226384995110395"
"0.07628461126885502","0.11734988215953429","-0.00835813129466505","-0.04134366297930672","-0.01285743415670129","0.03592048852842317","0.3861599272293971","-0.4206388982842682","0.02587173219878121"
"0.08781148432504854","0.010185511000265015","-0.002980627702719933","0.017121231945269842","0.05963768760860779","-0.018468642596915164","0.3932930665226004","-0.42160196280243944","0.03343221070485876"
"0.09116989444092796","0.021896945908931646","0.029061553140151762","0.01807435404870539","0.06386425020785495","0.04159454239329553","0.3910082328427463","-0.4251375969239448","0.05978765307169978"
"0.09198029947362076","0.04514240279289961","0.01742385718016607","-0.050531182406665785","-0.006237574502387784","0.12598941970336247","0.37961192826883927","-0.4373144263797264","0.05755840692334487"
"0.08502027107831407","0.03242226940887567","-0.02422463759141502","-0.11430564137209798","-0.01603549331612389","0.21662866852511314","0.353977208933889","-0.46311927840086253","0.033544980488023325"
"0.0885184825613635","0.00967196911352147","-0.01674016373888829","-0.15763900084243557","0.005566645232610433","0.2569367782948586","0.3193424740063419","-0.4991220601829079","0.003899602273206923"
"0.08354138058263139","0.00993995820490463","0.10561983138822303","0.057688611816445474","0.06321088011182185","0.3621664513405668","0.2682959459393539","-0.5396763112631597","-0.013200546150720742"
"-0.06503223353149132","-0.10928786919275897","-0.07454863714012333","-0.03080925686234529","0.08006926456770916","-0.050508117241337094","0.23157142410950132","-0.5626051623944146","-0.005927712308947052"
"-0.22581343397032813","-0.03767245874894758","-0.11278265050431412","-0.04134077473050843","0.035278710182142556","-0.05850955248192058","0.2482061278518547","-0.5417607522750919","-0.008125905908314603"
"-0.26373888750219104","-0.10482138433637297","0.10267891230268272","-0.047382991216530175","-0.019420333341104212","-0.16313735839397248","0.26199872140707253","-0.5309955379349861","-0.021842960837304852"
"-0.14040173092865374","-0.08562173175836398","0.04162799299955282","0.1808541308211057","-0.1785121224498788","-0.36941761092024333","0.30382232327855146","-0.4946233615432313","-0.01645942944970877"
"0.015974571061128217","0.031245402585088386","-0.16139662125890208","0.15483100914851686","0.05734251573279917","-0.228037079717504","0.35275120061786935","-0.44891077859167866","0.011605537456119953"
"0.11540010949646258","0.08283745754598051","-0.04037904004021859","0.09475832239289245","-0.06325811616904892","-0.2541649085922756","0.3823425831545187","-0.41810590667483155","0.04437251401650663"
"0.07555479421434494","0.10310491161988833","-0.015486555673633398","-0.10807665146378685","0.01893249129603944","0.0009406017100579829","0.3909525051920181","-0.40892381209062356","0.03354661483270688"
"0.07656479169479491","0.024390906406648573","0.03586387420198049","-0.017332687969526236","0.07197274063041972","0.07722119369198087","0.3891970841940812","-0.41793440203460924","0.0374200117327077"
"0.09160085237443549","-0.005392133974437503","0.039986117526937266","0.04222974149840035","0.04992090156503844","0.12360622000477195","0.3813673492667761","-0.43538829734338386","0.05587012886524324"
"0.09341663335477926","0.015313554974100372","0.015380703211538949","0.021790567502504615","0.0036326218824113215","0.15548090925251942","0.35854687629359716","-0.45026962304882434","0.06588539308600484"
"0.09057766426912169","0.028472027104495215","-0.02413170124390848","-0.07966302253581364","0.033074483594426454","0.20453793441271187","0.33742609666762746","-0.4773937415332089","0.06169820200676346"
"0.08606685569342286","0.002495574410199325","-0.054796565416733244","-0.165167702709977","0.015937519361329415","0.2852099722750823","0.2922866995778237","-0.5119585228703136","0.037384056149669706"
"0.04385107921314715","-0.013158727909247677","0.07978559203357156","-0.08431406585065924","0.0028011904854812726","0.33935374546811164","0.24901417878741328","-0.5561275640598656","0.0023289970323205314"
"-0.17210737156851771","-0.07993059907740144","0.012046002495352594","-0.06947424352504752","0.032236829625153236","-0.05999723213083707","0.2398469802426318","-0.556655270645165","-0.03428849560249735"
"-0.22853821268307686","-0.06624238106869104","-0.1664544238154247","0.03948109139202812","0.09190172520795717","-0.049692684350576985","0.2448067411574374","-0.5458372856465291","-0.01968072282097527"
"-0.18954402969144332","-0.11384783861590658","0.101247692551082","-0.025726901726955107","-0.09128601798093085","-0.35604548226521904","0.2802216631951788","-0.5208239935033419","-0.01682061962477214"
"-0.08644533550023036","-0.00030314577516031126","0.036330621191680006","0.1104963900947722","-0.05079621840331846","-0.32126824022774214","0.32494310290452144","-0.4739372633994983","-0.014851234281100833"
"0.04370280503584563","0.008089275398248134","-0.09661585654250969","0.207791864613153","-1.3326851276746513e-05","-0.225318970081637","0.3597450207842526","-0.43984741798916305","0.021514569272451163"
"0.11239418753844084","0.13853971729215625","-0.04388377296729857","0.037536337201179826","-0.09240368770564684","-0.06736767763452285","0.38086580041022255","-0.42016396235749887","0.03914261102916375"
"0.07302835628422033","0.0643347843490494","0.00308357223469018","-0.0861606195823657","-0.0029702453628112128","0.08627589641646283","0.3832899532168973","-0.4305202040939977","0.019327816085868425"
"0.0921082581629933","0.005161234895534997","0.024024403105297267","-0.03978304587863093","-0.0008110127597303584","0.12113322561285365","0.374484984401849","-0.4470374202138661","0.013071544637259506"
"0.09600469172222396","0.015557653565088909","0.015336713340385853","0.024900248708663034","-0.0012382162840597003","0.18156990798963574","0.3512744178735735","-0.4701905466438732","0.013792290642702692"
"0.08795995106621668","0.03361056212415604","-0.02750838853664612","0.01323750006116982","-0.0006590383967336448","0.24589445789914896","0.3198161590375312","-0.4969584631831807","0.017110010350298337"
"0.0870538417918111","0.011877477786908537","-0.031219646680407307","-0.08654957042053536","-0.015284716029949576","0.27050305763815913","0.2837325051910522","-0.5328293183189011","0.0053901246245996485"
"0.08004442076471499","0.056429106153246186","0.07189632875634969","-0.0816039257282642","-0.04881217514466847","0.3394993584843188","0.23237947504505926","-0.5712331650640584","-0.03705053811768781"
"-0.024353116706885915","-0.09268501013590462","-0.03176693850461249","-0.1535665700368473","-0.0013181524056989163","-0.04675615519039925","0.19930511433790077","-0.5913783639578595","-0.07059546274744175"
"-0.2447232056729376","-0.07909131541136426","-0.09057292870241773","0.06713896188444889","0.08321166360101127","-0.02105837009015952","0.22031443866241435","-0.5699534765947075","-0.07050720813453035"
"-0.26341152892892794","-0.03246225222810289","-0.07334872563120556","0.010579348417144004","-0.015234696121498685","-0.1470058630818225","0.2241596465626567","-0.5628822083516968","-0.05656788232857802"
"-0.15772285073160405","-0.09897548276154963","0.058265664455390394","0.10766590627244846","-0.1215875519951258","-0.3322377541153483","0.2672928482262471","-0.5336868415200126","-0.05220745071288089"
"-0.014676782408962035","0.006178762468864235","-0.08487076746984977","0.11284549911738104","-0.009553726901887709","-0.25404356441210296","0.3154136746300071","-0.49165501200092265","-0.037575162761105646"
"0.08641375949914842","0.02334595669373594","-0.0399515328416885","0.15884567497813934","0.035912933901735146","-0.19652156924306752","0.3385685135075547","-0.47318528151544686","0.008036128667258441"
"0.08293480440276152","0.10789755374253136","-0.019517927903250444","-0.0017598280989086247","-0.010579972679100156","-0.024074501032530508","0.3597171569588886","-0.45670764338947595","0.030004989903465614"
"0.087315247240755","0.04070292458913362","0.006849766086088567","-0.08150668801872181","0.037870650892779405","0.0127765130440967","0.3581289189131361","-0.4585414237733911","0.023039412862198325"
"0.0906696135154353","0.024435571255212427","0.04344541490634739","-0.06901019821812235","0.014043464071949912","0.08878529406243289","0.35709795737466526","-0.47090295053402736","0.013739991612829268"
"0.0863642705854257","0.021079475308472158","0.03784445102995321","-0.022562343793629185","0.00011327856293626344","0.21181373145586302","0.33062732327879285","-0.49278958115931615","0.007441227202448182"
"0.09252265560397106","0.018842078010645313","0.0024724641185305068","-0.03422894343952012","-0.035096189722083254","0.25800460708037787","0.29738577961944973","-0.5272092431854636","-0.0018222384638828912"
"0.08546605642955175","0.010954785112971868","-0.04027371217971117","-0.056954647734061746","0.01282144659563304","0.19724272230073311","0.25748478169809197","-0.5531328291882921","-0.018873356547304217"
"0.06420989401211238","0.08421687426441786","0.05193979706844519","-0.08855979158414488","-0.04819709780151642","0.3077314521151232","0.2182525155854728","-0.5806791129409159","-0.038714301005536265"
"-0.0931658144454551","-0.06490555176400063","-0.0815911470289523","-0.08831717868508858","0.07093165641146587","-0.023797836301736902","0.1919769282671486","-0.5959166405914335","-0.055417303671362585"
"-0.22745022683664365","-0.09644516715453653","-0.02749599702364525","0.02485211122869154","0.087782860976188","-0.04507917862041345","0.20326177753959954","-0.584016857092934","-0.04388209889490445"
"-0.24419365503971788","-0.09291248924835775","0.07436223984352322","0.03726002806614346","-0.10084963301297596","-0.1987931322958992","0.22376955300755985","-0.5714838256920755","-0.038371088621991886"
"-0.07583506644917351","-0.044913357803335205","-0.06895593427239641","0.1397254679334625","-0.023677530142656226","-0.2838699638985364","0.2605498024881407","-0.5354150805868678","-0.02230384603806444"
"0.04088270720911736","-0.011081293092323958","-0.06291300643230446","0.19618110444402898","0.004020814664743082","-0.30738646601599284","0.3025963149625318","-0.5001510880242416","0.02421614103435047"
"0.09027793861071934","0.20906862932671655","-0.028099050656354357","-0.00663586599514099","-0.0776585845493831","-0.10759570024535446","0.3398502494743022","-0.46379210429711915","0.04202886374030362"
"0.08083778389521144","0.06797652758311669","-0.008984935327292496","-0.0652583630291442","-0.00461659440699135","0.07492293491951119","0.3433889552955399","-0.47092933586329233","0.01725546702713381"
"0.08542850647555982","0.01128977147720082","0.06013884817068889","-0.03307075567140601","-0.000960833155377511","0.08928037831753723","0.3345561226551277","-0.4847420557335017","0.011855592192702285"
"0.08782621546084537","0.0035348007901913315","0.04786298929115829","0.005822980296120767","-0.03288717654025702","0.16589223991133142","0.30992450103328395","-0.5033964835238323","0.011443737332449029"
"0.09754366214429377","0.017269459854234056","-0.017452675736438432","-0.006243738083293212","-0.049826933096016594","0.20091217030915356","0.28626811329918306","-0.5282118856975322","-0.00039708989983194885"
"0.089196692499618","0.015388342627509627","-0.029276244391437205","-0.04623731919320865","-0.026842904827686972","0.2181891546821332","0.2509089189121702","-0.5537660770906512","-0.013641819215277797"
"0.08748855472071783","0.011024275307597968","-0.03213042288597141","-0.08696547824748906","-0.003064780596486333","0.28042901157628053","0.20473856028389567","-0.5848348023001481","-0.039725960364650405"
"-0.03139132603204251","-0.0986856806045888","-0.045073358215382296","-0.0927496778408636","0.11893162214787645","0.08170607459116143","0.1627199116348682","-0.6104945350103269","-0.04839452456617122"
"-0.27363667024673405","-0.11666276279283819","0.010229117554121394","-0.017413558935878346","0.1150161881657879","-0.06463257981343168","0.18350632535646957","-0.5866026193609007","-0.06152484975376894"
"-0.26288197829570825","-0.07165617620159426","0.04205343494591609","-0.00693451092088413","-0.06764981626509566","-0.23273067260658148","0.20900172556459945","-0.5703492565336821","-0.05523589141148913"
"-0.14319390699472132","-0.07216930260137441","0.04798690442116701","0.07598181695521207","-0.0993394625712291","-0.35359432982573186","0.2541411226544032","-0.5329348596359611","-0.05712192517629966"
"0.015815705871162294","0.004305487558573694","-0.0953292044425858","0.16725047898116194","0.0950201912707086","-0.25848476140642135","0.3024012681849832","-0.4921431405923245","-0.02451511439490035"
"0.08694485064330114","0.09206542300275569","-0.04054219496139673","0.14841909681631404","0.007300588949005997","-0.22102581298712923","0.3375096881437196","-0.4649530587847776","0.03547350721460603"
"0.07575217217763593","0.0944347374114572","-0.004457283001990523","-0.025909824150846777","0.004358508879212943","0.02009041215982204","0.3449771933412921","-0.4584622677855962","0.04540215116713977"
"0.08651793655099273","0.014731873225361732","0.018493864327791376","-0.07029835718215947","0.031741417134754514","0.028037970584408874","0.3502155925097385","-0.4649926367786751","0.03972280339182211"
"0.09576277373658254","0.008753535180959495","0.027428351726636824","-0.07205730070031782","0.02135211461871151","0.09260278197066395","0.3409090748381369","-0.4775916315026961","0.03409085161232724"
"0.0916896243169498","0.015230457581423423","0.014221683695524047","-0.029289075244845558","-0.02082926731742177","0.1617228538805997","0.3268099792039144","-0.4936471043604275","0.02465414540954043"
"0.08794281288208702","0.039200939216497775","-0.018379973959337024","-0.06888792901899475","-0.03664465291671118","0.21523806422033473","0.29975420477539627","-0.521510012064231","0.007101283508270907"
"0.08968628613051294","0.02389232205058688","-0.07111412278671496","-0.12201726566353109","0.0386819785944469","0.22229544173917515","0.26241667878753366","-0.5487264792010429","-0.018531778508443387"
"0.07770284414655072","0.047576117680925754","0.12822195110181372","-0.03241127219579656","-0.00891926385258962","0.28880176000819235","0.22128967255015722","-0.5816949481176171","-0.056375029655919756"
"-0.06180678876551668","-0.10251543168958767","0.011889786821454933","-0.04922954494823663","-0.011383402500485928","-0.20183887121823235","0.214769537414963","-0.5815234434773948","-0.07170845147693565"
"-0.3028871215871249","0.005720584219991709","-0.15741894558562214","0.030403325419004066","0.06006848107851974","0.07512436625859777","0.2342742151698165","-0.5565629219927376","-0.06950862353288456"
"-0.2298187623961354","-0.15242580316618004","0.061163213245427644","0.01679293433186426","-0.08205028464542984","-0.23623023876276025","0.2438593710950591","-0.5528557832310099","-0.06925366576225159"
"-0.09454264609182637","-0.06416286881695041","0.044643261163098365","0.09846202010189907","-0.09957400568262562","-0.3521139308276257","0.2895003170414161","-0.511945330205681","-0.06810635579440324"
"0.011079597571511795","-0.0012003898725896657","-0.04283462486655807","0.13623068688753212","0.0971119328968366","-0.23148325443440682","0.3292062681852249","-0.47396364872876334","-0.03702765729211819"
"0.10562556762655975","0.09519196240222587","-0.04454671891284523","0.14352832885121042","-0.04005270792312565","-0.14384363374652367","0.36130539500464115","-0.4494912558355079","0.006434470877384692"
"0.06884972037845022","0.09718006752202189","0.009960799992609178","0.03158365642790506","0.013560736055943032","0.06002429647791518","0.3557604937571895","-0.45614035881027915","0.023616336535489585"
"0.08912842860889932","0.022636512703756488","0.006657078058925006","-0.026880275747072066","-0.006769843767434539","0.03122689563934569","0.3542279833621655","-0.4620506725656314","0.026839264251439638"
"0.09113455897140221","0.01603754100779829","0.03682008595521445","-0.05361390662404016","-0.015076259856453295","0.11059569700666211","0.34684406964068515","-0.47447816264943016","0.01498045922763965"
"0.09092418294711403","0.02650781248509384","0.021912682764731985","-0.003279046966808929","-0.03794421321761221","0.18650618923905846","0.3234105925094971","-0.49500594881757326","0.0031347289613080443"
"0.08800972882573932","0.022786088010574992","-0.029809079450474705","-0.01860159194157478","-0.04878345558000768","0.28489447740663354","0.28696470893328524","-0.5254810041186083","-0.005796964734263474"
"0.08320246817737076","0.004620966809871729","-0.033850777940925815","-0.15564610917161578","0.02503779208351368","0.3298403617425771","0.24160240124056864","-0.5651777319977488","-0.0355126197704723"
"0.026205489294933104","-0.07746572266712144","0.17043777064361804","0.056613220513882324","0.0014559182108284828","0.20742592590082057","0.19456826402600766","-0.5983968615423403","-0.05295598057794434"
"-0.2352972044016267","-0.09290729566131546","0.05274111490916826","0.019971933509181625","-0.12363621427426262","-0.14758346137944425","0.2028159563337745","-0.578766176569206","-0.08092452114744393"
"-0.2761785132861887","-0.07084389918817709","-0.07520951783350317","0.0005174598035827449","0.04002701153939418","0.03394743215881615","0.2061596153774636","-0.5787265985753086","-0.07736818711605079"
"-0.1831605375128129","-0.1517090881543414","0.1149320534083784","0.10629880184125808","-0.15310009431918437","-0.36864100816713846","0.23993057171872426","-0.5523016913164457","-0.07542495128731619"
"-0.033923540878165875","0.04765402148656039","-0.13723936666370196","0.1299631869952438","0.0310162481270694","-0.33282020618017694","0.2954631756693285","-0.5027500429568406","-0.045455972825157946"
"0.06493874824728935","0.05209349969032638","-0.0835531365874237","0.13486358245634175","0.13120444944625664","-0.2666148214779879","0.33157469334117146","-0.4695968767354115","0.009779974444600579"
"0.08603392727222992","0.13403168373943178","-0.03059800577819689","0.017672887465743144","0.015276490714720096","0.041754716711123414","0.349658316002457","-0.4552960282738003","0.04184254844637951"
"0.07941955101751573","0.05196989231871942","0.004935483852670512","-0.06739085339188133","0.08114146164837889","0.0641111684661295","0.3375932796198118","-0.4686997755404027","0.05150315987081195"
"0.0913698720164184","0.0270998814079171","0.03773705791727898","-0.06480587071741219","0.06752599470210645","0.08253606878354225","0.335782130971147","-0.4815758162217058","0.04759544173245668"
"0.089510475320284","0.008408265514386773","0.030723668084002072","-0.034530284064141666","0.04327710894017427","0.18892093842449387","0.3128780665218762","-0.504346355377371","0.05265373852802738"
"0.09173420285207355","0.004261383617410403","0.006499086268163887","-0.060825863873369176","-0.02090178421819028","0.24046551927822532","0.28155912681265427","-0.5326973916725763","0.04082762039789829"
"0.08736829858601029","0.011904172824306008","-0.006102669403289653","-0.05722999411949868","-0.013080968101644485","0.22106743863582806","0.24530829001399096","-0.5629217863455942","0.018048124198652964"
"0.08335940772867043","0.055630332466139014","-0.06060818501414225","-0.13728647431048852","0.01442998154634313","0.2938011402313049","0.20242586277867733","-0.5956264019695189","-0.011402766998821626"
"-0.041847543989799056","-0.11395171035675275","-0.07106042623037785","-0.219351250165889","0.07326751433721061","0.018323398208148142","0.16405737525234398","-0.6156396742169952","-0.03167517845350946"
"-0.2709118915339853","-0.06942085633858434","0.07439941438252584","0.07316769987607862","0.06975176096331816","0.08287097872081871","0.16734530664530517","-0.6115103701870281","-0.04393439792477788"
"-0.25112595423823053","-0.1163926962666381","0.07566334870861478","0.05822678884252676","-0.1319720679170587","-0.11517000397173027","0.16957441267443135","-0.6119853061137974","-0.028936016763888624"
"-0.12231998385253323","-0.11478268428352226","-0.060426442823462795","0.1493625914237553","-0.15213320230893757","-0.3420423638732971","0.20468283263316747","-0.5807714615933434","-0.021990051858823863"
"0.023452788821523716","-0.003869062638409878","-0.11977765959330641","0.15614997609973574","0.1296511996575186","-0.3520896619915912","0.26715352909942675","-0.5349533373247309","0.016840343477513463"
"0.09636004908169439","0.10799103830929294","-0.10959390115875638","0.1551872265003059","0.00938180006809169","-0.3434742251993342","0.31714123180257997","-0.481087687630304","0.08019408079043827"
"0.07203472673243352","0.13378239156140093","0.0596080783638182","0.03635408069307997","0.03145661478520161","0.06549206523649406","0.31332388772770126","-0.47771036548438844","0.11016469359728005"
"0.09142754489447269","0.014793157552460981","0.036217032322505345","0.05848576848477338","0.028766548895307036","0.04753312657094424","0.30747248440124525","-0.4845705510932794","0.12842032371247378"
"0.08639199978221977","-0.00958554002413888","0.05991580093667319","0.06289612439976154","0.034309424874840684","0.07574079469387474","0.29805451142818756","-0.4900191215864948","0.1461366200820978"
"0.09350511645149359","0.020669181932129722","-0.012211065737069544","-0.020071710579904162","-0.07586839835219347","0.17248122889470544","0.2785498336733341","-0.5065363377063631","0.14759118685045253"
