"AccX","AccY","AccZ","GyroX","GyroY","GyroZ","MagX","MagY","MagZ"
"-0.16634008376308848","-0.10461364085468061","-0.07618225160407165","0.05661899701147891","0.09909358285843153","-0.0669187041678841","0.22753116943171006","-0.5515365167677617","-0.04779145137794325"
"-0.2695735726609392","-0.07242274964903911","0.11455824276618544","0.05049590955910506","-0.14109292299391651","-0.29270382021510416","0.2553949947957865","-0.5184493138694951","-0.051022550817311024"
"-0.1039301345898122","-0.02233475749559975","-0.06328681707449743","0.17613665778389948","-0.11239729130367107","-0.32459307076447236","0.30022788980658527","-0.4860745148613825","-0.04008715053971377"
"0.0631844914223324","0.026654271639686963","-0.0854800168590593","0.19159841635074285","0.016648089256978613","-0.21009755612078185","0.3409648024888652","-0.4493461365245506","0.0031020420676371413"
"0.10334455234444916","0.11999861155111204","-0.04551945268341369","0.029527223283522898","-0.08471641756477374","-0.057082544923090395","0.35952211018134006","-0.4329740397156395","0.02552198243650266"
"0.08558640884619259","0.05229604958497644","-0.006775528559237006","-0.01461677134953463","0.011952201105232941","0.0221129769549395","0.36442614344541746","-0.4366679858127347","0.02175808663029932"
"0.09776655481991262","0.023002141231535062","0.017987671021705752","-0.01893277780377865","0.0647282304447339","0.07524328355516695","0.3686893087261212","-0.4436205200740531","0.02363594867169213"
"0.09217421128731247","0.018697696290869113","0.015431508414842523","-0.041944418729350945","0.011407726025205348","0.16028856567095917","0.35096791579456854","-0.46036201149267364","0.0292760721746047"
"0.08445317049110242","0.006302577583952889","0.0031930305995312163","-0.05933071374545462","-0.036888769216327943","0.19286219739650104","0.3193982016570701","-0.48979484628774256","0.009356679171562523"
"0.08653632640025546","0.028206115447928982","-0.03457774670364364","-0.06916231265483226","-0.026348210326404758","0.21228940064213972","0.29225883575245976","-0.516259331540503","-0.007186157715276432"
"0.0915727380499082","0.050291324986645056","-0.07563495977986645","-0.1653121151498915","0.029156656315282855","0.30265926538390714","0.2528036590369274","-0.5458240929818967","-0.03991064131389095"
"0.0015890874048813562","-0.23327956624085128","-0.012264762293406655","-0.009558484954130189","0.15775808027221772","0.30620251544494803","0.19331439188462438","-0.5927240157503727","-0.06142188603870563"
"-0.21069717044023809","-0.15247773903660314","-0.0792367595587866","-0.06577824781283634","0.03047775628967948","-0.10704722455097415","0.20707912161447828","-0.5740695879600421","-0.08933976192301533"
"-0.3232411222894245","-0.07504135623577146","-0.04334267689959383","0.004705228011182711","-0.021938321172739514","-0.25467455414900064","0.24020920997236497","-0.5429876700859129","-0.09024518887769907"
"-0.19601417561005507","-0.061008284047451726","0.21253793606408095","0.1551198340283458","-0.14691581472889292","-0.37577604596128933","0.2901411850247897","-0.5081326501268936","-0.08308839350845705"
"-0.007388240057192503","0.01665661658324156","-0.2146574093888171","0.3148592475657467","0.03729147300545336","-0.2057340194017739","0.31741987005622074","-0.4757974291126784","-0.039619727960219994"
"0.11292277535232742","0.08028532887338974","-0.14606005866815608","0.2309941299594124","-0.055685724286819","-0.1650230469538552","0.3530855665222386","-0.4475651267991654","0.03212146626865595"
"0.08207885801561182","0.07653244287661704","-0.016432441166033297","-0.10928971595906846","-0.043929849152333125","0.052651424090625946","0.35503603429772373","-0.4523276787314917","0.03566799423194783"
"0.09064852777203983","0.02373755315672606","0.023878183251886977","-0.13365690832063798","0.039000287102770724","-0.023239653072942786","0.3645933263976017","-0.45587650551762954","0.0039976629542196095"
"0.08876843046024321","0.016354349817379155","0.04845365141086652","-0.013070595492850286","0.046101199465152565","0.10530023698392837","0.36113821205245655","-0.4628290397789479","0.007183000742448131"
"0.0943945689514361","0.01787607082077578","0.0029765921724493184","0.014185808416608223","0.0004957274323358655","0.23301741349922905","0.3399338409503941","-0.48734101066610075","0.01492162281903204"
"0.09094700176530912","0.012680925702353787","-0.01575710370748577","-0.0018871035959532507","0.033438264746796544","0.22850340999680707","0.2969678222389886","-0.5212065807776839","0.018603801391058144"
"0.08325253478269334","0.023050960949732767","-0.035017645415174596","-0.039202507870174735","0.037013850547065665","0.228996067368308","0.2601875727584075","-0.5500325529996586","0.018749258067893616"
"0.06549333218317034","0.10624391562826006","0.01083789193533257","-0.12853508045167117","-0.00422409368996047","0.4505535521783134","0.21287479729020575","-0.5901250608177736","0.002335534411054694"
"0.0013705274162615962","-0.20160907245684917","0.0016114604901865772","-0.23934755934604698","0.02984831916419703","0.09215866227123211","0.1445248336721265","-0.6363389650253606","-0.01747435749819"
"-0.22335824467085488","-0.018598490977362436","-0.00785049231206266","0.04925107432704226","-0.023588738821913265","-0.08292157464905106","0.15299543658280587","-0.6241489429049465","-0.02422910407528004"
"-0.2699683285875211","-0.04079692071360085","-0.10620069184868423","-0.0689765019821423","-0.010614675486398618","0.06371558643876672","0.14683753117734485","-0.6293996234286746","-0.036555331678573784"
"-0.1793381447602997","-0.1535683923154881","0.05663618049577571","0.07818940178670472","-0.1419257903690796","-0.3253211358455081","0.17275088876593583","-0.6130802972782936","-0.041965012581106576"
"-0.05243855665419338","-0.0064544302680714484","-0.06311746639681885","0.08591546732212926","-0.06264543212295193","-0.4227362436880987","0.24098939708255898","-0.5588452529741571","-0.031093351746167567"
"0.04705341631512674","0.025404694597307344","-0.04262603439771006","0.07489390990785634","0.14944376630291725","-0.3586179788848789","0.29239815487928017","-0.513093092028707","0.0017177521206748223"
"0.08947148113729238","0.17066724673588154","-0.010583647029621678","0.021514258367468248","-0.04072761769265436","-0.15671825126284014","0.34054684510840405","-0.47100849185108723","0.025757328070933075"
"0.0771723306939979","0.06984102533130572","0.0061510912780560634","-0.054933836324858494","-0.008226883014558928","0.043688942943075196","0.34024034302939904","-0.4747684012713448","0.014024367587766038"
"0.095560177292506","0.023718856243373745","0.042995189933982374","-0.025445778843921588","0.00915635148550444","0.047030761665029536","0.3455901974993018","-0.4806919076913296","0.010061081730170267"
"0.08965797924211903","0.021695434731690045","0.03003862394027053","-0.020844798508246335","-0.01370777260036636","0.1297316742198865","0.3248037837777011","-0.49693207785391574","0.005617298535612367"
"0.09047194670634437","0.019632541958484788","-0.025089978249309253","-0.0009178072992472769","-0.05317036908194427","0.1872318274364908","0.30323718294590574","-0.5160218635771182","-0.005793696044896392"
"0.09067664209656714","0.010083924437717445","-0.07836935364872556","-0.07855104674847217","-0.00407187999725825","0.20376375854321047","0.26720925675015494","-0.5428161654456906","-0.021498114109076927"
"0.0927416970022574","0.0018274713730766564","-0.0007792754181150071","-0.15827441557805927","0.029896185105298352","0.20099468435167095","0.23555595113656405","-0.5661012185220226","-0.0509996699917414"
"-0.013213297022609375","-0.08278811066808","0.08223911160774423","-0.11420936641215498","0.02907767751246566","0.08423488730595911","0.20482215175998783","-0.5847160683184557","-0.07070986687528988"
"-0.263844797628835","-0.022810490068675287","-0.014235012860545319","-0.14591271072137998","0.031064114068170723","-0.013391844786852503","0.2187262006166618","-0.56614079651592","-0.10732245647605712"
"-0.2389366614808458","-0.11382706426773731","-0.06704970652242892","0.022387472254151122","0.014362011909979244","-0.024030817127668358","0.20799862785149262","-0.5700326325825024","-0.11804212325542648"
"-0.17777837744063435","-0.12250035462839386","0.10560537462305536","0.10043565678073028","-0.09019228122676554","-0.38686690402906804","0.24686866423437895","-0.5397686599155871","-0.10444274114365144"
"-0.04525592442906778","0.017339053920601","-0.10005037089591805","0.1321101186019724","-0.03509140312797312","-0.4387051377988173","0.3030699999937214","-0.48716950602587855","-0.08281872663567219"
"0.05462406473150241","0.04258196438104113","-0.08185343405413742","0.14258483424376917","0.07625434906193342","-0.3230884029303317","0.3553982640274566","-0.44182631768403546","-0.03715840486680176"
"0.08246398574886253","0.1627626072574868","-0.007459127026451782","0.008932950327159015","-0.08853851296171471","0.009944339878867423","0.37562740124177624","-0.4233302018692947","-0.017306019995784898"
"0.07530638682639824","0.06303431015365515","-0.021033822993690464","-0.07621734171945421","0.030245606475338038","0.1398493519626807","0.3683828066471162","-0.4370769584163417","-0.03246293259097798"
"0.09649457419891887","0.014014119496114587","0.06583687889892323","-0.03719998870336064","0.01851366431140283","0.1397838261053875","0.3570422297239374","-0.4584886531148611","-0.04358301381781578"
"0.09008884089369323","-0.008528125702324705","0.027643137951985274","0.02837673751220423","-0.0016106133058280227","0.21833476769834034","0.32502669438061327","-0.49042809419010175","-0.032428611352623544"
"0.08932542144445704","0.006435948899199392","-0.013334562915815279","0.00829156654401885","-0.09483527751359425","0.28882602884422687","0.2921195166256394","-0.5209427274850343","-0.03890715367819453"
"0.08898053955933104","0.028373348950691338","-0.03509199449317983","0.015712729281303968","-0.05317276237899934","0.24295064808816086","0.2477324428206654","-0.558106463754738","-0.05090160931072872"
"0.06762982828337862","0.030128781370991883","0.05045694601267418","-0.1559541890434333","-0.07714881227665397","0.3040668578739097","0.20158994801775482","-0.5873546012449522","-0.07361900041199936"
"0.0044631031142647265","-0.17737579531743394","0.043224432924498506","-0.11382426657238304","-0.07555008984386966","-0.046338731210605395","0.16124312889057238","-0.6093599658519334","-0.09858524979782742"
"-0.2367221770146543","-0.02389802719533485","-0.14633680245850889","-0.05286199918688545","0.08619849832573408","-0.018228138431813007","0.1668437577887516","-0.595573631310989","-0.12302687454023767"
"-0.25346560521772854","-0.05665294195377116","-0.016349831079360815","0.0001297605398923439","0.005991455459884708","-0.06874857440488742","0.16377873699870324","-0.5931989516771421","-0.11594852771580579"
"-0.161391192390817","-0.15832571804624343","0.13583447058868278","0.1558515237239125","-0.12844913465200103","-0.329689526331723","0.19554349791375022","-0.5682648155217497","-0.10622581119339865"
"-0.029947097032352373","0.047497175157882654","-0.18344938389612075","0.1700424528195085","0.0076552755725668295","-0.26229496866384205","0.24675720893292283","-0.5342937040931067","-0.07577470104959474"
"0.08239947685354304","0.044067330275141585","-0.06469738430443003","0.1603283093612613","0.020689171334458134","-0.3046440875440913","0.28337027546131904","-0.5030270889141227","-0.016601617437177158"
"0.06544037711984838","0.1390383016482179","-0.02518704510114942","-0.1038501807222898","-0.017224004633669833","-0.015806593972287918","0.3068873440685998","-0.49070514014738387","-0.008593328487808376"
"0.07623550748286556","0.024656818063214805","0.002179198310843201","-0.05573965773958128","0.05391052775583403","0.03705869693844248","0.3098409095571918","-0.4899795435925973","-0.02133467964072246"
"0.09235291055554082","0.007532003508608346","0.06474229525051287","-0.0018793053241978692","0.07930819610419808","0.100575094608006","0.2934848440684788","-0.510032393833971","-0.014342953084518455"
"0.08961551890952814","0.029186664681516976","0.02413179621797149","0.049331945293394366","0.04446897087359731","0.20385355323653823","0.27673868502466903","-0.5231195171493939","0.006743362022574622"
"0.08957305857693725","0.029731991320959453","-0.013064014881962903","0.006692150634486038","-0.011829273741844788","0.2764489224666182","0.23873242722806884","-0.5588584456387896","0.014047248413335663"
"0.08683229706325862","0.026030002477201386","-0.036729739461461755","-0.050124902075706385","0.03614987031018671","0.20458647208478092","0.18776949063717305","-0.5880142344765764","0.00597522002130864"
"0.08860475117361166","-0.029332596676407304","0.025764378055836385","-0.10758564916807761","0.020133926417682742","0.2626884924350415","0.14708830560562164","-0.6156132888877303","-0.015725608686797222"
"-0.03446271970471685","-0.09056083303560013","-0.04464791626901901","-0.054541997237890535","-0.025118294969806162","-0.009168096563403462","0.11356812369263777","-0.629439201422572","-0.02835582440123028"
"-0.27155698048718024","-0.010871472175814662","-0.11330928980685118","-0.12112190853606132","0.19492598353739804","-0.021643734415312303","0.14572297816278162","-0.5975657236704939","-0.048633138889968744"
"-0.2741565926866225","-0.10079116079154098","0.14712107368031044","-0.019376605369115812","-0.021065007077345807","-0.1459234729946826","0.15193661121897084","-0.5979483109448358","-0.04889299969465234"
"-0.18857158216498524","-0.15259199795153394","0.16905198643968716","0.1673274989491163","-0.25329786882659183","-0.3683983198067932","0.19440108107382337","-0.5609692719799868","-0.05303442912275448"
"-0.032180837885206454","0.04175826147613087","-0.2752725604847497","0.15846057513836737","-0.051162392852743606","-0.3570162357066001","0.24383150726969482","-0.5167210748026397","-0.037660148684649966"
"0.09720773447896584","0.06565187802297905","-0.1101329319742943","0.19508356990067893","-0.04328365894746522","-0.3889782927640719","0.30853130976508025","-0.4685546562294454","0.019422608077514017"
"0.046779975624518744","0.18606103872928634","-0.044069645662311654","-0.1050728727135657","-0.026640671226533866","0.04560132722259591","0.31811646569032254","-0.4604279748158361","0.01597087210586771"
"0.0882525518615539","0.019927537702487955","0.05291666134334727","-0.043095867250269045","0.054437053107948635","0.13235756227882228","0.3145220322183567","-0.4811932289473638","0.010281718262448789"
"0.0906171398617799","-0.007801023516401402","0.05400917973959083","0.06983369801325304","0.05151962399782277","0.1450720054773109","0.28696470893328524","-0.5059558604625339","0.01632389055751336"
"0.08771741687620205","0.0036380493005924407","0.017286517911073072","0.04988745181226539","-0.03010688335138645","0.1907823581483421","0.2702464137148394","-0.5236472237346932","0.04155490378207565"
"0.100795777005796","-0.0019941777161362204","-0.01963977778109235","-0.014118067057029964","-0.03854253748137879","0.13647355687027804","0.23798010394323882","-0.5481855799511111","0.03594583282815043"
"0.09266255325307438","0.011165229259926242","-0.03257032159750236","-0.08455667874971558","-0.02727872422141455","0.11604405069641338","0.22087171516969611","-0.5585813996815074","0.01441661031181675"
"0.09411621788222915","0.020620362213932018","-0.04306593310924101","-0.11634667052288926","0.0017031457966168357","0.18202373522348136","0.1927013877266147","-0.5761276436427094","-0.018046378137430628"
"0.07559041852967063","-0.0027819409987136943","0.08186530096555127","-0.04970225500155668","0.06099229374177534","0.22611535653100964","0.14505424635404404","-0.5994786600422038","-0.05364567403440019"
"-0.1346055585432306","0.0018931183132914462","-0.0502488801454132","-0.12553130170145005","0.09709757311450619","-0.2986011473714941","0.15762083159324253","-0.581826874763942","-0.08225160903048219"
"-0.24066973628047397","-0.021598306853000293","-0.061898967618399754","-0.03518591654135339","0.15642501381254578","0.0478631827410138","0.16472610706108218","-0.5702305225519897","-0.07534977143187314"
"-0.24333674583323509","-0.12996873279523463","0.04111994096651706","0.08016688946393365","-0.2295946547932148","-0.24889857117278325","0.18272613824627526","-0.5593729595594563","-0.07444597882187294"
"-0.09409012100525682","-0.041912503210288894","-0.032913153457193166","0.152674450045794","-0.12554845862126063","-0.41385384969946193","0.23837019749833566","-0.5178820292902983","-0.06041022667959149"
"0.009541012277175234","0.023774946983430686","-0.0853065356770471","0.15428224187684184","0.12646093468311517","-0.33864472682846336","0.29588113304978964","-0.46906917015011224","-0.02200476096097577"
"0.09477366943566143","0.20180799464156815","-0.023749629593048258","-0.006890416989230243","-0.058789830567240055","-0.11645625228156017","0.33564281184432665","-0.43326427833755415","0.006816907533334126"
"0.09170291122374694","0.0692832340829617","0.004608967485097534","-0.05304203336197883","0.00675922515514999","0.04442186179131791","0.34324963616871956","-0.43984741798916305","-0.004252509008313789"
"0.10239424966265305","-0.019586311232809673","0.0503578139086672","-0.01976940720568319","0.06342627684677783","0.09967229390752161","0.336562318081341","-0.45587650551762954","0.0038685497242195777"
"0.0898516022100108","-0.02035807826729683","0.021459772964550105","0.05485042599732628","-0.030199264617712007","0.11742980123398487","0.3243858263972397","-0.4699662713451211","0.012045176175993473"
"0.08234074487422231","0.03880726531869073","-0.008745985651592349","-0.007064000742007445","-0.05071963289755634","0.1873555985002669","0.30407309770682794","-0.4896233416475203","0.012623734193968268"
"0.08374838673925362","0.040803680177754424","-0.02868145176739535","-0.08626074554070641","0.0005170277761259557","0.2378105086160481","0.26977272868365004","-0.518858286473102","-0.007372473009200515"
"0.09667365859488043","0.01700354819766782","-0.02202720928592704","-0.08390297177170271","0.016986740790270502","0.22967074101006782","0.22736398647952544","-0.5499402043472312","-0.027152946714141417"
"0.07619121779354172","0.13625453899354015","0.06082451189007047","-0.04884251960926581","0.026136315431789132","0.3652971311890208","0.1849831081007654","-0.5779746166912569","-0.04564065377439849"
"-0.04759557540856579","-0.004041905215177931","-0.23803606391712906","-0.2211804744048057","0.15104488203275662","0.08380290202454453","0.13610995841217538","-0.6038322393709231","-0.0664867202130105"
"-0.20422702452162633","-0.11360893361196035","-0.028361337681539485","-0.048767425140510294","0.04524439911943881","0.1254288095909649","0.1394536174558645","-0.5993863113897764","-0.08857488861111644"
"-0.2230308860975918","-0.1365957498612213","-0.027107729616284593","0.05891708030531796","-0.10263263931900038","-0.36094778714419345","0.16776326402576627","-0.5800458650385568","-0.08653686079073626"
"-0.17655559688756337","-0.049721580687105166","0.03049649034565275","0.061784148612420056","-0.11356282696948837","-0.5304413380093286","0.2398469802426318","-0.5225918105640946","-0.08034923181883623"
"-0.015861050188707954","0.04945100260319941","-0.04585402353443723","0.08543216702321549","0.07433971141788034","-0.3532060284491794","0.3126830197443276","-0.46482113213845283","-0.0741403563660501"
"0.08074535323923128","0.09086674311339069","-0.05572799414396547","0.17855315927846838","0.05020091732048121","-0.246398881061227","0.35431157483825765","-0.4296494882282539","-0.019404518569456228"
"0.08324772068602772","0.11960389893589653","-0.007177013580465261","0.07580274552971811","-0.012439803820592212","0.13534990976187944","0.35860260394432536","-0.4317207365755537","0.007671669802827982"
"0.093108627450112","0.016155954792362943","0.003389849131028402","0.013669774631313823","0.06136325478531062","0.17947793432345951","0.34912890332053953","-0.4532907432496629","0.01768529967890605"
"0.09763618908220727","-0.023213512423158486","0.023970913074176835","-0.025102077236925133","0.08417137572009287","0.1696005180574071","0.3204012993701769","-0.4832908626239286","0.037836769627011574"
"0.08963660465292361","0.008938946238369936","0.019837310862302587","-0.050759354061730655","-8.584375204525616e-05","0.22098007082610377","0.30440746361119686","-0.5045046673529608","0.038104802155112916"
"0.08713105990232785","0.030487138876911228","-0.006351945339823861","-0.1303161672106164","-0.028849923738065605","0.27181357478402357","0.2636426871035533","-0.541734366945827","0.010997561233841347"
"0.08435400009979035","0.026469379940980753","-0.06535000398914263","-0.11777153993004545","0.06062372599529513","0.2351433635358536","0.21939493242539998","-0.5781065433375818","-0.020989832912494535"
"0.029543583922883566","0.15713275890362352","0.11812080275393615","-0.11940821424907619","-0.07980058541366748","0.444777569202096","0.16472610706108218","-0.6144391417354392","-0.06283069115592112"
"-0.13593424922294556","-0.0500664348667145","0.01768118760015085","-0.08844233613301446","0.02143588001563883","-0.20511516408289346","0.15971061849554835","-0.6124074713820369","-0.09427221417795309"
"-0.23318863006207907","-0.08657008075228965","-0.08716113212284429","-0.03687650483795221","0.148424221757459","-0.09171902771156704","0.19713173595950279","-0.5840432424221991","-0.09092017323200301"
"-0.2400342755206103","-0.11242479576631383","0.11591717869194773","-0.0037958509517828734","-0.10887914463272354","-0.34473620467312954","0.24249404365221905","-0.5525787372737277","-0.10626503546580374"
"-0.0672082052243578","-0.00938506756430574","-0.03337370469039224","0.17890937663025744","-0.0719768973406556","-0.3531574907771104","0.2857665644426298","-0.5110350363460398","-0.08562162776795126"
"0.04310393141064079","0.026440295853543818","-0.09858817236181516","0.2242933927473806","0.06056628686597355","-0.2637268299898792","0.32511028585670576","-0.47656260366136244","-0.035944086766928084"
"0.09356654432494708","0.14886456833226713","-0.046002721690447695","0.07013696413707345","-0.0392174472509075","-0.06603046476902043","0.35269547296714115","-0.45587650551762954","0.011706866826499721"
"0.07777601841586837","0.06261051345100271","-6.045006860591197e-06","-0.044762386806882125","-0.023408762883372278","0.09665325070482647","0.35252829001495684","-0.4629213884313753","0.0008580868171303386"
"0.09663379787448899","0.00846632981751979","0.03656605993869658","-0.03947111500841566","0.0648359288122119","0.1158693150769648","0.34149421517078266","-0.4795573385329359","0.0019024330699153708"
"0.09610909022251492","-0.001976727263674061","0.036875847763718377","0.03639644167545489","0.026289486443313373","0.17059796721842616","0.32020625259262836","-0.5052302639077474","0.008121114590802768"
"0.08694071052016869","0.011155569188027546","-0.002444075189782172","0.037385185514069344","-0.033820562391732895","0.2520344734158842","0.28938886173995965","-0.5273543624964209","0.018845684404222757"
"0.08354812031796327","0.023498648152779827","-0.025087912997142442","-0.03024123459868168","-0.03292786259019315","0.27370654399471667","0.24302345633413658","-0.564307016132005","0.011576119251816154"
"0.079360819038195","0.0750107218732204","-0.0768286755322838","-0.16412793314259277","0.051636895553521016","0.3376549269456947","0.19702028065804636","-0.5963388058596729","-0.015473919605531343"
"-0.042935529836232285","-0.05347446668387786","-0.13636989550147413","-0.2863489947902123","0.10800861438855366","0.03169528417481206","0.1556146361670289","-0.6239642456000918","-0.047409014721993804"
"-0.2274598550299749","-0.10928786919275897","-0.01759517813594846","0.010061389132650743","0.03899310721160553","0.06847955895234432","0.1521316579965194","-0.6241225575756816","-0.058154831016299875"
"-0.24809307333888125","-0.11086671965362101","-0.013055753873295656","0.029946982108874316","-0.08575510848667255","-0.30457128103598774","0.18205740643753737","-0.6046501845781371","-0.049553274946804386"
"-0.15263916465269475","-0.08099840057330022","0.058558930263077694","0.07015814462826091","-0.11532908019612734","-0.49483895554667784","0.2495157276439662","-0.5500853236581886","-0.04957125273832338"
"0.0071705510790171624","0.030073729348343407","-0.1213740995182521","0.16392899286312895","0.10745576276883333","-0.38329938513199263","0.31655609146993424","-0.49294789313490595","-0.026788487849710958"
"0.0969459439022887","0.10470245899410267","-0.044521935886843486","0.17543385057631566","-0.026683032584408538","-0.2942084880492448","0.359828612260345","-0.4454674931226007","0.029478730915364244"
"0.06555784107848985","0.11751607694488818","-0.01273977029177342","0.04542221917010974","-0.00523382571749296","0.04759622554463401","0.365680015586801","-0.44059939987321456","0.0487525577684063"
"0.08844492316431263","0.0265961034648131","-0.005976895546330801","-0.025411119858342116","0.0258754460527869","0.07155199359431541","0.36771407483837865","-0.44877885194535383","0.05144105477283723"
"0.09213743158878704","0.012686534776359481","0.021176833417696862","-0.03963863343871645","0.04592888207718778","0.12496042105549852","0.35113509874675314","-0.47092933586329233","0.05973698838650987"
"0.09112531590580421","0.0009754114829153928","0.03076641880385508","0.013144113350025126","0.0057961624201912955","0.20558149436219653","0.3338037993702973","-0.4900455069157597","0.05909305658119329"
