"AccX","AccY","AccZ","GyroX","GyroY","GyroZ","MagX","MagY","MagZ"
"0.0015014708455668203","0.011728110223571722","-0.005470908765461856","0.0006999971276346447","-0.005594495583691458","0.0017970489337164335","-0.3863924948149851","-0.1274530350907519","0.9949498749278471"
"0.0017181051955203485","0.012269593608602889","-0.005151414255256038","0.0003587023946367625","-0.006917270866026626","0.00025063870159638626","-0.3790364449188689","-0.12673403486828158","0.9952930873113914"
"0.0017903166455048578","0.012191897546449943","-0.005303623339950083","-0.0005224060387614372","-0.009464456921733734","0.0019941118823167906","-0.38380115905612605","-0.12641345311771227","0.9954074914392398"
"0.0017181051955203485","0.012193040135599253","-0.005769131178349513","-0.0003441048129470287","-0.009046108596508137","0.001338125244303532","-0.3814327339001795","-0.12675514313169356","0.9967476540797463"
"0.0018625280954893673","0.012036609293884896","-0.0054560389498608105","0.0005967903705757646","-0.004673794206607435","0.005092028802124136","-0.3828537889937476","-0.12865092903938133","0.9967639975265816"
"0.001425408118249813","0.011565031590443212","-0.004671656176905608","-0.00017408323368771708","-0.007756839472943898","0.0006971852846316794","-0.38098691269435414","-0.12675778166462007","0.995489208673417"
"0.0015698310182188317","0.012031727322065125","-0.005743935101914407","-0.0007704103355745665","-0.006725328442210305","-0.0010506562865749403","-0.38341106550102905","-0.12866280243755057","0.9961266030999992"
"0.0017855025488392182","0.01171969661256318","-0.005429190671692255","-8.586577545725692e-06","-0.003843320128499414","0.00335219594680891","-0.3792314916964176","-0.12674590826645082","0.9948681576936699"
"0.0017142539181878333","0.01171948886908149","-0.005123326825787396","-0.0006887691695429155","-0.004769047429399076","0.0002780624863154016","-0.3770302494926554","-0.12673535413474482","0.9949171880341763"
"0.0014976195682343224","0.011720631458230798","-0.005131174784021281","-0.00018987232711836663","-0.007695331738628693","0.0037696199266027707","-0.38435843556340754","-0.12728416898345613","0.9947864404594927"
"0.0014244452989166886","0.01141119754225001","-0.005444060487293301","-0.0008592721236019418","-0.008012204268719477","-0.0010564808072232267","-0.38190641893136884","-0.1267722935957158","0.9969764623354426"
"0.0017142539181878333","0.012030376989434124","-0.005430223297775661","0.0001815564683416699","-0.007781729762316588","-0.0006261943443310665","-0.38586308213306764","-0.12799525360714695","0.9973523616126577"
"0.001715216737520975","0.012495930131906731","-0.005427538469958804","0.0008636645595377193","-0.0068643790011096596","0.002009401249018543","-0.3792036278710535","-0.1271087065438441","0.9978916953582275"
"0.0015698310182188317","0.011720215971267413","-0.0051284899562044255","0.001995569263587395","-0.008586834891640907","0.0011150946411462306","-0.3840519334844027","-0.12659287335671401","0.9943451673949356"
"0.0014976195682343224","0.011565447077406596","-0.005132000884888006","-9.417501693503944e-05","-0.004280096841049022","0.002914386144746047","-0.38185069128064064","-0.12816543898090596","1.0"
"0.0015707938375519562","0.012186080728962557","-0.00528028599046511","-0.0006891542693826873","-0.006059513201490848","5.0906181032230775e-05","-0.3814884615509076","-0.12848733999793854","0.9970091492291133"
"0.0018577139988237275","0.011564719975220671","-0.00573608714368052","-0.0010404615982146398","-0.0069091336560394","0.0007030098052799657","-0.38352252080248533","-0.13004935149042451","0.997875351911392"
"0.0017142539181878333","0.012263153560670427","-0.005428984146475575","0.0010434099097512725","-0.007747266284723633","0.0006855362433351064","-0.37967731290224266","-0.12796227194556573","0.9968130278670879"
"0.0017142539181878333","0.012185561370258328","-0.005429397196908935","-0.000698107840657385","-0.006887593982543803","0.0015803282279281093","-0.38274233369229105","-0.12728416898345613","0.9958977948443031"
"0.0017142539181878333","0.012031000219879202","-0.0057387719714973775","-0.0006963748913784112","-0.007754206846183325","0.001135480463415233","-0.3792593555217816","-0.127963591212029","0.9972543009316449"
"0.0014976195682343224","0.011643039267818697","-0.005131587834454643","-7.431278026409884e-06","-0.010311923408932727","0.001555816703533237","-0.3813770062494515","-0.12727229558528688","0.9950642790556953"
"0.001713291098854709","0.011409120107433087","-0.005124979027520845","0.0015628133186436771","-0.0073047456592418665","0.001125287552280732","-0.38525007797505795","-0.12798601874190418","0.9962900375683537"
"0.0017142539181878333","0.01234126510978676","-0.005737119769763926","0.002344565993380716","-0.006001595412758243","0.0015672230564694647","-0.3831881548981164","-0.12573798868852915","0.9956362996949358"
"0.0020030997181258708","0.012651010640990088","-0.006187757792562306","0.0036528464240459402","-0.006438132795602344","0.000674372578759224","-0.37967731290224266","-0.12556120698245388","0.9974177353999994"
"0.0018596396374899766","0.012729018318365573","-0.006038233535685118","0.0014007825610596332","-0.006055205266791729","-0.0006244955258086501","-0.38199001040746117","-0.12608099796897368","0.9963063810151892"
"0.0013551223069315527","0.012808687943594597","-0.0057476525558146675","-0.000425938528898566","-0.007141044140675329","-0.0006147879913948388","-0.3800952702827039","-0.12538838307576836","0.9969764623354426"
"0.001715216737520975","0.01241885730019886","-0.005736706719330565","-0.0025911623780163007","-0.00826661174567303","-0.0021493064938579677","-0.3826587422161989","-0.12643192284819774","0.9969437754417716"
"0.0017142539181878333","0.0124191689154214","-0.005890981056191422","-0.0039773292512754","-0.00786334119189435","-0.002796556350898798","-0.3788135343159565","-0.12794644074800673","0.9949008445873408"
"0.001498582387567447","0.012186392344185096","-0.005282970818281963","-0.0032899260372824864","-0.005890307099697658","-0.0010285716457835207","-0.3792314916964176","-0.12745039655782542","0.9976792305493666"
"0.0013541594875984282","0.012031207963360895","-0.004826137038983148","-0.003459947616541798","-0.006123174903155612","-0.0019051620033506292","-0.38129341477335915","-0.1274477580248989","0.9957016734822776"
"0.0015698310182188317","0.011720839201712489","-0.00543703862992614","-0.0015504300610326323","-0.0048020749287589915","-0.0010322119711886999","-0.3770859771433836","-0.12776174344315197","0.9940673287987328"
"0.001425408118249813","0.011876439069500078","-0.0052871013226155885","-0.0036305468455607674","-0.007858554597784218","-0.0027946148440160354","-0.3780333472057622","-0.13000449643067405","0.9949662183746826"
"0.001713291098854709","0.01125237765049619","-0.004200159107222427","-0.0038244446148859397","-0.008221617761037782","0.0007136880931351575","-0.3759714241288205","-0.12897678785580366","0.9969110885481007"
"0.0015688681988857071","0.011253624111386345","-0.004513870911361171","-0.00214444656388085","-0.00572804155936416","-0.004107558873483935","-0.37845130458622345","-0.12966016788376625","0.9945249453101255"
"0.0012809852182807942","0.011564616103479827","-0.0040599284850958905","-0.001880556898677128","-0.00832429020470013","-0.0054406460368604925","-0.37544201144690315","-0.13205199798163536","0.9946393494379736"
"0.0015698310182188317","0.01156451223173898","-0.004820767383349437","-0.0007832149052469837","-0.007758754110587952","0.0009187597576269089","-0.38391261435758217","-0.13380662237775556","0.9940836722455685"
"0.0017855025488392182","0.011020328181445811","-0.004815810778149086","0.0002702257064491591","-0.007790584961420334","-0.0010654602765560017","-0.3799559511558834","-0.13086597743117517","0.9938712074367076"
"0.001425408118249813","0.011409535594396471","-0.004518207940911477","0.0010440838344708734","-0.004304987130421712","0.0011522259602790566","-0.3789249896174126","-0.12965752935083977","0.9936587426278468"
"0.001425408118249813","0.011487127784808572","-0.004517794890478114","-0.00035921998165807745","-0.00728535995309583","0.0028966698944408423","-0.3775317983492088","-0.13101901234091198","0.9928579137329099"
"0.001713291098854709","0.01117478546008409","-0.004200572157655788","0.0013832605183500097","-0.007289428558089442","0.0020047901701719826","-0.3775039345238447","-0.13067732232693066","0.9930703785417708"
"0.0014966567489011979","0.011175824177492555","-0.004208420115889675","0.0005272798494969294","-0.007129795644516517","-0.00040097954593065787","-0.37959372142615033","-0.1317221813658233","0.9936914295215179"
"0.001713291098854709","0.011409120107433087","-0.005124979027520845","0.0010510156315867683","-0.005190985700207273","-0.00017430861736817785","-0.37652870063610194","-0.13034222864526562","0.9952113700772142"
"0.001425408118249813","0.011720423714749104","-0.0048251044128997415","0.0003500376482418938","-0.005606940728377803","0.0007083489492075615","-0.3741881393055197","-0.13152033359694631","0.9929232875202517"
"0.0014976195682343224","0.011409120107433087","-0.0045157296383113","0.001026754341681136","-0.00898053225719932","0.0033148219393157393","-0.3749961902410778","-0.1284319308064821","0.9930540350949353"
"0.0015688681988857071","0.011409327850914778","-0.004821593484216161","-0.0005309745101963627","-0.006000877423641723","0.0029046786103322365","-0.3817670998045485","-0.12914169616370968","0.9916648421139223"
"0.0018577139988237275","0.011408393005247161","-0.005119815897103814","-0.0017297903114064132","-0.00931056792109297","-0.0010647322114749659","-0.37689093036583504","-0.1308580618323957","0.9950152487151889"
"0.001715216737520975","0.012184522652849864","-0.004812299849465506","-0.00033996498966948037","-0.008220181782804741","-0.0008455846220831888","-0.37577637735127195","-0.13135014822318727","0.9920407413911376"
"0.001715216737520975","0.01233908380322899","-0.004502718549660386","0.00016904072354908184","-0.009463260273206202","0.0011184922781910644","-0.38020672558416035","-0.1298250761916723","0.9921388020721504"
"0.0017142539181878333","0.01156378512955306","-0.004815604252932406","0.0002534738634190797","-0.006003510050402296","0.0024591027807383246","-0.3780054833803981","-0.1301773203373596","0.9951786831835433"
"0.0015688681988857071","0.01148743940003111","-0.005129729107504512","-0.00033736556575101966","-0.007365296074735045","-0.001056966183943917","-0.37574851352590816","-0.1301509350080946","0.9926617923708847"
"0.0015698310182188317","0.011409120107433087","-0.004667319147355304","9.03174012384058e-06","-0.006928998021596451","-0.0008363624643900686","-0.38307669959665996","-0.13155727305791728","0.9923349234341756"
"0.0015688681988857071","0.011099478447970604","-0.005131794359671323","-0.000349207385824007","-0.009474987428776028","0.0006852935549747611","-0.37850703223695153","-0.13223141822063714","0.9935116516063279"
"0.0014976195682343224","0.011564927718702364","-0.00482345221116629","-0.0010560581417254037","-0.009008055173332584","0.002888418490189103","-0.3796215852515146","-0.1301773203373596","0.9938712074367076"
"0.0017142539181878333","0.01156378512955306","-0.004815604252932406","0.000697108878836355","-0.008188590261677866","0.00024651299947051677","-0.37572064970054386","-0.13049394428853917","0.9926617923708847"
"0.001425408118249813","0.011565239333924903","-0.004825930513766467","-0.00016917321073062476","-0.007774310541445883","-0.00018110389145784543","-0.37594356030345655","-0.12825514910040686","0.9915340945392388"
"0.0017142539181878333","0.011485673580436727","-0.004507468629644053","0.0008746399049712196","-0.008633982843625713","-0.0006356591903845321","-0.3775039345238447","-0.12947678984537475","0.9934626212658214"
"0.0015688681988857071","0.01094356696496048","-0.004669797449955479","-0.00016031591441587013","-0.00823956748895078","-0.0019413225690420731","-0.377587525999937","-0.12808100592725807","0.9899978105367069"
"0.0014244452989166886","0.011177278381864398","-0.004828202291149959","-8.329594646148202e-05","-0.006692061613144882","0.00026495731485675706","-0.3778383004282138","-0.12947942837830126","0.9936750860746824"
"0.0017855025488392182","0.011174889331824936","-0.0045064360035606465","0.00018011234394252508","-0.010151093846832267","-0.0010809923316180987","-0.37884139814132045","-0.12895567959239168","0.9915014076455678"
"0.0014976195682343224","0.011409743337878163","-0.004824278312033016","-0.0001624339635346159","-0.006076266280876313","-0.0010484720913318327","-0.3775317983492088","-0.12756913053951774","0.9906352049632892"
"0.0017142539181878333","0.011640857961260926","-0.004506642528777329","-0.0005171109159645728","-0.006917270866026626","4.314015350118222e-05","-0.37951012995005834","-0.12964829448559703","0.9919263372632895"
"0.0014244452989166886","0.011176759023160166","-0.004519653617428246","-0.0003370767408711909","-0.006506581091377242","-0.001049200156412869","-0.3743831860830681","-0.12720237446273472","0.9893931030037955"
"0.001425408118249813","0.011254351213572268","-0.004519240566994882","-0.0006830889469062794","-0.005222816551039655","-0.0010382791801973317","-0.3787299428398642","-0.1301614891398006","0.9921714889658212"
"0.0014244452989166886","0.010943151477997095","-0.004058069758145761","-0.001021880530945644","-0.005261587963331729","-0.002792187960412583","-0.3729064033387721","-0.12944644671672004","0.9920407413911376"
"0.0014244452989166886","0.011099478447970604","-0.004674341004722463","-0.00146811497028138","-0.007803748095223198","-0.0010508989749352853","-0.37666801976292236","-0.12945963938135252","0.9913379731772134"
"0.001713291098854709","0.011096881654449452","-0.004046710871228294","-0.0008611013478408587","-0.008444433716864458","-0.0010620626395111679","-0.3809311850436261","-0.13017204327150658","0.9921224586253149"
"0.0014244452989166886","0.011022094001040197","-0.004829028392016685","0.0008697298820141274","-0.007103469376910788","0.0006954864661092624","-0.37811693868185453","-0.12876042815583094","0.9884942134278458"
"0.0013531966682653036","0.011409951081359854","-0.004520892768728331","-0.0005184587654037747","-0.0069103303045669326","0.00026689882173951926","-0.3774203430477527","-0.1284319308064821","0.9912889428367071"
"0.0014976195682343224","0.011409120107433087","-0.0045157296383113","-0.0008594646735218279","-0.007370082668845178","-0.0010528404818180477","-0.3772810239209323","-0.12876306668875742","0.9893767595569598"
"0.001713291098854709","0.010943047606256247","-0.004818908656399304","-0.0012837484219905633","-0.00525656203951609","-0.00235486353507041","-0.37566492204981583","-0.12773403884742376","0.9908803566658209"
"0.0014966567489011979","0.011097712628376222","-0.0039002844926013212","-0.0011083354449744444","-0.008712722316737396","-0.003694017907455599","-0.37945440229933","-0.1299754725684826","0.9893604161101245"
"0.0014244452989166886","0.010788798071099661","-0.0045217188695950575","-0.00033880969015016453","-0.006068847060005607","-0.0006067792755034455","-0.37889712579204854","-0.13030660845075792","0.9878731624480988"
"0.0017123282795215844","0.010632471101126152","-0.0046662865212718984","-0.0008621603724002316","-0.006066693092656047","-0.0001675133432785103","-0.37967731290224266","-0.12861135104548388","0.9908313263253147"
"0.001713291098854709","0.010941489530143556","-0.0038932626352341606","0.00017597252066497675","-0.005182130501103527","0.0007098050793696332","-0.3786463513637719","-0.12961267429108933","0.98700695976582"
"0.001352233848932179","0.011099790063193145","-0.004676819307322637","-0.0003348624167925022","-0.008668685650924175","-0.001940837192321383","-0.3784791684115874","-0.12893589059544294","0.9887066782367067"
"0.001713291098854709","0.010943047606256247","-0.004818908656399304","0.0003512892227211526","-0.007767130650280683","3.246186564599028e-05","-0.37945440229933","-0.12860343544670438","0.9897526588341752"
"0.0012800223989476698","0.010867117363697687","-0.004526468949578724","-0.0010431572970930436","-0.007763780034403591","0.0007047086238023825","-0.3810426403450825","-0.12810739125652304","0.9916484986670869"
"0.0015688681988857071","0.010632055614162769","-0.004054352304245498","0.0005325749722937935","-0.009520699402527793","-0.001953942363780028","-0.37990022350515534","-0.12774327371266653","0.9893113857696182"
"0.0012800223989476698","0.010634340792461386","-0.00452770810087881","-7.694179910524508e-05","-0.006932109307768036","-0.0010513843516559763","-0.3744667775591604","-0.12771424985047505","0.9887557085772128"
"0.0014966567489011979","0.010787343866727818","-0.00390193669433477","-0.0005129710926870246","-0.007796089544646987","-0.0010572088723042627","-0.37811693868185453","-0.12843852713879836","0.9917138724544288"
"0.0014244452989166886","0.010788798071099661","-0.0045217188695950575","-7.751944886490298e-05","-0.002621063322477033","7.347619854434074e-05","-0.3764729729853739","-0.12771424985047505","0.9872194245746809"
"0.0014966567489011979","0.010787343866727818","-0.00390193669433477","-0.0005210581893222354","-0.006688471667562284","0.0007064074423247994","-0.3815441892016358","-0.12842797300709236","0.9875626369582254"
"0.0017123282795215844","0.010554567295491514","-0.004512425234844402","0.000697108878836355","-0.006034862241823665","0.0007010682983972037","-0.3782562578086749","-0.12738311396819976","0.9878241321075925"
"0.0017123282795215844","0.010476455746375183","-0.004204289611556051","0.0001567175286763797","-0.005969285902514847","0.0042171372630794455","-0.37605501560491283","-0.12842005740831286","0.9904554270480993"
"0.0014196312022510488","0.010315246804581901","-0.0038759145170329406","0.0012935322556831478","-0.0060018347424637495","0.0013655490290225471","-0.37951012995005834","-0.12844908127050433","0.9901939318987321"
"0.0015640541022200675","0.010549165964967513","-0.004949432593341823","0.00034021760232770933","-0.00601523720597212","0.001149799076675604","-0.3792036278710535","-0.12878813275155915","0.9897853457278459"
"0.0014928054715686828","0.011013161031327424","-0.0038695122353158227","0.0008744473550513336","-0.003909853786630259","-0.001033910789711117","-0.37861848753840777","-0.12914037689724644","0.9915177510924034"
"0.0015640541022200675","0.010781734792722123","-0.00479391910518088","-0.0003661517787739723","-0.0033948162603799825","0.0038057804922942157","-0.3803739085363447","-0.1294754705789115","0.9889191430455673"
"0.0015640541022200675","0.010781734792722123","-0.00479391910518088","4.506817006520265e-06","-0.001754929118248524","-0.0001364492331543159","-0.37572064970054386","-0.12756121494073827","0.9885269003215167"
"0.0014928054715686828","0.010936192071360401","-0.004178473959470901","-0.00017726030736583558","-0.007762583385876058","-0.00017527937080955884","-0.3797051767276069","-0.12826834176503932","0.988690334789871"
"0.0012790595796145453","0.010479156411637183","-0.004528534201745538","0.0002626199846136633","-0.0038818522110859828","0.0011624188714135578","-0.3799559511558834","-0.12979869086240733","0.988281748618985"
"0.0014244452989166886","0.011099997806674835","-0.004982889678444179","0.0010548666299844878","-0.005635660293038599","-0.0010518697283766665","-0.37978876820369906","-0.1284345693394086","0.989965123643036"
"0.0014966567489011979","0.011021782385817658","-0.004826343564199828","0.0010355153630359477","-0.005994654851298551","0.002457161273855562","-0.38062468296462143","-0.12791873615227853","0.9892950423227826"
"0.001352233848932179","0.010633198203312077","-0.004062200262479385","-0.0005162444413250862","-0.0086442740209625","-0.000622068642205197","-0.37761538982530113","-0.1285955198479249","0.9898016891746815"
"0.0015679053795525657","0.010555294397677438","-0.004517588365261433","0.000348689798802692","-0.006680573787280564","0.000700582921676513","-0.37959372142615033","-0.12876702448814717","0.9884778699810102"
"0.001352233848932179","0.010788694199358817","-0.004215648498473516","0.0007029816513928771","-0.008427201978067981","-0.001067401783438764","-0.3808197297421699","-0.12705197808592444","0.9879875665759469"
"0.0015679053795525657","0.010633509818534616","-0.004825930513766467","0.0012992124783197838","-0.007512005184210612","0.0015669803681091195","-0.3821571933596456","-0.12757968467122371","0.9888210823645547"
"0.0014244452989166886","0.010632782716348693","-0.00405972195987921","-0.00034112028918879616","-0.00563135235833948","-0.00016460108295436712","-0.3796215852515146","-0.12825251056748035","0.9884615265341749"
"0.001423482479583564","0.010478740924673798","-0.004677645408189363","-7.270570086775376e-05","-0.007594095273199386","-0.0019354980483937876","-0.3787578066652281","-0.12928285767527725","0.9891479513012638"
"0.0017123282795215844","0.010632159485903616","-0.004512012184411041","0.0006891180571610872","-0.010745110175899734","0.001108056678696218","-0.3785906237130438","-0.12757704613829723","0.9910437911341754"
"0.0011355994989786682","0.010789732916767278","-0.0042234964567074","-0.000342468138627998","-0.008640923405085406","-0.0006208552004034707","-0.3792036278710535","-0.12823404083699488","0.9858956053810096"
"0.0014244452989166886","0.010788278712395433","-0.0042131701958733414","0.0007095283486690001","-0.006943836463337862","-0.0019362261134748225","-0.38185069128064064","-0.12826042616625985","0.9882000313848078"
"0.0014244452989166886","0.010788278712395433","-0.0042131701958733414","0.0003673671410316311","-0.004381811965889342","-0.0023555916001514457","-0.37978876820369906","-0.12790158568825633","0.9871703942341746"
"0.0012752083022820472","0.010316493265472055","-0.004189626321171686","-0.00017052106016982656","-0.006062385157956928","-0.001038764556918022","-0.3803739085363447","-0.1274174148962442","0.9895238505784789"
"0.0014918426522355583","0.010315454548063593","-0.004181778362937799","0.0006098837651280105","-0.005619146543358641","-0.0006041097035396474","-0.37889712579204854","-0.12687651564631242","0.986745464616453"
"0.0017084770021890863","0.010625200079266919","-0.00448082687669218","-1.0771306701728598e-06","-0.010139366691262443","-0.0010727409273663597","-0.3770859771433836","-0.12688575051155512","0.9895728809189852"
"0.0014205940215841733","0.010625615566230304","-0.0038742623152994917","-0.00036018273125750725","-0.007299480405720721","0.0015861527485763957","-0.37794975572967004","-0.1272261212590732","0.9882654051721494"
"0.0013474197522665395","0.01047188538977795","-0.004494870591426502","0.0005442242424468946","-0.00763717462019058","-0.005006233871842462","-0.37594356030345655","-0.12857968865036593","0.9864022522329086"
"0.0014928054715686828","0.010547919504077357","-0.004026264874776854","-0.00017812678200532247","-0.010345429567703656","-0.0006315334882586622","-0.3740766840040634","-0.12842005740831286","0.9896545981531625"
"0.0014918426522355583","0.010160270167239391","-0.004182604463804525","-7.492002494644246e-05","-0.008681370125316027","-0.0032545092868703183","-0.37683520271510695","-0.12703086982251244","0.985503362656959"
"0.0012039596716306624","0.010160374038980237","-0.0034217655655509774","-0.0007006109896159024","-0.008623691666288928","-0.00017382324064748727","-0.37895285344277685","-0.12584484927205225","0.9865003129139213"
"0.0015640541022200675","0.010158815962867544","-0.003563028813760921","-0.0011024626724179226","-0.005303709991500897","-0.005421230968032871","-0.37410454782942737","-0.12651239810245588","0.987039646659491"
"0.0014918426522355583","0.010236719768502184","-0.0035650940659277324","-0.0007691587610953078","-0.011279772738001554","-0.004145903634418488","-0.3737980457504227","-0.1247907553679169","0.9867944949569593"
"0.001202996852297538","0.009539428772201737","-0.003270795632157021","-6.914352734986325e-05","-0.007843716156042806","-0.0043424812062981535","-0.37482900728889346","-0.12516146924408963","0.9902102753455676"
"0.0012752083022820472","0.010317635854621364","-0.004806723668615116","-0.0003321667179140986","-0.00826158582185739","-0.0036869799450055855","-0.37229339918076243","-0.12478679756852715","0.9872521114683519"
"0.0017826140908398446","0.011555371518544515","-0.004164636769953259","0.00017462467122577495","-0.008208215297529412","-0.0010625480162318585","-0.37683520271510695","-0.12445698095271507","0.9860917267430351"
"0.0017084770021890863","0.010159127578090083","-0.004174963030787318","-0.00043181130145508815","-0.0058491423903505166","-0.0008210730976883166","-0.3748568711142574","-0.12546621979710001","0.9842122303569588"
"0.0014196312022510488","0.010003839325525034","-0.003260469371322962","-0.0012218436227472238","-0.007553169893557753","5.381844135637395e-05","-0.3763057900331896","-0.12566410976658723","0.9871867376810101"
"0.0014918426522355583","0.00992583164814955","-0.0032581975939394675","-0.0005210581893222354","-0.007783883729666148","-0.001050413598214595","-0.3734079521953255","-0.12462056999415785","0.9872194245746809"
"0.001346456932933415","0.009538701670015814","-0.0032656325017399917","-0.001396967774883514","-0.004747986415314492","0.0009532215047959369","-0.37443891373379634","-0.1247802012362109","0.9846371599746804"
"0.0013474197522665395","0.010004150940747573","-0.0032631541991398148","-0.0011221990392062341","-0.005661029241822302","-0.0019085596403954621","-0.37293426716413625","-0.12528943809102475","0.9848823116772121"
"0.0014918426522355583","0.010081016028973752","-0.003257371493072742","-0.00036307098005579667","-0.007291582525439002","0.00202493330408064","-0.3780333472057622","-0.1266878605420679","0.9848169378898703"
"0.0014196312022510488","0.009848966559923372","-0.003415569809050542","-0.0004532806175223739","-0.004262147113136025","0.003364087676465828","-0.37744820687311664","-0.12652427150062512","0.9865493432544276"
"0.0012742454829489055","0.009539324900460892","-0.003422591666417703","0.0003389660278484505","-0.007524450328896956","0.0007049513121627278","-0.37833984928476705","-0.12703614688836545","0.9852582109544274"
"0.001202996852297538","0.00969513251173017","-0.0035785182050120114","0.0006762172125287273","-0.006404147977420401","0.0029061347404943077","-0.37622219855709726","-0.12770897278462207","0.9844573820594905"
