"AccX","AccY","AccZ","GyroX","GyroY","GyroZ","MagX","MagY","MagZ"
"0.002375710800045929","-0.012211417632730462","0.003985880906370348","0.0005345004714926532","-0.005898444309684883","0.0009847709916408216","-0.27103625780770885","0.35286022178282567","-0.9258790881953444"
"0.002449847888696687","-0.012911513166033754","0.0033708488110937317","0.0009855486588255383","-0.0054815319626923265","-0.0013717329873117296","-0.2698659771424177","0.35202908391097926","-0.9262713309193948"
"0.002449847888696687","-0.012678840466538298","0.003990217935920653","0.00021563780416148658","-0.005478660006226247","-0.0015843279909741842","-0.2710919854584371","0.3547203874960057","-0.9258954316421797"
"0.0024488850693635627","-0.012676763031721374","0.0032153353229327866","0.001065553150538159","-0.005060072351295144","-0.0007252111953519359","-0.2704232536496993","0.3535990110022446","-0.9280037362839523"
"0.002304462169394544","-0.012521994137860558","0.0033638269537265707","0.0018827350105342163","-0.004215477820562231","0.0037790847726562366","-0.2693644282858643","0.3526359464840735","-0.9241303393839514"
"0.0021619649080917742","-0.012834648077807579","0.003513351210603761","0.0017259993757470368","-0.005478181346815233","0.0020555120374841436","-0.2695037474126847","0.3513694506793551","-0.9266962605371165"
"0.002594270788665689","-0.012833609360399116","0.004151720655365354","0.0006930653305187497","-0.0021086584229873294","0.0029357427204564305","-0.2690857900322236","0.35234570786215885","-0.9258300578548381"
"0.0023083134467270423","-0.013146263300346137","0.003985054805503624","0.0012037077180563427","-0.002317353926189114","0.0033614181045020304","-0.2653241736080732","0.35167288196590224","-0.9267943212181292"
"0.0027396565079678323","-0.013375819847616209","0.002919591212645307","0.001212565014371097","-0.0031664957213266526","0.0024967194765918408","-0.26919724533367984","0.3523852858560563","-0.9273173115168635"
"0.0024508107080298117","-0.013144185865529212","0.0029065801239943913","0.0022533936063147087","-0.0037992834626861946","0.0007806700805904514","-0.27131489606134973","0.350327230173389","-0.9256666233864834"
"0.002300610892062029","-0.01189772497537498","0.002742392576732836","0.0008930284223203297","-0.0025294000452679923","-0.0004895607974566809","-0.26824987527130123","0.3489815783808757","-0.9264347653877495"
"0.002014653550123382","-0.012055610021461181","0.0033501962894256117","0.0014233109016862915","-0.004214041842329192","-0.002642934618800243","-0.26674522870164097","0.34698948602137086","-0.9274480590915472"
"0.0024469594306972967","-0.012209340197913539","0.0032143026968493808","3.906952762605191e-05","-4.0304717938779205e-07","-0.0004730579889532025","-0.26560281186171397","0.3494828996369101","-0.9265818564092684"
"0.002373785161379663","-0.012053532586644258","0.0029007974179273165","-0.0003214801973604273","-0.005053371119540958","0.0012048893344739795","-0.2671353222567383","0.3501557255331667","-0.9261896136852177"
"0.002304462169394544","-0.012676763031721374","0.002899351741410549","0.00036534536687282844","-0.006740406213657223","0.0009760342106683921","-0.27020034304678664","0.3498391015819871","-0.9262713309193948"
"0.002302536530728295","-0.012210378915322","0.003208106940348945","3.7047753467249204e-05","-0.005476027379465674","-0.0007259392604329716","-0.27256876820273307","0.34989187224051704","-0.9276278370067371"
"0.0023034993500614196","-0.012366186526591279","0.003208519990782307","-0.0016655749131244421","-0.008842199687416485","-0.0020357283412163834","-0.26830560292202943","0.3518311939414919","-0.9257973709611671"
"0.0024488850693635627","-0.012677801749129837","0.003370435760660369","-0.0006491038860464056","-0.006318228613143521","-0.0005201395308601847","-0.2699495686185097","0.35055150547214114","-0.9277585845814207"
"0.0024488850693635627","-0.012676763031721374","0.0032153353229327866","0.00021092033112428036","-0.0059001196176234295","-0.0009453295381850939","-0.2689464709054032","0.35194992792318436","-0.9294583030523069"
"0.0023054249887276687","-0.012678840466538298","0.0038289217416926356","0.0008858078003246059","-0.005478181346815233","0.0001288091447030618","-0.27036752599897096","0.35256998316091104","-0.9273499984105346"
"0.0021619649080917742","-0.0127577829895814","0.0038229325104088808","3.569990402804748e-05","-0.00547411274182162","-0.0005138296334912077","-0.27103625780770885","0.3523720931914238","-0.9263040178130658"
"0.002449847888696687","-0.012832570642990655","0.0032157483733661492","0.0007006710523542455","-0.008849379578581684","0.0016028982454402193","-0.2665223180987286","0.3528734144474581","-0.9272519377295217"
"0.0024508107080298117","-0.013144185865529212","0.0029065801239943913","0.00105977665294158","-0.002531793342323059","0.0003610619055534833","-0.26507339917979644","0.35206866190487673","-0.9284940396890159"
"0.0021590764500924006","-0.012211417632730462","0.003511699008870311","0.001058332528542435","5.542716426397025e-07","0.00038411729978628364","-0.2671631860821021","0.35231932253289383","-0.9255522192586354"
"0.0021494482567611384","-0.011906034714642674","0.0032070743142655392","0.0012436618264326813","-0.0025545296643461894","-0.0021767302785769835","-0.2685563773503059","0.35216101055730403","-0.927513432878889"
"0.002296759614729531","-0.012682995336172145","0.0029051344474776224","0.0020718190318622393","-0.003400081513901128","0.0012398364583636984","-0.2662158160197236","0.3481372478443968","-0.9287228479447119"
"0.002296759614729531","-0.012838802947441426","0.0029055474979109855","0.0005178449034225168","-0.007397126925567427","0.002495263346429769","-0.2683891943981216","0.34892880772234575","-0.9264347653877495"
"0.0022938711567301404","-0.012215572502364309","0.0029038952961775353","0.0017111730319158169","-0.006768407789201499","0.0029313743299702157","-0.26618795219435953","0.3484538717955764","-0.9280854535181295"
"0.0025807913180019115","-0.012058726173686569","0.002916080283961726","0.0015452912759340537","-0.004032869255260669","0.0025229298195091295","-0.2672467775581944","0.34875730308212355","-0.9268270081118001"
"0.0022919455180638914","-0.011748149668556472","0.0029028626700941295","0.0005327675222136795","-0.0031844454492396504","0.0008173160230025869","-0.2658257224646266","0.3482955598199866","-0.9284940396890159"
"0.0022938711567301404","-0.012137668696729668","0.0027487948584499528","-0.000348629736064349","-0.007182926839138989","0.0035706154711196516","-0.2719836278700875","0.34851983511873885","-0.9290987472219273"
"0.0022938711567301404","-0.012215572502364309","0.002594107471155733","0.0002536664133389657","-0.003182291481890091","0.0035987673209197024","-0.269670930364869","0.3494960923015426","-0.9281835141991421"
"0.0022938711567301404","-0.012060803608503493","0.003213476595982656","0.0005096615318273631","-0.010345668897409161","0.002906620117214998","-0.2677204625893837","0.3488100737406535","-0.9281344838586358"
"0.002294833976063282","-0.01221661121977277","0.003213889646416019","-9.253834261600873e-05","-0.004865975960129263","0.003801169413447656","-0.2676647349386555","0.34826917449072164","-0.9272682811763573"
"0.0024373312373660344","-0.01205976489109503","0.0029098845274612905","0.0008603912108996578","-0.004239650120818401","0.0025214736893470584","-0.2653241736080732","0.34789977988101217","-0.9267779777712938"
"0.0021513738954273874","-0.012528226442311328","0.0028985256405438245","0.0005164970539833151","-0.0054992423608998175","0.0027246038469560473","-0.2625377910716656","0.3489947710455082","-0.930112040925725"
"0.0023660826067146497","-0.012060803608503493","0.0033716749119604562","0.0020777880793787042","-0.002347748798788457","0.0003938248342000943","-0.26384739086377706","0.3469235226982084","-0.9280200797307877"
"0.002290982698730767","-0.011592342057287193","0.002902449619660767","0.0009700483902747179","-0.005082569343612767","-0.0004803386397635609","-0.2628164293253063","0.3474644219481402","-0.9294909899459779"
"0.002292908337397016","-0.01190395727982575","0.002903275720527492","0.0006270207079978619","-0.007188192092660136","-0.0004965987599066935","-0.263819527038413","0.34741165128961027","-0.9275951501130661"
"0.0022938711567301404","-0.012061842325911953","0.0035234709462211387","-0.0003340922171129584","-0.008236934862190206","0.0016368746158885567","-0.26426534824423836","0.3471082200030632","-0.9286738176042056"
"0.0022938711567301404","-0.012060803608503493","0.003213476595982656","0.000374780312947241","-0.00592357392876308","-0.0009166923116643522","-0.2657699948138983","0.346448586771439","-0.9287065044978764"
"0.0022938711567301404","-0.012215572502364309","0.0029038952961775353","-0.0001340328503514353","-0.0004448383103052071","-0.0008788329274504905","-0.2681941476205732","0.3465145500946015","-0.9304879402029401"
"0.0021484854374280143","-0.011828130909008036","0.003206867789048858","0.0016555261050687717","-0.004240128780229414","-0.00047499949583596493","-0.2643210758949664","0.34729291730791795","-0.9290987472219273"
"0.0022938711567301404","-0.012060803608503493","0.0033685770337102375","0.0010515932813464262","-0.0063464695183933035","-6.291465996969984e-05","-0.2611724636288257","0.3459076875215073","-0.928575756923193"
"0.0022919455180638914","-0.011748149668556472","0.0029028626700941295","-0.0010879251534665316","-0.005918308675241934","-5.9031646204175454e-05","-0.26000218296353456","0.3442322191131819","-0.9289679996472436"
"0.0021484854374280143","-0.011750227103373395","0.0033615551763430777","0.0008413287688309467","-0.0031810948333625575","0.004672420627087168","-0.2645161226725148","0.3453931736008405","-0.9273826853042053"
"0.0024373312373660344","-0.012060803608503493","0.003374772790210674","0.0005530815387616493","-0.005926206555523653","-0.0017731395353228025","-0.2669402754791897","0.34512932030819077","-0.9293765858181298"
"0.0021494482567611384","-0.011906034714642674","0.0035168621392873403","0.0005463422915656403","-0.004236778164352321","-0.0009035871402057081","-0.26613222454363133","0.34577576087518247","-0.928510383135851"
"0.0024392568760322835","-0.01237241883104205","0.003375392365860718","0.0007188670197834697","-0.0042410860990514405","-0.0009062567121695058","-0.26340156965795186","0.34622431147268684","-0.9273663418573699"
"0.002290982698730767","-0.011515476969061016","0.00336713135719347","2.4050633874946244e-05","-0.005078979398030168","-5.1508307033472196e-05","-0.26390311851450526","0.34577576087518247","-0.9292948685839525"
"0.002292908337397016","-0.011750227103373395","0.003522644845354415","0.0005504821148431887","-0.008241721456300338","-0.0017879435253038644","-0.26379166321304903","0.3450633569850284","-0.9280037362839523"
"0.0023641569680484006","-0.01182605347419111","0.002596172723322545","0.0014146461552914228","-0.0038220197847093243","-0.002185709747909758","-0.26395884616523335","0.34497100833260097","-0.9305696574371174"
"0.002365119787381525","-0.011827092191599574","0.0035259492488213143","0.0012049592925356014","-0.004239650120818401","0.002094584863499732","-0.26546349273489356","0.34663328407629385","-0.929343898924459"
"0.0022938711567301404","-0.012060803608503493","0.003213476595982656","-0.0015272277956863726","-0.001702755242448077","0.001682500027633467","-0.2617576039614714","0.34483908168627614","-0.9264511088345849"
"0.0022919455180638914","-0.01190395727982575","0.0025932813702890085","0.0005446093422866667","-0.008452331597146178","-0.0009341658736092117","-0.26638299897190826","0.3452216689606182","-0.92700678602699"
"0.0023641569680484006","-0.011750227103373395","0.003680843161332214","-0.00032388707135900196","-0.008027760699577408","0.0003549946965448516","-0.26721891373283047","0.34524805428988314","-0.9278893321561041"
"0.0021494482567611384","-0.011906034714642674","0.0035168621392873403","-7.270570086775376e-05","-0.0063402469460501305","0.0012228482731395296","-0.2662158160197236","0.3463034674604818","-0.9295727071801552"
"0.0022938711567301404","-0.012060803608503493","0.003213476595982656","0.00035475512127910004","-0.005500678339132857","0.0014419958625313065","-0.26872356030249056","0.345736182881285","-0.9270721598143318"
"0.0023660826067146497","-0.012061842325911953","0.003991457087220742","-0.0006589239319605899","-0.0033921836336194087","-4.2043460980006965e-05","-0.267804054065476","0.34850664245410634","-0.9294092727118006"
"0.002294833976063282","-0.012139746131546593","0.003523677471437821","0.00017260289706697224","-0.0050780220792081415","0.002729457614162953","-0.2664944542733644","0.34510293497892575","-0.928510383135851"
"0.0021494482567611384","-0.011907073432051135","0.003826856489525824","2.376180899511725e-05","-0.005919744653474974","-5.878895784383036e-05","-0.2654077650841655","0.34677840338725113","-0.9284776962421802"
"0.0023670454260477742","-0.01221661121977277","0.00352698187490472","0.001388940740986646","-0.0031877960651167433","0.0008153745161198247","-0.26777619024011207","0.3463298527897467","-0.9300466671383831"
"0.002365119787381525","-0.011904995997234212","0.0035261557740379947","0.0009914214313820604","-0.005927403204051186","-0.0030572036499096162","-0.2654077650841655","0.3471082200030632","-0.9284776962421802"
"0.0022919455180638914","-0.0114396505982433","0.003986913532453755","0.0008877332995234655","-0.0029752712866268523","-0.0008921807872694805","-0.26323438670576754","0.3466464767409263","-0.930340849181421"
"0.002221659706745648","-0.011983938520277314","0.0033652726302433383","0.0014027080602584928","-0.0040297579690890825","-0.0009026163867643269","-0.26727464138355866","0.347266531978653","-0.9276768673472434"
"0.002294833976063282","-0.01221661121977277","0.0033689900841436","0.0009578214703619587","-0.008031111315454502","0.0007811554573111419","-0.26758114346256334","0.3455778709056952","-0.9274807459852179"
"0.002294833976063282","-0.01237138011363359","0.002904308346610898","-0.0001346105001110932","-0.0017089778147912499","-0.0008885404618643012","-0.2691693815083159","0.3456174488995926","-0.9283796355611675"
"0.0023660826067146497","-0.012215572502364309","0.0029071996996444345","0.00039461295469549586","-0.005083287332729287","-0.003053077947783746","-0.2691136538575875","0.34708183467379816","-0.9266635736434456"
"0.0020781996261097536","-0.012061842325911953","0.003359283398959583","0.0005579915617187416","-0.004236778164352321","-0.0021893500733149375","-0.2715378066642623","0.34731930263718286","-0.9284450093485094"
"0.0022938711567301404","-0.012061842325911953","0.0035234709462211387","0.0007322492392155446","-0.004661588391626598","-0.002620607289648479","-0.2715378066642623","0.34882326640528594","-0.9280200797307877"
"0.0024392568760322835","-0.012294515025407411","0.0033751858406440368","-0.0004844737045439009","-0.005922377280235547","-0.0004895607974566809","-0.2652963097827091","0.34606599949709704","-0.9274153721978762"
"0.002438294056699159","-0.012215572502364309","0.0029100910526779706","0.0008829195515263162","-0.004241325428756947","-4.908142343001962e-05","-0.2715656704896262","0.34833513781388403","-0.9284450093485094"
"0.002440219695365408","-0.012528226442311328","0.003530699328804981","0.0010349377132762897","-0.005083048003023781","0.002085362705806612","-0.26565853951244217","0.34622431147268684","-0.9269904425801545"
"0.0021513738954273874","-0.012373457548450513","0.003518101290587428","-0.00014500819578493565","-0.004866215289834769","-5.393519063692499e-05","-0.26802696466838855","0.3476095412590975","-0.9274970894320534"
"0.0021513738954273874","-0.012373457548450513","0.003518101290587428","0.0010370557623950354","-0.006765057173324406","0.0016460967735816767","-0.26487835240224783","0.34688394470431094","-0.9265491695155975"
"0.002442145334031674","-0.012995649276119165","0.0033768380423774857","0.0020740333559409276","-0.005719425689965921","0.0007937752520490959","-0.27265235967882534","0.3489683857162433","-0.9272029073890155"
"0.002438294056699159","-0.01221661121977277","0.0032200854029164555","0.0010693078739759353","-0.002978621902503945","-0.0017532390897744908","-0.2733210914875631","0.3471082200030632","-0.9267779777712938"
"0.002220696887412506","-0.011749188385964934","0.0032097591420823953","0.0010698855237355933","-0.010981807254645795","-0.002663805817789937","-0.269587338888777","0.3484538717955764","-0.9273173115168635"
"0.002220696887412506","-0.011906034714642674","0.0033650661050266583","0.000536040870851741","-0.0033943376009689685","0.00038702956011042706","-0.27270808732955343","0.34883645906991845","-0.9282652314333194"
"0.0024373312373660344","-0.011904995997234212","0.0033743597397773123","2.2221409636029534e-05","-0.003816515201482672","0.00038387461142593834","-0.26953161123804864","0.34892880772234575","-0.9264674522814202"
"0.002292908337397016","-0.011906034714642674","0.003523057895787777","0.0007202148692226715","-0.00550331096589343","-0.0013409115655478808","-0.27256876820273307","0.3457889535398149","-0.9276114935599016"
"0.002440219695365408","-0.012451361354085151","0.003840487153826783","0.001226236058683001","-0.009719821717509312","-0.0007307930276398771","-0.2733768191382913","0.34663328407629385","-0.9276278370067371"
"0.0023670454260477742","-0.012217649937181232","0.0036818757874156212","0.0012551185466658967","-0.0021366599985316054","-0.0034600663280827605","-0.2741291424231212","0.3476359265883625","-0.9272355942826862"
"0.0022938711567301404","-0.012061842325911953","0.0036783648587320394","0.0007317678644158296","-0.005082808673318274","-0.0026235195499726225","-0.2741291424231212","0.34729291730791795","-0.9272355942826862"
"0.002294833976063282","-0.01221661121977277","0.0033689900841436","0.0002942944464349054","-0.009294532830824024","-0.001797651059717675","-0.27407341477239316","0.34894200038697837","-0.9257483406206608"
"0.0022957967953964064","-0.01252926515971979","0.0035245035723045445","-0.00010216583861030718","-0.002132352063832486","-0.004746557326273026","-0.2734604106143835","0.35034042283802147","-0.9274317156447117"
"0.0022957967953964064","-0.012373457548450513","0.003524297047087864","5.2933121857841766e-05","-0.0033957735792020088","-0.0030416715948475186","-0.2724851767266409","0.35073620277699596","-0.9242120566181286"
"0.002152336714760512","-0.012374496265858974","0.0038278891156092298","-0.00048543645414333086","-0.0067612278980363","-0.0004953853181049672","-0.2744356445021262","0.3497599455941922","-0.9248984813852175"
"0.0024411825146985326","-0.012994610558710703","0.002911949779628102","0.0012291243074812907","-0.001504111586877571","-3.3306680007577004e-05","-0.27708270791171347","0.3504327714904488","-0.9245552690016731"
"0.002296759614729531","-0.012760899141806786","0.002905340972694304","0.001389133290906532","-0.006136816696369491","0.0007915910568059885","-0.27789075884727155","0.34879688107602097","-0.9256339364928127"
"0.002294833976063282","-0.01221661121977277","0.003213889646416019","0.0010416769604722988","-0.0055030716361879235","0.0012272166636257444","-0.27680406965807275","0.3493113949966878","-0.9262386440257242"
"0.002294833976063282","-0.01237138011363359","0.002904308346610898","0.0005287239738960741","-0.0006561664402675648","0.001688809925002444","-0.2730145894085583","0.34995783556367943","-0.9263530481535723"
"0.0024411825146985326","-0.012761937859215247","0.003376424991944124","0.0016674642001017017","-0.005930035830811759","-0.0017765371723676368","-0.27610747402397073","0.3494960923015426","-0.9270721598143318"
"0.002440219695365408","-0.012528226442311328","0.00337580541629408","0.0003849854587011973","-0.008454246234790231","-0.0022216276252408585","-0.27708270791171347","0.34943012897838016","-0.9247513903636984"
"0.0023680082453808988","-0.012528226442311328","0.003527601450554763","-0.000814022892428739","-0.004025210704684457","-0.001762218559107266","-0.2744356445021262","0.3497599455941922","-0.9248984813852175"
"0.0023660826067146497","-0.01221661121977277","0.0033718814371771376","0.002068256858344349","-0.005928599852578719","0.0012243044033016012","-0.2768319334834368","0.3491662756857305","-0.9268760384523064"
"0.0023660826067146497","-0.012061842325911953","0.003836563174709841","0.0014044410095374665","-0.0008713238455180291","-0.0008805317459729073","-0.27747280146681047","0.34910031236256805","-0.9249801986193947"
"0.002440219695365408","-0.012528226442311328","0.003530699328804981","0.0010537113304651719","-0.007191064049126215","-0.0002852171980459653","-0.27568951664350966","0.3494828996369101","-0.9268596950054712"
"0.0023680082453808988","-0.012373457548450513","0.003837182750359884","0.0005237176759790388","-0.005923095269352067","0.0016519212942299633","-0.2747700104064951","0.3490871196979356","-0.9249148248320528"
"0.002438294056699159","-0.01237138011363359","0.0029105041031113337","0.0010569846791032332","-0.005927403204051186","-0.0004900461741773713","-0.27563378899278157","0.34846706446020886","-0.926418421940914"
"0.002294833976063282","-0.01237241883104205","0.0032143026968493808","0.00038575565838074125","-0.001921502593281141","-0.0017464438156848234","-0.27591242724642234","0.3494169363137477","-0.9245062386611668"
"0.002294833976063282","-0.012294515025407411","0.0032140961716327003","0.0010505342567870533","-0.0063464695183933035","0.00015016572041344527","-0.2777514397204512","0.3494037436491152","-0.9234929449573691"
"0.0022977224340626555","-0.012840880382258349","0.0035253296731712703","0.0005703147565914437","-0.004872677191883448","-0.003482393657234525","-0.27577310811960193","0.3475303852713026","-0.9232151063611665"
"0.002438294056699159","-0.01221661121977277","0.0032200854029164555","0.0017536302892506733","-0.0034022354812506877","-0.0017559086617382885","-0.278002214148728","0.34966759694176486","-0.9267126039839519"
"0.002292908337397016","-0.011904995997234212","0.0032132700707659745","0.0006218218601609407","-0.003395534249496502","0.00038678687175008154","-0.2732375000114708","0.34956205562470494","-0.924440864873825"
"0.0024411825146985326","-0.012760899141806786","0.0032213245542165414","0.0006238436343197434","-0.008875227186776401","-8.42712356800833e-05","-0.27474214658113116","0.34857260577726873","-0.9244735517674958"
"0.0023670454260477742","-0.012527187724902867","0.0029078192752944776","0.0003685224405509469","-0.006556361670122622","-6.70403620955693e-05","-0.2746864189304028","0.3485462204480038","-0.9238361573409135"
"0.00236897106471404","-0.012839841664849886","0.0032184332011830053","0.0002923689472360457","0.0010277573676771125","-0.0004429646322703893","-0.27287527028173775","0.3497467529295597","-0.9246369862358502"
"0.0024431081533647986","-0.013151456887388446","0.0035321450053217495","0.0006358780043126165","-0.0029771859242709044","-0.00090091756824191","-0.27368332121729616","0.35175203795369714","-0.9242447435117996"
"0.0023670454260477742","-0.01221661121977277","0.00352698187490472","0.0012255621339634002","-0.002555965642579229","-3.670431705241079e-05","-0.2767204781819804","0.35060427613067113","-0.9245389255548376"
"0.002152336714760512","-0.012451361354085151","0.003518101290587428","0.001046105608629676","-0.004658955764866024","0.0008039681631835972","-0.273293227662199","0.3497599455941922","-0.9250782593004073"
"0.002225510984078146","-0.012840880382258349","0.0033673378824101512","0.000885422700484834","-0.007188431422365642","-0.000500724462032563","-0.2744077806767621","0.34858579844190124","-0.9251109461940782"
"0.0024392568760322835","-0.01237241883104205","0.0035304928035882993","0.00028909559859798423","-0.006557079659239141","-0.000922516832312639","-0.2751879677869562","0.34960163361860247","-0.9251272896409137"
"0.002440219695365408","-0.012528226442311328","0.003530699328804981","0.001381623844030979","-0.004241564758462454","0.0016630849588058457","-0.27666475053125233","0.3492454316735254","-0.9243264607459769"
"0.0022977224340626555","-0.012840880382258349","0.0035253296731712703","0.0004724993972893708","-0.0012899115004491334","-0.0017440169320813708","-0.27203935552081554","0.35019530352706413","-0.92334585393585"
"0.002583679776001302","-0.012527187724902867","0.0032271072602836153","0.0008952427463990184","-0.005507858230298057","-0.0015586030247775858","-0.2784758991799173","0.3498786795758846","-0.9226594291687613"
"0.002440219695365408","-0.012528226442311328","0.003530699328804981","0.00046075385217632663","-0.006346948177804316","-0.0009217887672316029","-0.27750066529217454","0.34662009141166134","-0.9264674522814202"
"0.0022938711567301404","-0.012061842325911953","0.003833465296459622","-0.00014481564586504955","-0.008028000029282915","-0.0005029086572756705","-0.2773892099907185","0.3500765695453718","-0.9234929449573691"
"0.002294833976063282","-0.01221661121977277","0.003213889646416019","-0.00013249245099234758","-0.008029196677810447","-0.0017889142787452452","-0.2799526819242134","0.35070981744773094","-0.9216461354649635"
"0.00236897106471404","-0.012684034053580607","0.003373120588477225","0.0009018857186350843","-0.00424180408816796","-0.0021925050219994257","-0.27903317568719876","0.3494697069722776","-0.9254541585776227"
"0.00236897106471404","-0.012684034053580607","0.003373120588477225","0.0007374480870524657","-0.0050844839812568205","-0.0030550194546665084","-0.2763025208015193","0.3500765695453718","-0.9240976524902806"
"0.0022977224340626555","-0.012839841664849886","0.0032153353229327866","-0.000297218907454795","-0.00634383689163273","-0.002208279765421868","-0.2779186226726357","0.35064385412456855","-0.9254214716839517"
"0.002440219695365408","-0.012684034053580607","0.0033762184667274426","0.00037179578918900843","-0.0067679291297904854","-0.0004973268249877291","-0.27822512475164063","0.3516069186427398","-0.9237217532130653"
"0.00236897106471404","-0.012684034053580607","0.0032180201507496426","0.001228161557881861","-0.006348384156037355","-0.0004941718763032409","-0.27741707381608227","0.3512507166976628","-0.9232804801485082"
"0.002585605414667551","-0.012994610558710703","0.003228139886367021","-0.0005846959378445485","-0.0033948162603799825","0.001665997219129989","-0.2762467931507911","0.35239847852068873","-0.9223979340193941"
