"AccX","AccY","AccZ","GyroX","GyroY","GyroZ","MagX","MagY","MagZ"
"0.0018240153221642842","-0.0073543750307628036","0.0026808480621618373","0.0018377746042408424","-0.010607974254644433","0.004060603270656747","-0.2512808056245786","0.35270190980723587","-0.9103364702548347"
"0.0018182384061655372","-0.006262890777951081","0.002058381059084698","-0.0004826444803049843","-0.008493017647082306","0.005150759385327691","-0.2535656393044331","0.3523720931914238","-0.9099769144244548"
"0.001684406518860905","-0.008445028309647756","0.002057348433001292","-0.0008601385982414289","-0.005960191373705595","0.010083642997705608","-0.2513643971006709","0.35224016654509893","-0.9116276025548349"
"0.0026982552766433754","-0.009688373047576603","0.0027235987820148464","-0.00018852447767916483","-0.005558117468454449","0.0019426619499235943","-0.25147585240212733","0.3517784232829621","-0.9133436644725568"
"0.001909706242812571","-0.010005181857157472","0.0037750186601388422","-0.0012641083301621946","-0.00806964339804107","0.007277922863753964","-0.251392260926035","0.3527546804657658","-0.9118400673636956"
"0.0016892206155265448","-0.009379873977263432","0.002059620210384785","-0.0007832149052469837","-0.007230074791123796","0.0012900729489551687","-0.2486894698657197","0.35206866190487673","-0.9119871583852149"
"0.0020522035041153235","-0.009614624111575812","0.003625287878044972","0.0012551185466658967","-0.006396489426844189","0.0030090346052807013","-0.25208885656013696","0.3520554692402442","-0.9112190163839488"
"0.001974215138132067","-0.008600835920917035","0.00268993517169581","0.0026148098059406754","-0.01314103985772665","0.0033941810331486414","-0.25091857589484584","0.3512111387037653","-0.9111863294902779"
"0.00211960085743421","-0.008757682249594776","0.0036263205041283776","0.0004785647197657789","-0.007026405211737651","0.0034366514962090636","-0.2503055717368359","0.3512639093622953","-0.9133109775788858"
"0.0018307550574961729","-0.008601874638325499","0.002993733765433857","0.0012651311424999672","-0.005551894896111277","0.0017349207134680449","-0.2494417931505497","0.3485462204480038","-0.913278290685215"
"0.0018374947928280615","-0.010005181857157472","0.003307032519139241","0.0012757213880936955","-0.005342242074087465","0.0008731343458819985","-0.24941392932518547","0.34887603706381587","-0.9128533610674934"
"0.002484509384689238","-0.010001026987523622","0.00302491907315272","0.0007652715504759885","-0.006823453621468025","0.00043362572529671823","-0.25183808213186004","0.34994464289904703","-0.9142098671548354"
"0.0019732523187989425","-0.00829025941578694","0.003309097771306053","-0.001085229454588128","-0.006391942162439564","-0.003837689416779997","-0.25571115385746684","0.3489815783808757","-0.9149453222624305"
"0.001836531973494937","-0.009693566634618914","0.0034611003307834162","0.0007951167880583138","-0.0042894306995637805","-0.002972505412149117","-0.24938606549982167","0.3493641656552177","-0.9121996231940754"
"0.0021224893154335837","-0.009379873977263432","0.003317771830406663","-0.00023550665813134143","-0.0059747904857415","-0.002769375254540128","-0.2503055717368359","0.34859899110653375","-0.9147982312409116"
"0.0019048921461469312","-0.00891556729568098","0.004237222095071371","-0.000381074397565135","-7.411659647543097e-05","-0.005508598777757166","-0.2541229158117146","0.34994464289904703","-0.9136215030687596"
"0.0019751779574651916","-0.008757682249594776","0.0033101303973894587","0.0008987086449569658","-0.004503391456286712","-0.00532536906569649","-0.25334272870152047","0.34894200038697837","-0.9140300892396457"
"0.001907780604146322","-0.009538797740758095","0.003928879946566337","0.0015833198851115328","-0.0034510587411740413","-0.005106949541385749","-0.2556275623813747","0.35078897343552584","-0.9130331389826832"
"0.0018374947928280615","-0.009850412963296654","0.004081295556477064","0.0004551699044996335","-0.005341763414676452","-0.0034086163956895637","-0.2572993919032192","0.35218739588656905","-0.9143569581763545"
"0.0022726891314013495","-0.010705277390460764","0.0039470541656342825","-0.00037058042693134967","-0.002607900188674169","-0.006391984409413943","-0.2549031029219086","0.35230612986826143","-0.9130167955358479"
"0.001836531973494937","-0.009771470440253551","0.003306412943489197","-6.962490214957833e-05","-0.00175804040442011","-0.0016702396705364096","-0.2556832900321027","0.3526359464840735","-0.9128206741738225"
"0.0020522035041153235","-0.009769393005436628","0.003005712228001367","0.001845091501196509","-0.004297089250139993","-0.00554281783656585","-0.2560176559364715","0.3549578554593904","-0.9109084908940752"
"0.0019819176927970803","-0.010005181857157472","0.0036230161006614785","0.0006235548094399144","-0.005554766852577357","-0.0029829410116439642","-0.25676997922130185","0.3532955797156976","-0.911774693576354"
"0.0021253777734329573","-0.010003104422340545","0.003009429681901629","0.0008215924020426348","-0.005348464646430638","-0.0059798995735476776","-0.2586368555206948","0.35395521294732174","-0.9107613998725563"
"0.002339123665387112","-0.009845219376254344","0.0027085224411971184","-0.00016108611409541412","-0.010407415961429873","-0.011583331125559567","-0.257243664252491","0.35516893809351013","-0.91200350183205"
"0.0019790292347976897","-0.009613585394167349","0.0026924134742959856","-0.0003776084990071876","-0.0059750298154470066","-0.00598281183387182","-0.2625935187223938","0.35585495665439915","-0.911300733618126"
"0.0019087434234794465","-0.010002065704932084","0.0023803538718906894","-0.0007086980862511132","-0.007659432282802699","-0.007281679938439694","-0.2606987785976364","0.35635627791043356","-0.9116766328953412"
"0.0022004776814168576","-0.010626334867417663","0.003323967586907098","0.005451262675780902","-0.00599680881864811","-0.006843142071295796","-0.2653799012588014","0.35742488374566467","-0.912036188725721"
"0.0027011437346427664","-0.009770431722845089","0.0045833583582290645","0.008900216840778399","-0.006014758546561107","-0.010264562575443382","-0.26426534824423836","0.35609242461778395","-0.9130658258763542"
"0.002130191870098597","-0.011092718983817036","0.002702120159480002","0.007173621709160906","-0.014640201133020208","-0.008619620869023153","-0.26760900728792747","0.35789981967243406","-0.9163835455839497"
"0.001996359982793982","-0.012810757577412957","0.004249613608072243","0.006132022917537749","-0.0017826913640872932","-0.005538206757719289","-0.26824987527130123","0.3538496716302618","-0.9163835455839497"
"0.0021330803280979705","-0.011329546552946343","0.004252298435889099","0.005470421392809557","-0.0055755885369564336","-0.008984381474622093","-0.272206538473","0.3519235425939194","-0.919063870864963"
"0.002563460570005636","-0.011095835136042424","0.004890254830217329","0.007184982154434178","-0.004743439150909866","-0.009405445779821133","-0.2722901299490923","0.3517784232829621","-0.9201261949092671"
"0.0022043289587493553","-0.011328507835537882","0.003945401963900833","0.0064977714903611495","-0.0005238171131223974","-0.008520361329641941","-0.26919724533367984","0.35175203795369714","-0.9198320128662291"
"0.0019183716168107085","-0.011643239210301824","0.004553618727026971","0.0064845818208489605","-0.003468529809676025","-0.007257411102405166","-0.2754108783898689","0.35115836804523537","-0.921074114825723"
"0.001990583066795218","-0.011643239210301824","0.004556716605277189","0.004243011928496439","-0.0005118506278470652","-0.005095300500089176","-0.273293227662199","0.3508945147525857","-0.9240159352561034"
"0.0022813545053995046","-0.012341257308788194","0.003950978144751225","0.002884861068580748","-0.0013547698506414315","-0.006176234457066999","-0.2739619594709369","0.35051192747824367","-0.9227411464029386"
"0.00228039168606638","-0.012185449697518915","0.003950565094317863","0.003405997426752127","-0.0030422836041687096","-0.007258139167486203","-0.2778350311965435","0.35005018421610684","-0.9234929449573691"
"0.001992508705461467","-0.01203171952106656","0.004247754881122112","0.0015734998391973482","-0.004715916234776604","-0.00341444091633785","-0.27669261435661646","0.3520554692402442","-0.922610398828255"
"0.0021340431474311124","-0.011873834474980357","0.003478654974201319","0.0011316940480189898","-0.004504827434519752","-0.001699847650498532","-0.27619106550006306","0.35100005606964557","-0.92151538789028"
"0.0024248145860353816","-0.012263353503153553","0.0039569673760349805","0.0002996858441917126","-0.007667330163084417","-0.0047220458018781535","-0.275522333691325","0.35070981744773094","-0.9230026415523056"
"0.0024248145860353816","-0.012649756379101366","0.0027182291263811355","-0.0002057576955089592","-0.0026107721451402483","-0.004903091318695723","-0.2786709459574657","0.35209504723414164","-0.9233131670421791"
"0.002135968786097361","-0.012340218591379732","0.0030150058627520216","-0.00012219103027844805","-0.003871321704043691","-0.004910129281145737","-0.27780716737117955","0.3520422765756117","-0.9220056912953434"
"0.002278466047400114","-0.011950699563206534","0.0033301633434075347","0.00046527877529364695","-0.0026098148263182215","-0.0036144161252623505","-0.27950686071838804","0.3554591767154247","-0.9226921160624323"
"0.0027126975666402773","-0.012571852573466727","0.0033501962894256117","-0.0005660185956156093","-0.0030329497456539514","-0.0029783299327974036","-0.27616320167469893","0.35432460755703127","-0.9196032046105328"
"0.0022832801440657536","-0.012963449036456848","0.003332641646007709","0.0009080473160714353","-0.0034551273461676532","-0.005124180414970262","-0.28443875780782957","0.3544697268679885","-0.922610398828255"
"0.0022813545053995046","-0.012342296026196655","0.00426097249498971","0.0006671673662940867","-0.0030336677347704713","-0.007259109920927585","-0.2809000519865919","0.3530844970815778","-0.9220874085295205"
"0.00213789442476361","-0.012497064920057473","0.003635201088445669","0.002367479433847146","-8.727973027829574e-05","-0.005525829651341681","-0.27975763514666485","0.35524809408130503","-0.9212048624004064"
"0.0018500114441587143","-0.01226646965537894","0.00439707261278262","0.003185912868322463","-0.0038756296387428106","-0.0016959646367330076","-0.28198674117579103","0.35421906623997135","-0.9204040335054698"
"0.002420000489369759","-0.011712833276668768","0.001786180823498874","0.0006355891794327875","-0.0034551273461676532","-0.0034059468237257655","-0.2778350311965435","0.35556471803248463","-0.9209433672510393"
"0.0030650894425646694","-0.011707639689626459","0.0005744973772302661","-0.0007196734316846135","-0.006831112172044238","-0.005144566237239264","-0.27730561851462615","0.35416629558144147","-0.9194234266953429"
"0.002718474482639042","-0.013739370940577858","0.003043093292220664","-0.004305049214921321","-0.0011271673007046221","-0.005541119018043433","-0.28204246882651907","0.3582560216175111","-0.9195705177168618"
"0.002728102675970321","-0.015301601922904494","0.004906363797118464","-0.001404477221759067","-0.0057704029172388335","-0.00472325924367988","-0.2851353534419314","0.35961486607465676","-0.9190148405244568"
"0.0022880942407313932","-0.013899333421480984","0.003954695598651487","-6.0382505995051616e-05","-0.0019755911067256405","-0.001691596246246793","-0.28215392412797535","0.36147503178783685","-0.9193580529080011"
"0.0030121343792427016","-0.014832101654279735","0.004297733983558962","0.0018091809411377759","-0.0026213026521825396","1.2561420097678404e-05","-0.28680718296377594","0.358691379550383","-0.9214009837624318"
"0.002141745702096125","-0.013045507711725336","0.004876211115483007","0.002342351669302027","-0.0038773049466813573","-0.002984639830166381","-0.28655640853549946","0.35957528808075934","-0.9173314655004057"
"0.0021340431474311124","-0.011872795757571896","0.0030139732366686158","0.001983246068714693","-0.0036647801681914654","-0.0010513843516559763","-0.28354711539617916","0.35925866412957974","-0.9185408805662286"
"0.002274614770067616","-0.011557025665399491","0.0016246781040541746","-0.0018699666530833997","-0.005340088106737906","-0.0008492249474883676","-0.2793396777662037","0.3602349213123835","-0.9184264764383807"
"0.002427703044034772","-0.013271948106770022","0.0020998926276376193","-0.0014497264529322697","-0.003025530524783245","0.0006581124586160912","-0.2831848856664461","0.3602613066416484","-0.9183120723105326"
"0.002502802952018655","-0.013896217269255598","0.0028791122701757902","0.0013217408189464424","-0.0017731181758670281","-0.0029756603608336054","-0.28145732849387334","0.3605119672696656","-0.915697120816861"
"0.0024315543213672703","-0.01389725598666406","0.0033409026546749572","0.0019851715679135525","0.0003339405514133801","-0.00039054394643581164","-0.28404866425273256","0.36131671981224706","-0.9191946184396467"
"0.002427703044034772","-0.013194044301135383","0.0024094739274427403","0.0013132686224714596","-0.00703861102671849","-0.002581291775272545","-0.2854697193463005","0.360604315922093","-0.9179525164801527"
"0.002284242963398878","-0.013119256647726127","0.0033328481712243904","0.0008704038067337283","-0.0051378545055848004","-0.0008538360263349281","-0.28510748961656746","0.36078901322694773","-0.9183611026510389"
"0.0025711631246706492","-0.013271948106770022","0.002415876209159857","0.00028100850196277345","-0.004297807239256513","-0.001706157547867509","-0.28655640853549946","0.3610924445134948","-0.916906535882684"
"0.0024999144940192645","-0.013271948106770022","0.0024127783309096395","0.00046162032681581344","-0.0013487866080037654","-0.002541733572536267","-0.28195887735042674","0.36072304990378534","-0.9172170613725578"
"0.002212994332747493","-0.013274025541586945","0.0030203755183857324","-0.0009468823371500586","-0.008500915527364023","0.0012626491642361536","-0.28315702184108216","0.36158057310489666","-0.9172497482662285"
"0.0022861686020651272","-0.013663544569760142","0.0030242994975026756","0.000542491293167921","-0.008087593125954067","-0.002590756621326011","-0.2878102806768829","0.36180484840364896","-0.9178054254586336"
"0.0024305915020341458","-0.013586679481533966","0.003650277429263397","-0.00023367743389242473","-0.004504827434519752","-0.0017083417431106164","-0.289732884627004","0.36315050019616213","-0.9174295261814183"
"0.0025018401326855305","-0.013585640764125504","0.003498274869786033","-0.0014372107081396814","-0.004501476818642659","-0.0010661883416370377","-0.29045734408647006","0.36180484840364896","-0.9174458696282538"
"0.002719437301972166","-0.013741448375394781","0.00366287546748095","0.00046316072617490125","-0.0034579993026337334","-0.0029865813370491424","-0.2885626039617128","0.3628074909157176","-0.9173968392877475"
"0.0022861686020651272","-0.013508775675899325","0.00364387514754628","0.0007623833016776989","-0.0064000793724267886","0.0017053127335059223","-0.2885347401363489","0.36245128897064055","-0.9169719096700261"
"0.0022871314213982513","-0.013741448375394781","0.003024506022719357","0.0008738697052916757","-0.003031753097126418","-0.000842186985038355","-0.28661213618622755","0.3614354537939394","-0.9173478089472411"
"0.0028648230212743094","-0.014439466473881151","0.0027409469002160672","0.0011066625584338137","-0.0009311562718946886","0.002380957128707148","-0.28822823805734404","0.36148822445246936","-0.9184591633320515"
"0.0027897231132904265","-0.013739370940577858","0.0027361968202323996","0.0004528593054610019","-0.004301157855133606","-0.0017083417431106164","-0.28644495323404323","0.36069666457452043","-0.9154029387738231"
"0.0022832801440657536","-0.012885545230822209","0.0033324351207910277","-0.0011805416649316833","-0.010398560762326129","-0.0017469291924055138","-0.28730873182032934","0.3619235823853413","-0.9162854849029372"
"0.0023564544133833874","-0.013274025541586945","0.003026571274886169","0.0009558959711630991","-0.006403190658598375","-0.0008637862491090839","-0.2869186382652325","0.36175207774511897","-0.9162691414561018"
"0.002718474482639042","-0.01374040965798632","0.0033530876424591478","0.00161451297213306","-0.0026157980689558873","0.002587242235000626","-0.2870300935666886","0.36111882984275984","-0.9179852033738237"
"0.0027146232053065437","-0.012960332884231464","0.00273124021503205","0.0007788463198279494","-0.00387850159520889","1.1590666656297414e-05","-0.28772668920079064","0.3589288475137677","-0.918001546820659"
"0.002141745702096125","-0.013276102976403869","0.0036370598153957993","7.950501080210568e-05","-0.003025530524783245","0.0017303096346214847","-0.283853617475184","0.3603932332879733","-0.9170536269042033"
"0.0024305915020341458","-0.01374040965798632","0.0028758078667088915","0.0021673237921256802","-0.0053556445375958365","-0.0021434819732096813","-0.2829898388888975","0.3606702792452554","-0.9153048780928102"
"0.0025721259440037738","-0.013272986824178483","0.003035864909636823","-0.000252162226201478","-0.004715916234776604","0.00043265497185533724","-0.28861833161244105","0.36132991247687957","-0.918687971587748"
"0.0024305915020341458","-0.013741448375394781","0.0030307017792197927","-0.0009340777674776412","-0.007661825579857766","-1.87453783868611e-05","-0.29207344595758655","0.3610132885257","-0.9189821536307857"
"0.00257405158267004","-0.013739370940577858","0.0025720092729708452","-0.0007533696676646582","-0.005558117468454449","-0.0008608739887849408","-0.2863334979325868","0.362490866964538","-0.9184101329915452"
"0.0022832801440657536","-0.013040314124683025","0.003022853820985908","-0.0015751727257379792","-0.0009191897866193574","-0.0046788472737366955","-0.2886461954378051","0.3648523539337524","-0.9176256475434439"
"0.002427703044034772","-0.012962410319048387","0.0033388374025081456","-0.002482660498160557","-7.172329942036473e-05","0.0013235639426828157","-0.2866400000115916","0.36478639061059004","-0.9160566766472409"
"0.0027165488439727927","-0.01350565952367394","0.0027326858915488203","-0.0007956343750796288","-0.006820820994707452","0.003842669123066697","-0.28705795739205286","0.3641399500435984","-0.9171516875852159"
"0.0022900198793976423","-0.01436571753788036","0.0033359460494746082","0.0019775658460780567","-0.01209373306642962","-0.00048058132812390576","-0.2893706548972712","0.365168977884932","-0.9167921317548361"
"0.0028648230212743094","-0.014439466473881151","0.002431159075194266","0.0016178825957310645","-0.007463899913403778","0.0021205525180566756","-0.28817251040661596","0.3639684454033761","-0.9167431014143296"
"0.0027126975666402773","-0.01280244783814526","0.001801257164316602","0.002183305435476216","-0.007677860670126709","-0.00429758385963428","-0.28507962579120333","0.36326923417785456","-0.9166613841801523"
"0.0021340431474311124","-0.011719065581119539","0.003943336711734021","0.001544424801294567","-0.0036621475414308925","2.0570135989072465e-05","-0.2882561018827081","0.3646808492935301","-0.9176093040966083"
"0.0025018401326855305","-0.013430871870264685","0.003962750082102054","0.0007214664437019303","-0.005978141101618592","0.006419776821573096","-0.28872978691389745","0.3598787193673065","-0.9156807773700256"
"0.0028003141259548133","-0.01576590860448695","0.003670929950931517","0.0005149566546242272","-0.0064065412744754675","0.0012655614245602968","-0.2823211070801598","0.360221728647751","-0.9170045965636968"
"0.002718474482639042","-0.013739370940577858","0.003043093292220664","0.00046017620241666873","-0.006407498593297495","-0.002793644090574654","-0.28237683473088804","0.36191038972070877","-0.9170045965636968"
"0.002279428866733238","-0.012029642086249636","0.003950152043884502","0.0009338490053361555","-0.005346789338492091","0.0012917717674775858","-0.2829341112381695","0.35965444406855424","-0.9150924132839495"
"0.0021340431474311124","-0.011949660845798071","0.0027041854116468134","-0.000129507927234115","-0.006814359092658773","0.005563814974635336","-0.28616631498040246","0.35990510469657144","-0.9171026572447094"
"0.00249895167468614","-0.013194044301135383","0.0024125718056929577","0.0001567175286763797","-0.0013444786733046458","0.003026508167225561","-0.2801755925271261","0.3614354537939394","-0.9186552846940769"
"0.0025730887633368983","-0.013274025541586945","0.0036556470848971077","-7.078020166889405e-05","-0.0047168735535986295","-0.0008518945194521657","-0.28404866425273256","0.3611452151720248","-0.9191946184396467"
"0.0024286658633678967","-0.013275064258995406","0.003649451328396671","-0.00126622637928094","-0.005975747804563526","-0.0012892189447943389","-0.2818195582236064","0.35916631547715244","-0.915909585625722"
"0.0022813545053995046","-0.012805563990370646","0.002247558157564678","0.00039875277797304427","-0.008083285191254948","0.004051381112963628","-0.2798969542734852","0.36047238927576813","-0.9150106960497724"
"0.0022813545053995046","-0.012805563990370646","0.0024024520700755793","0.0005781130283468255","-0.009348382014563016","0.0029719032861478755","-0.28006413722566953","0.35956209541612694","-0.9180178902674944"
"0.002786834655291053","-0.013269870671953097","0.002115382018888709","0.003449995083446071","-0.002830237485089832","0.008155241286402107","-0.2815966476206937","0.35973360005634913","-0.9180505771611653"
"0.002500877313352406","-0.013504620806265478","0.002103403556321199","0.0012734107890550637","-0.0026124474530787945","0.002587727611721316","-0.2808443243358638","0.35788662700780155","-0.9188840929497731"
"0.0025721259440037738","-0.013195083018543843","0.0030356583844201417","0.0019588885038491176","-0.003668609443479572","0.0021540435117843224","-0.27457496362894657","0.35729295709933984","-0.9172170613725578"
"0.0024248145860353816","-0.012493948767832087","0.0028727099884586736","0.00025539936261793943","-0.005557878138748943","0.0008588157326216277","-0.27780716737117955","0.35805813164802386","-0.9192273053333174"
"0.002495100397353642","-0.012260237350928169","0.003030288728786431","0.0010953983881204844","-0.005981731047201192","0.002570254049776457","-0.28006413722566953","0.35638266323969847","-0.9192926791206594"
"0.0022832801440657536","-0.012807641425187569","0.00364222294581283","0.0011014637105968925","-0.00850761675911821","0.0016936636922093493","-0.2795625883691161","0.35632989258116865","-0.9179852033738237"
"0.002274614770067616","-0.012659104835777523","0.003957586951685024","0.0009344266550958132","-0.008953727330182577","0.00043241228349499193","-0.27975763514666485","0.35412671758754394","-0.9199137301004063"
"0.0022698006734019763","-0.011802162973796488","0.00380042126179063","0.0005688706321922989","-0.0026306365106972987","0.003479121959269485","-0.27822512475164063","0.3552876720752025","-0.9192273053333174"
"0.0022726891314013495","-0.012269585807604327","0.003956554325601619","0.0005538517384411932","-0.00431503897805299","0.005178183170046706","-0.27864308213210176","0.3549710481240229","-0.9200935080155961"
"0.002270763492735101","-0.011880066779431127","0.0039557282247348925","-0.0002799856896250006","-0.0030497028250394153","0.002619034410205856","-0.28215392412797535","0.35435099288629623","-0.9210577713788876"
"0.0022698006734019763","-0.011880066779431127","0.0036457338744964106","-0.00043296660097440394","-0.009160268866034802","6.008834368356353e-06","-0.2786709459574657","0.3556570666849119","-0.9201098514624316"
"0.002420000489369759","-0.0131254889521769","0.003345033159008582","-0.0002987593068138828","-0.009160268866034802","0.004711008076382065","-0.2822375156040676","0.3567256725201431","-0.9210577713788876"
"0.002705957831308406","-0.012967603906090698","0.0030470172713376077","-0.0004447121460874482","-0.002212766844882715","0.002404740588020984","-0.27789075884727155","0.3566333238677157","-0.9192273053333174"
"0.002418074850703493","-0.012813873729638341","0.003654201408380339","0.0002379735948682591","-0.008531310399963367","0.0019331971038701286","-0.27894958421110644","0.35394202028268923","-0.9194561135890139"
"0.002274614770067616","-0.012813873729638341","0.0034931117393690024","-0.00013990562290795743","-0.004312406351292418","0.006460063089390411","-0.272206538473","0.355630681355647","-0.9207799327826848"
"0.0025605721120062624","-0.01265598868355214","0.003040201939187128","0.002277462346300455","-0.0064319102232591715","0.0038761601167943437","-0.27607961019860666","0.3536649743254071","-0.9221691257636978"
"0.002201440500749982","-0.012659104835777523","0.003489600810685422","0.002441803702923131","-0.004742003172676827","0.004745227135190748","-0.2724851767266409","0.35258317582554355","-0.9207799327826848"
"0.0024171120313703684","-0.012502258507099783","0.0033435874824918124","0.002802642252789439","-0.00432580881480079","0.0026071426805489377","-0.2763025208015193","0.3515937259781073","-0.9208779934636976"
"0.002414223573370995","-0.012033796955883483","0.003032560506169924","0.0021921627317909704","-0.008958035264881696","0.003433011170803884","-0.27563378899278157","0.34964121161249984","-0.9234275711700273"
"0.0022698006734019763","-0.012034835673291944","0.0030263647496694876","0.0012752400132939807","-0.00811224408562125","0.0006549575099316025","-0.27254090437736894","0.3516069186427398","-0.9220710650826852"
"0.0025547951960074983","-0.011331623987763266","0.0028820036232093276","0.00023354494671088183","-0.008532746378196407","0.0021538008234239774","-0.27284740645637395","0.35023488152096155","-0.9214173272092674"
"0.0021253777734329573","-0.01172425916816185","0.0036391250675626113","0.0010941468136412256","-0.006844993294963622","0.0017366195319904617","-0.27415700624848544","0.3496544042771323","-0.9242447435117996"
"0.0021263405927660992","-0.011957970585065768","0.0036397446432126553","0.0011082992327528444","-0.008531310399963367","1.0377224854571124e-05","-0.2733210914875631","0.34878368841138846","-0.9235746621915464"
"0.0022688378540688518","-0.011568451556892569","0.003954902123868168","-0.00022077658926006487","-0.006845950613785649","-0.004687098677988435","-0.2734882744397477","0.3500237988868418","-0.9253070675561038"
"0.0022698006734019763","-0.01172425916816185","0.003955315174301532","-0.0004876507782220194","-0.0060018347424637495","-0.0033972100427533364","-0.2735161382651117","0.3513694506793551","-0.9253070675561038"
