"AccX","AccY","AccZ","GyroX","GyroY","GyroZ","MagX","MagY","MagZ"
"-2.9875","-9.3142","-1.3128","-0.008067","-0.005591","-0.006379","-0.18192","0.71543","0.28863"
"-2.9576","-9.3292","-1.3422","-0.003455","-0.008417","-0.013658","-0.18163","0.71623","0.28902"
"-2.9426","-9.2993","-1.3568","-0.002678","-0.002819","-0.002777","-0.18255","0.71702","0.28952"
"-2.9426","-9.3143","-1.3419","-0.006481","-0.000746","0.011719","-0.18282","0.71676","0.28763"
"-2.9651","-9.2992","-1.3721","0.011746","-0.000929","-0.000981","-0.18145","0.71529","0.28945"
"-2.9426","-9.3218","-1.327","-0.002701","-9.5e-05","-0.000948","-0.18301","0.71595","0.28858"
"-2.9875","-9.2992","-1.3352","0.003618","0.000838","-0.000938","-0.18209","0.71517","0.28809"
"-2.9875","-9.3141","-1.3352","0.008042","-0.004412","0.004443","-0.18194","0.7161","0.28848"
"-2.9725","-9.2992","-1.3349","-0.007963","0.014965","-0.008963","-0.18166","0.71542","0.29025"
"-2.9427","-9.3441","-1.3569","-0.004583","0.012633","0.008187","-0.1811","0.71597","0.28878"
"-2.965","-9.2992","-1.3497","-0.01536","0.019714","0.005555","-0.18156","0.71636","0.28997"
"-2.9725","-9.3217","-1.3126","-0.014637","-0.000732","0.013562","-0.18071","0.71651","0.28878"
"-2.9726","-9.3291","-1.3425","0.000999","0.005196","-0.006335","-0.18057","0.71623","0.29054"
"-2.9576","-9.3217","-1.3497","-0.009939","0.000818","0.000891","-0.18182","0.71544","0.28809"
"-2.9651","-9.3217","-1.3274","0.008171","-0.010018","-0.006458","-0.18105","0.71517","0.28933"
"-2.9426","-9.3144","-1.327","-0.002692","-0.001009","-0.001859","-0.18218","0.71609","0.28887"
"-2.9875","-9.3216","-1.3427","0.004576","0.002561","-0.004546","-0.18256","0.71569","0.28914"
"-2.9276","-9.3144","-1.3342","0.00433","0.001119","0.013507","-0.18199","0.71691","0.28792"
"-2.9875","-9.2992","-1.3426","-0.009766","0.01136","-0.00988","-0.18067","0.71704","0.28931"
"-3.0025","-9.314","-1.3355","0.002779","0.006143","-0.004511","-0.18168","0.71812","0.28683"
"-2.9576","-9.3218","-1.3272","-0.010007","0.012615","0.008206","-0.18007","0.71639","0.28826"
"-2.9725","-9.2993","-1.3274","-0.002747","-0.006323","0.000832","-0.18194","0.7165","0.28847"
"-3.0025","-9.2991","-1.3279","0.01707","-0.002583","0.004439","-0.18186","0.71596","0.28943"
"-2.9575","-9.2993","-1.3272","0.001565","-0.000602","0.017133","-0.18106","0.71652","0.28769"
"-2.9351","-9.3293","-1.3418","0.007358","0.001549","-0.01001","-0.1826","0.71449","0.28835"
"-2.9725","-9.3067","-1.3275","0.007223","0.011657","0.001832","-0.18069","0.71652","0.28716"
"-2.9725","-9.3218","-1.2827","0.004571","-0.002862","-0.006397","-0.18228","0.71544","0.2874"
"-2.9575","-9.2993","-1.3421","-0.008096","0.006165","-0.000888","-0.18182","0.7165","0.28834"
"-2.9576","-9.3291","-1.3572","-0.020647","0.016801","-0.004403","-0.1816","0.71663","0.28942"
"-2.9651","-9.3141","-1.3572","-0.003544","-0.006474","-0.006406","-0.18141","0.71637","0.28835"
"-2.9725","-9.3142","-1.3275","-0.002658","-0.001056","-0.00456","-0.18154","0.7161","0.28836"
"-3.0025","-9.3141","-1.313","-0.002734","0.008062","0.002751","-0.1817","0.71544","0.28796"
"-2.9875","-9.2992","-1.3277","-0.018053","0.002569","3.1e-05","-0.18166","0.71677","0.28861"
"-2.9576","-9.3217","-1.3422","0.008116","-0.01353","-0.002867","-0.18031","0.71585","0.28854"
"-2.9576","-9.2992","-1.3571","-0.006335","-0.001858","0.000863","-0.18103","0.7177","0.29009"
"-2.9426","-9.3442","-1.3271","0.000995","0.00429","-0.006354","-0.18265","0.71596","0.28792"
"-2.965","-9.2994","-1.3124","-0.00379","-0.011523","0.009841","-0.18256","0.71635","0.28926"
"-2.9426","-9.3443","-1.3121","-0.008185","0.002684","0.004512","-0.18249","0.71583","0.2882"
"-2.9426","-9.3143","-1.3419","0.002754","0.016077","5e-05","-0.18269","0.71608","0.28926"
"-2.9576","-9.3291","-1.3572","0.004497","0.002682","0.001773","-0.18249","0.71583","0.2882"
"-2.9725","-9.3142","-1.3275","0.000934","0.000787","-0.002747","-0.18091","0.7165","0.28972"
"-2.9875","-9.3142","-1.3128","0.004501","0.004462","0.000894","-0.18128","0.71557","0.28811"
"-2.9576","-9.3217","-1.3571","0.000939","0.007991","-0.000897","-0.18212","0.7153","0.28768"
"-2.9276","-9.3294","-1.3268","0.004488","-0.010828","-0.001044","-0.18138","0.71744","0.28887"
"-2.9576","-9.3217","-1.3347","0.004536","0.005314","-0.000923","-0.18261","0.71502","0.28834"
"-2.9725","-9.2993","-1.3125","-0.002759","0.015297","0.006403","-0.17995","0.71584","0.28976"
"-2.9726","-9.3292","-1.3126","-0.00695","0.000388","-0.020819","-0.18335","0.71636","0.28762"
"-2.9651","-9.3141","-1.3572","-0.008115","0.002601","-3e-06","-0.18276","0.71649","0.28831"
"-2.9426","-9.3217","-1.3644","0.002634","-0.00534","0.00443","-0.18192","0.7161","0.28875"
"-2.9576","-9.3143","-1.3272","0.018954","-0.001803","-0.001006","-0.18215","0.71622","0.28928"
"-2.9426","-9.3144","-1.327","0.002552","-0.013335","0.007995","-0.18108","0.71665","0.28742"
"-2.9576","-9.3143","-1.3347","0.004331","-0.00608","0.011664","-0.18197","0.71584","0.28794"
"-2.9575","-9.2994","-1.3197","-0.004437","0.007895","-0.004503","-0.18091","0.7165","0.28958"
"-2.9575","-9.2993","-1.3272","0.000924","-0.002803","-0.002778","-0.18259","0.71462","0.28848"
"-2.9276","-9.3293","-1.3566","-0.011708","-0.004648","-0.002772","-0.18091","0.7153","0.28947"
"-2.9201","-9.3294","-1.3341","0.011855","0.000683","-0.009129","-0.18193","0.71568","0.29024"
"-2.9725","-9.3143","-1.3125","-0.004399","0.005137","-0.008132","-0.18206","0.71543","0.28849"
"-2.9726","-9.3142","-1.3424","-0.006278","-0.00555","-0.004581","-0.18133","0.7153","0.28919"
"-2.9726","-9.3292","-1.3275","-0.010919","-0.002676","0.0054","-0.18131","0.7153","0.28946"
"-2.9576","-9.3142","-1.3422","0.004602","0.002515","-0.006369","-0.18252","0.71556","0.2878"
"-2.9426","-9.3293","-1.327","0.002678","-0.016226","-0.001973","-0.18202","0.71609","0.28915"
"-2.9575","-9.2993","-1.3421","0.006297","-0.001812","0.000833","-0.18151","0.71423","0.28839"
"-2.9426","-9.3144","-1.327","-0.007285","0.000895","0.004496","-0.18081","0.7161","0.28905"
"-2.9351","-9.3219","-1.3269","0.0072","-0.00092","0.000827","-0.17996","0.71572","0.28774"
"-2.9575","-9.2993","-1.3421","0.003643","0.008","-0.000904","-0.18071","0.71584","0.28866"
"-2.9725","-9.2993","-1.3125","2.7e-05","0.000782","-0.002745","-0.18181","0.7161","0.28835"
"-2.9576","-9.3142","-1.3422","-0.006463","-0.010674","0.008041","-0.18042","0.71491","0.28868"
"-2.9427","-9.3441","-1.3569","-0.002688","0.009803","0.000927","-0.18176","0.71543","0.2889"
"-2.9426","-9.3144","-1.327","0.001","-0.002021","-0.008206","-0.18204","0.71476","0.28863"
"-2.9726","-9.3292","-1.3275","0.011638","-0.000782","0.006262","-0.1817","0.71556","0.28971"
"-2.9725","-9.2993","-1.3274","0.004439","-0.001742","0.004463","-0.18035","0.71584","0.28975"
"-2.9575","-9.2993","-1.3272","-0.009875","-0.008294","-0.006406","-0.18201","0.71582","0.28929"
"-2.9725","-9.2993","-1.3274","-0.008103","-0.002832","-0.00275","-0.18084","0.71704","0.2889"
"-2.9725","-9.3142","-1.3275","0.004544","0.0008","-0.002756","-0.18179","0.71596","0.28862"
"-2.9351","-9.3293","-1.3418","-0.000978","-0.00446","0.004442","-0.18111","0.71597","0.28864"
"-2.9426","-9.3292","-1.342","0.004474","6e-06","0.002653","-0.18081","0.71691","0.28931"
"-2.9725","-9.3217","-1.3126","-0.006282","-0.012758","-0.006437","-0.18098","0.71529","0.29028"
"-2.9576","-9.3142","-1.3422","-0.009984","0.002683","0.004521","-0.18153","0.71717","0.28874"
"-2.9351","-9.3218","-1.3343","0.002862","-0.008401","-0.013684","-0.1815","0.71555","0.29066"
"-2.9576","-9.3143","-1.3272","0.004623","0.002478","-0.008179","-0.18208","0.71555","0.2901"
"-2.9725","-9.2992","-1.3424","-0.004506","0.008011","0.000932","-0.18137","0.71622","0.29065"
"-2.9576","-9.3143","-1.3272","0.00637","-0.004631","-0.005517","-0.18175","0.71623","0.28916"
"-2.9575","-9.2993","-1.3421","0.006213","0.002816","0.0081","-0.18096","0.71637","0.28891"
"-2.9576","-9.3143","-1.3347","0.014448","0.008076","0.000879","-0.18199","0.71502","0.28944"
"-2.9875","-9.3141","-1.3277","0.008304","0.002389","-0.013602","-0.18221","0.71635","0.29022"
"-2.9725","-9.2993","-1.3274","0.000897","0.000842","-3.4e-05","-0.18152","0.71624","0.28862"
"-2.9726","-9.3142","-1.3424","-0.009818","0.009637","-0.00628","-0.18224","0.71528","0.2897"
"-2.9501","-9.3142","-1.357","-0.010832","0.011605","0.00277","-0.18243","0.71556","0.28901"
"-2.9576","-9.3142","-1.3422","-0.002564","0.012311","-0.008095","-0.18142","0.71664","0.28822"
"-2.9426","-9.3292","-1.3569","-6.3e-05","-0.013472","0.001669","-0.1822","0.71556","0.28848"
"-2.9576","-9.3292","-1.3273","0.015329","0.005409","0.001765","-0.18169","0.71636","0.28996"
"-2.9575","-9.2993","-1.3421","-0.004402","-0.006554","-0.010026","-0.18208","0.71557","0.28821"
"-2.9576","-9.3142","-1.3422","0.006203","-0.000768","0.008076","-0.18193","0.71596","0.28848"
"-2.9351","-9.2994","-1.3492","0.002469","-0.002396","0.017109","-0.18136","0.71622","0.29079"
"-2.9726","-9.3141","-1.3574","0.00167","-0.004346","0.008975","-0.1823","0.71529","0.28889"
"-2.9575","-9.2993","-1.3347","-0.002589","0.000641","-0.009078","-0.18143","0.71503","0.28959"
"-2.995","-9.3142","-1.3054","-0.004629","-0.005318","0.006281","-0.18093","0.71718","0.28768"
"-2.965","-9.2993","-1.3423","-0.002686","0.004394","-0.000909","-0.18134","0.71583","0.28918"
"-2.9426","-9.3143","-1.3419","-0.004271","0.00405","-0.017198","-0.18055","0.71517","0.28881"
"-2.9426","-9.3292","-1.342","-0.004543","0.002662","0.002693","-0.18132","0.71596","0.28944"
"-2.9725","-9.3142","-1.32","0.002691","-0.00634","-0.00099","-0.18135","0.7161","0.28904"
"-2.9426","-9.3144","-1.327","0.002578","-0.008872","0.00712","-0.18146","0.71664","0.28768"
"-2.9276","-9.2994","-1.3416","-0.002875","-0.018736","0.007965","-0.18209","0.7153","0.28808"
"-2.965","-9.3143","-1.3274","0.003717","0.009684","-0.006316","-0.18186","0.71597","0.28768"
"-2.9725","-9.2993","-1.3125","-0.009815","-0.002986","-0.009982","-0.18239","0.7149","0.28754"
"-2.98","-9.2993","-1.3126","-0.013552","-0.004606","-0.000936","-0.18186","0.71584","0.28768"
"-2.9426","-9.3143","-1.3569","-0.008115","-0.010009","-0.002811","-0.18216","0.71569","0.28902"
"-2.9576","-9.3217","-1.3497","-0.000962","0.000924","0.004488","-0.18127","0.71611","0.28836"
"-2.9576","-9.3217","-1.3422","0.008217","0.007925","-0.005437","-0.18145","0.71598","0.28769"
"-2.9725","-9.3143","-1.3125","0.003615","0.005332","-1e-05","-0.18279","0.71556","0.28779"
"-2.9875","-9.2993","-1.3128","0.004533","0.015217","0.000965","-0.18171","0.71664","0.28794"
"-2.9576","-9.3218","-1.3272","0.002792","0.006111","-0.005436","-0.18224","0.71582","0.28982"
"-2.9351","-9.3218","-1.3568","-0.008166","0.005373","0.004525","-0.18128","0.71583","0.28999"
"-2.9426","-9.3293","-1.3345","0.002905","0.005942","-0.013584","-0.18074","0.71596","0.29"
"-2.995","-9.2992","-1.3129","0.004738","0.01851","-0.013482","-0.18294","0.71636","0.28777"
"-2.9575","-9.3143","-1.3123","-0.009886","-0.00288","-0.004561","-0.18233","0.71676","0.28872"
"-2.9575","-9.3144","-1.3048","-0.002646","-0.003787","-0.006393","-0.18129","0.71624","0.28809"
"-2.9576","-9.2992","-1.3571","0.004641","-0.002039","-0.010019","-0.18115","0.71598","0.2881"
"-2.9725","-9.3217","-1.3126","-0.004574","-0.020708","-0.001068","-0.1823","0.71516","0.28889"
"-2.965","-9.2993","-1.3273","-0.006184","0.002403","-0.009959","-0.18067","0.71491","0.28895"
"-2.9501","-9.3218","-1.3271","-0.009844","0.001563","-0.006343","-0.18282","0.71596","0.28737"
"-2.9426","-9.3143","-1.3344","0.002815","0.000675","-0.008193","-0.1816","0.71596","0.2893"
"-2.9875","-9.2992","-1.3277","0.007339","-0.002022","-0.010011","-0.18114","0.71598","0.28824"
"-2.9725","-9.3217","-1.3126","0.007181","0.002712","0.002678","-0.18123","0.71584","0.28891"
"-2.9725","-9.3142","-1.3275","-0.009887","0.004332","-0.002697","-0.18096","0.71584","0.28892"
