"AccX","AccY","AccZ","GyroX","GyroY","GyroZ","MagX","MagY","MagZ"
"-0.005075068893648648","0.006875744488805885","0.0206934409287231","1.7271848923925085e-05","-0.010906752293713762","-0.003395182421798503","-0.029442203874104626","0.4268427286387068","0.5309085564658633"
"-0.005553923857754052","0.005549397434083462","0.02132246630803442","0.0009597689767168999","-0.009553355706771918","0.0018273977536380855","-0.033023849499344615","0.4286212961369309","0.5291123497668043"
"-0.00531449637570135","0.005879316815445862","0.02166452916321702","0.0016756525685037158","-0.014434969161722109","0.0029493588939885317","-0.035481841595097624","0.4280654937937359","0.5302919481960372"
"-0.005798139889447797","0.006696778786651753","0.02237201741394909","0.0026809559404004746","-0.007796098179307567","-0.0036667847760711763","-0.0335856762640883","0.42746800627480125","0.5282276509448796"
"-0.0053192849253423935","0.006694110974942623","0.02206477796799255","0.0009619207966433678","-0.00958761023947103","-0.000485385973016373","-0.030249829848423653","0.42959395023752217","0.5294474629569272"
"-0.005199571184316071","0.006359522923089246","0.02305658392696274","0.0009674348352049421","-0.0071452620580244736","-0.0010503701156307568","-0.03067119992198132","0.42941331447598374","0.5296083172881862"
"-0.005081453626503401","0.006028936588799565","0.02174343283728621","-0.0014647941254308954","-0.007763213827916421","-0.0001721464653764254","-0.035025357348743645","0.4310112462126695","0.528495741496978"
"-0.005320881108556103","0.005699461842722021","0.021071649601077064","-0.0008673951183452227","-0.009259109270886563","0.0012659367547701633","-0.03671083764297393","0.4317059991416633","0.529326822208483"
"-0.00496173988547705","0.0056972386662977464","0.02108840010171745","-0.00436638880752756","-0.010917713744177477","-0.002782795981504454","-0.033901703819256265","0.43083061045113114","0.5295546991777665"
"-0.00531290019248767","0.00770810174205442","0.020357549310618527","-0.0013328606661893274","-0.004075028292203229","0.000712803186575696","-0.032321566043415295","0.42984406129195996","0.530640465913765"
"-0.005434210116727701","0.005047404197482182","0.02297150901581552","-0.0012009272069477593","-0.004738538590584993","-0.0016067065417765532","-0.03263759359858365","0.43127525232568714","0.5290587316563846"
"-0.004837237594809656","0.004876219612813014","0.02365695713412603","0.0016891014430441406","-0.010485764086841699","0.0012319864604860792","-0.032497136907397625","0.4310946165641487","0.5299300259507044"
"-0.004593021563115912","0.010700941844413331","0.015468607136868125","0.009249520754689385","-0.009599256780588726","-0.0037378882225906737","-0.03607878253263762","0.4300108019949185","0.5299032168954945"
"-0.005793351339806726","0.006385311769610836","0.019011338022309653","-0.008491831072802889","-0.010930387921276149","-0.001021224108273666","-0.03625435339661995","0.4309139808026104","0.5292061814600386"
"-0.005557116224181415","0.002893146242359774","0.020979081044906513","-0.006105731751840709","-0.006435165595171919","0.007104426514247262","-0.03404216051044228","0.4300108019949185","0.531136433435147"
"-0.005557116224181415","0.0028920346541476366","0.02163764020166272","-0.0029104136497811644","-0.005943270505612697","0.0001359684695413959","-0.03569252663187626","0.4291215182458064","0.5318334688706028"
"-0.005801332255875159","0.004543187784456627","0.01939704033968695","-0.0027969051486599786","-0.007776230550342083","-0.00044695167760042847","-0.03558718411348694","0.4267176731114879","0.5320211322570717"
"-0.00507985744328972","0.006024267918308586","0.024377228661662604","-0.0014821431735880435","-0.0055459179263030196","0.003028789771181483","-0.03281316446256598","0.42760695686059996","0.5323830545024044"
"-0.005322477291769784","0.004373559423284449","0.019747919247838187","-0.00026824775756929483","-0.007059283180949707","0.0033045558407908847","-0.039028373047540914","0.42705115451740494","0.5329996627722308"
"-0.0053192849253423935","0.006858403712696543","0.023053498308423723","0.0014039853027871332","-0.006950696312293527","0.007639944363709419","-0.04043293995939994","0.42705115451740494","0.532811999385762"
"-0.005560308590608776","0.005537392281392376","0.019742629616057005","0.0011562570337525072","-0.006304313280261318","0.009096283874178584","-0.033199420363326945","0.42707894463456464","0.5327315722201323"
"-0.005081453626503401","0.005695682442800754","0.022399787980800258","0.001655882722929291","-0.013767005774089461","0.004697158478028606","-0.0353764990767083","0.4265370373499495","0.5330532808826504"
"-0.004956951335835979","0.005381102978765851","0.02036195733710284","0.0023957053113980633","-0.005757953483710511","0.006472502640450108","-0.032918506980955296","0.42609239547539346","0.5339781932873899"
"-0.005073472710434968","0.007705433930345292","0.021027128533585515","0.0035919827017688553","-0.01308294275608823","0.007867987849844025","-0.03456887310238927","0.42592565477243505","0.5324098635576144"
"-0.005073472710434968","0.007708991012624131","0.01905189186596533","0.0031363348323392606","-0.007028454101520507","0.004142103195063341","-0.03488490065755762","0.42876024672272967","0.5313240968216159"
"-0.00531449637570135","0.006711896386336823","0.020352259678837355","0.0002272087804999573","-0.008307860897832272","0.0029954800484876644","-0.03218110935222928","0.42593954983101484","0.5307208930793945"
"-0.00531290019248767","0.0077116588243332585","0.018382312642998333","0.0007076025790839337","-0.008277374363730064","0.004150750911531929","-0.03509558569433665","0.4264536669984702","0.5320479413122814"
"-0.005075068893648648","0.00671034016283983","0.020363279745048136","0.00021564274839519192","-0.0070308519188094455","0.005318833206381508","-0.03709709354373529","0.42485573526178455","0.5308549383554437"
"-0.005552327674540372","0.006714564198045953","0.019682680455870363","-0.0007435309838279098","-0.008315054349699086","0.003003166907570853","-0.03520092821272597","0.4250363710233229","0.5313911194596405"
"-0.004601002479184316","0.008019568759095336","0.02111793387916234","-0.0029522396496018855","-0.010742673082085024","0.004737194202420215","-0.034498644756796655","0.4267176731114879","0.5328924265513914"
"-0.005320881108556103","0.006700558186573023","0.01844314340848184","-0.001467752877829789","-0.005272224210037129","0.0012934813331515903","-0.032602479425786944","0.42496689573042357","0.5307074885517895"
"-0.0053192849253423935","0.008027127558937874","0.019438034985991046","-0.0009853417480647489","-0.007110664979998372","0.0012784279007803452","-0.031759739278672","0.4253003771363406","0.5327717858029472"
"-0.0053192849253423935","0.0073635093962918065","0.019105228986425495","-0.0031869225103322994","-0.0076816880400925385","0.004185021491611146","-0.03453375892959296","0.4231744331736196","0.5320881548950963"
"-0.004601002479184316","0.008019568759095336","0.02111793387916234","-0.0031956642787835756","-0.005807280010797229","0.005928337074519361","-0.035306270731115294","0.4238969762197731","0.5305198251653208"
"-0.005083049809717082","0.006034716847502681","0.018451077856153603","-0.0022121480836423055","-0.01076904907226334","0.0029999640496195246","-0.03281316446256598","0.42406371692273165","0.5317530417049732"
"-0.005440594849582425","0.005703241242643286","0.019419962077405376","-0.0009897798766630892","-0.008324988164181828","0.0018527003314535823","-0.03607878253263762","0.42261863083042456","0.5334688212384029"
"-0.00507985744328972","0.008024904382513597","0.019778334630579937","-0.0005135552291866444","-0.007671411680282805","0.003587688483688342","-0.029512432219697633","0.42086785344936023","0.534433947225957"
"-0.005081453626503401","0.006863739336114801","0.019113604236745692","0.0006765356788955521","-0.008799413442064504","0.007630015504060302","-0.030530743230795302","0.4219377729600106","0.5338843615941554"
"-0.00507985744328972","0.007860167009474825","0.019119334671175298","0.00045328436152449933","-0.008877171231291484","0.004153953769483258","-0.026071243285643662","0.4217571371984723","0.5358414226244735"
"-0.004602598662398026","0.0073588407258008285","0.019138729987706264","-0.0007727150415806318","-0.006992829387513433","0.006776133574236069","-0.03147882589629996","0.4199785697002481","0.5333883940727734"
"-0.005794947523020435","0.0090260007263646","0.01975056406372877","0.0011823478503609315","-0.01010725150051653","0.00356847133598037","-0.034252845547220925","0.4217432421398924","0.5334956302936128"
"-0.005437402483155064","0.008857483953404561","0.01976643295907229","-0.00125633657005431","-0.011322259775353968","0.00531018548991292","-0.0310925699955386","0.42139586567539555","0.5332007306863046"
"-0.004838833778023337","0.009685172536162117","0.019140052395651568","-0.0033200663682825056","-0.010724860725081485","0.005609652708362154","-0.030706314094777632","0.4192560266540946","0.5349701283301539"
"-0.004601002479184316","0.007686314613096526","0.021774289022676394","-0.0038748324430750315","-0.0053897172571950765","-0.00275557168891816","-0.029512432219697633","0.41838063796356245","0.5339647887597849"
"-0.00507985744328972","0.00835815852851241","0.01912197948706588","-0.004396379797752707","-0.009561919339946696","0.003018860911532364","-0.03158416841468967","0.4187280144280594","0.5349701283301539"
"-0.004601002479184316","0.008024237429586314","0.01848369725213751","-0.003185712111623661","-0.01293051008557719","0.0029865120462239437","-0.027054440123944628","0.41713008269137364","0.5371148527469408"
"-0.0053192849253423935","0.0073635093962918065","0.019105228986425495","-0.0031561245876347266","-0.006567045546063494","-0.0010225052514541975","-0.027510924370299","0.4185612737251009","0.5350237464405736"
"-0.0050782612600760385","0.009021332055873623","0.019784065065009536","-0.0022171241672222625","-0.013840310474065556","0.0029791454729358883","-0.029547546392494333","0.41643532976237985","0.5333079669071439"
"-0.00496173988547705","0.007027809756226292","0.019778775433228365","-0.0018456662524157278","-0.006462569221331207","0.0033128832714643393","-0.028529235381396668","0.41554604601326783","0.5338441480113407"
"-0.0053192849253423935","0.007694540365866343","0.019765551353775432","0.001181002962906889","-0.008869292688770689","0.00415203205471246","-0.034077274683238595","0.4153376201345697","0.5356805682932146"
"-0.0053192849253423935","0.007526023592906302","0.02108178806199098","0.0007123096851730823","-0.013261066326123604","7.19113105148216e-05","-0.026071243285643662","0.41608795329788295","0.5349031056921293"
"-0.004960143702263369","0.0073588407258008285","0.020439097800578298","-0.00025668172546452946","-0.01204400277932422","8.18401701639408e-05","-0.028599463726989675","0.4153515151931496","0.535921849790103"
"-0.005317688742128713","0.00935503083715729","0.019774808209392487","0.0011995624097726754","-0.013876277733399622","-0.00022563419316361496","-0.027826951925467348","0.4146567622641558","0.5350773645509932"
"-0.0050782612600760385","0.009353919248945153","0.01945654869722516","-0.0005179933577849847","-0.010120953313596175","0.0038612125527318136","-0.029968916466051612","0.41342010205054686","0.5329996627722308"
"-0.005076665076862358","0.010682934115376705","0.019134321961221952","-1.298811879203086e-05","-0.008957669383134394","0.0006782123207013458","-0.027616266888688318","0.4162546940008415","0.5340184068702046"
"-0.0050782612600760385","0.009351696072520878","0.020773667010737577","-0.0014984163117819575","-0.008864839599519805","0.005613175852108617","-0.024491105509802696","0.4139481142765821","0.5356537592380047"
"-0.004601002479184316","0.007688537789520801","0.020457611511812412","-0.006180104028049259","-0.008186257306750431","-0.00333913240765025","-0.028810148763768317","0.4126836639458134","0.5366590988083737"
"-0.005317688742128713","0.008023125841374178","0.021742992034637774","-0.003648487884559681","-0.007788562182113763","-0.0004482328207809601","-0.028634577899785987","0.4116415345523228","0.534956723802549"
"-0.004960143702263369","0.007023363403377742","0.022412571257604767","-0.00026824775756929483","-0.009538283712384311","0.002415442473502036","-0.023648365362687357","0.41039097928013396","0.5372757070781998"
"-0.005199571184316071","0.0076936510952966344","0.019771281788205034","0.0033681934294161856","-0.012558848405791844","0.0029564051814814545","-0.02326210946192639","0.4136146328706651","0.5349835328577587"
"-0.004838833778023337","0.009683838630307551","0.019798611552407773","0.0012070937795153132","-0.008973426468175984","-0.0004895496883531006","-0.02308653859794406","0.4127114540629732","0.5356939728208194"
"-0.005076665076862358","0.010346122887099053","0.02176635457500463","0.0014283277657053024","-0.011977891531214938","0.0023894993240962735","-0.023823936226669687","0.4155599410718477","0.5347690604160801"
"-0.005316092558915031","0.009515321857347513","0.023068044795821953","0.0014493080099883648","-0.007127792246347928","-0.00047449625598185564","-0.024912475583360363","0.41554604601326783","0.5361363222317816"
"-0.0050782612600760385","0.009021776691158478","0.01945478548663144","0.0001040170897096655","-0.007089427169724924","0.0018488569019119879","-0.024315534645820366","0.41414264509670035","0.5342730928946982"
"-0.004838833778023337","0.009015107161885654","0.02242888095559672","0.0004787027344059023","-0.01022200418505855","-0.0010718292639046588","-0.022454483487607358","0.4155599410718477","0.534782464943685"
"-0.0045994062959706355","0.009350139849023883","0.01980786840802483","0.00010092384856536778","-0.008314369259045103","0.0021265446862921865","-0.02684375508716599","0.4153793053103093","0.5331873261586996"
"-0.0044796925549442845","0.0103456782518142","0.01981888847423561","-0.0014798568649161713","-0.012020367151761833","0.001821312323530561","-0.025404074002510654","0.4146845523813155","0.5333883940727734"
"-0.00507985744328972","0.008024904382513597","0.019778334630579937","-0.0004765708242004761","-0.009664682938044027","-0.003377566703066194","-0.026422385013608322","0.41610184835646286","0.5329996627722308"
"-0.005435806299941382","0.008684520827595969","0.02371646549166424","0.00011733147550468611","-0.009620837136189166","-0.001639375692880106","-0.029968916466051612","0.4171439777499535","0.533629675569662"
"-0.005317688742128713","0.008191420296691789","0.020426755326422227","-0.00048638850261498623","-0.009011791544798987","-0.0016332902627725814","-0.024139963781838036","0.41681049634403655","0.5331873261586996"
"-0.0050782612600760385","0.00835371217566386","0.021755775311442283","0.0011020580693545951","-0.010584417141015136","-0.003972017138832802","-0.024596448028192015","0.4166298605824981","0.5331873261586996"
"-0.005317688742128713","0.008855038459337857","0.020759561325987778","-0.0013487303381470288","-0.008355474698284035","0.0006932657530725908","-0.02638727084081201","0.4162685890594214","0.5333481804899588"
"-0.0053192849253423935","0.00735950767872811","0.021410186035072224","-0.0007276613118702084","-0.00717232313885677","-0.0016198382593770007","-0.029863573947662293","0.4158934224777647","0.5340050023425996"
"-0.00507985744328972","0.006692999386730485","0.021746959258473662","-0.000251033198157551","-0.007751909832125714","-0.00017951303866448157","-0.025298731484121335","0.4159212125949244","0.5342328793118832"
"-0.0053192849253423935","0.008026682923653019","0.019767314564369153","0.0005932871454903222","-0.012033383874187497","7.991845539314332e-05","-0.025017818101749682","0.41590731753634463","0.53561354565519"
"-0.005316092558915031","0.00968117081859842","0.023068926401118815","0.00033748955173144125","-0.008296556902041567","0.0027110662624096754","-0.023718593708279976","0.41699113210557487","0.5330130672998357"
"-0.0053192849253423935","0.00752713518111844","0.020423228905234774","-0.0007306200642691018","-0.009007681000875093","-0.0013418301892016693","-0.024947589756156675","0.4162685890594214","0.5337101027352914"
"-0.005317688742128713","0.008353934493306289","0.02240331440198771","-0.0002213111854232121","-0.00971880509970862","-0.00598437278965263","-0.029407089701308314","0.41696334198841517","0.5341658566738586"
"-0.004960143702263369","0.008023125841374178","0.02044262422176575","-0.0014594145756147256","-0.010864961763820846","-0.0016422582650363019","-0.032602479425786944","0.417310718452912","0.534112238563439"
"-0.005316092558915031","0.009018219608879637","0.022406840823175157","-0.0010115670534185774","-0.010720750181157594","0.004732069629698089","-0.027756723579873948","0.4189086501895978","0.5360424905385472"
"-0.005555520040967733","0.009355475472442143","0.02042190649728948","-0.0031874604653139168","-0.0055257077520105445","0.0044892929969873735","-0.03133836920511433","0.4166020704653384","0.533629675569662"
"-0.004601002479184316","0.008022903523731749","0.019142256408893724","-0.0012200246087951626","-0.012079970038658286","-0.0010753524076511207","-0.023929278745059006","0.41681049634403655","0.5344071381707473"
"-0.005316092558915031","0.00951821198669907","0.021421646903931436","-0.0037766556589299304","-0.008071504622208413","0.0007086394712389684","-0.025298731484121335","0.4160740582393031","0.5366456942807687"
"-0.005316092558915031","0.009349250578454173","0.02306716319052509","-0.0018302000466942391","-0.009000487549008281","-0.00046680939689866627","-0.03140859755070734","0.41658817540675847","0.5355197139619555"
"-0.005322477291769784","0.005040512350566929","0.018105047777135112","-0.0048646696092503015","-0.004075713382857211","0.0013216664831232827","-0.02680864091436968","0.41536541025172946","0.5357743999864489"
"-0.005201167367529752","0.006695667198439616","0.02075339008890974","0.003141848870900835","-0.012010775882606082","6.486502302189862e-05","-0.033550562091291605","0.41657428034817867","0.5361899403422015"
"-0.0050782612600760385","0.008689189498086947","0.019782301854415815","0.0016857392244090344","-0.00924917545640382","0.0006676428894619611","-0.030004030638848312","0.41818610714344423","0.5360290860109426"
"-0.005317688742128713","0.00869074572158394","0.019770840985556603","9.823407365728281e-05","-0.008917591579876434","0.0024192859030436305","-0.03200553848824695","0.41606016318072325","0.5346618241952407"
"-0.005317688742128713","0.008688967180444521","0.020758679720690915","-0.0031694389734297475","-0.0083722594193066","0.0007038351843119755","-0.030565857403591613","0.4166020704653384","0.5351846007718326"
"-0.004842026144450699","0.007363954031576662","0.01715203245122687","-0.0009878970342274297","-0.002776438957579963","0.0030396794882160006","-0.03098722747714967","0.41747745915587053","0.5356805682932146"
"-0.0050782612600760385","0.00835371217566386","0.021755775311442283","0.0011970071236099948","-0.010789601791882805","0.0006612371735593036","-0.030284944021220353","0.4178248356203674","0.5370746391641261"
"-0.0053192849253423935","0.008031129276501568","0.017133518739992755","-0.0007370755240485058","-0.00958829533012501","0.00010265874684757737","-0.03077654244037064","0.41606016318072325","0.5364044127838801"
"-0.0050782612600760385","0.009021332055873623","0.019784065065009536","-0.0004988959559375814","-0.008962465017712268","0.0006820557502429402","-0.03077654244037064","0.4162269038836817","0.5365786716427441"
"-0.00507985744328972","0.00835815852851241","0.01912197948706588","-0.001690062773983012","-0.009675644388507742","-0.0033708407013684047","-0.03130325503231763","0.41480960790853444","0.5358950407348932"
"-0.004838833778023337","0.009685172536162117","0.019140052395651568","-0.0031901502402220017","-0.010448084100872676","0.004162281200156712","-0.03211088100663666","0.4153376201345697","0.5365652671151392"
"-0.00507985744328972","0.007860167009474825","0.019119334671175298","-0.002429481896215571","-0.010872840306341643","-0.0016355322633385115","-0.03091699913155627","0.41553215095468793","0.5357207818760293"
"-0.005557116224181415","0.0076943180482239165","0.02074237002269896","-0.0016975941437256498","-0.012116964933973325","-0.002801692843417293","-0.028669692072582294","0.4153376201345697","0.5378252927100016"
"-0.0050782612600760385","0.008355935352088133","0.020438656997929863","-0.0013432162995854547","-0.00960987568572545","-0.0004754571133672541","-0.032497136907397625","0.41657428034817867","0.5370612346365212"
"-0.005317688742128713","0.008024237429586314","0.02108443287788157","-0.0009592509314563245","-0.01461823091166235","-0.0051417008626580465","-0.032145995179432965","0.41764419985882906","0.5366993123911884"
"-0.00507985744328972","0.007691205601229931","0.020764410155120518","-0.0019332184256738935","-0.009064543525155616","-0.003365075557056013","-0.030039144811644623","0.41553215095468793","0.5353856686859064"
"-0.005308111642846627","0.008202536178813166","0.022703941808217783","-0.004407273386130452","-0.003551619032560825","0.003078434069427078","-0.06395943573303445","0.4151291942558715","0.5085632089484635"
"-0.004854795610160174","0.00815762801504281","0.01923570657036113","-0.0015582638034868483","-0.005617509899644159","0.006700546126584712","-0.0269490976055557","0.4177831504446278","0.5438171165494002"
"-0.005415055918163474","0.008702306238990168","0.022076238836851763","0.001042452657391432","-0.00618065441721753","0.0029139993422058626","-0.00833858602342642","0.41722734810143286","0.5396751175194804"
"-0.00510380019149499","0.007662081990071931","0.021126749932130963","-0.0005707801903561523","-0.0010164410674996806","0.001075911192517831","-0.05662057361857253","0.43779203479964884","0.5391523409428884"
"-0.005300130726778194","0.006724790809597618","0.020272033596822878","-0.000979814260628634","-0.01113937482527342","0.001205755053864697","-0.03091699913155627","0.4209373287422596","0.5234422345899236"
"-0.005504442178129831","0.008108273498423907","0.01931064302059443","0.0008606507713539686","-0.01696295367491644","-0.0021085943827497612","-0.041240565933718575","0.42425824774284987","0.5386563734215064"
"-0.0045994062959706355","0.009545779374360077","0.02027996804449463","-0.001667872130991311","-0.006009724299048971","0.002213511888244615","-0.06718993963030978","0.40686163440084544","0.5339647887597849"
"-0.00510380019149499","0.007571154074319083","0.017800012344420725","0.000557607281334575","-0.007846692124104153","0.0038544545224545104","-0.00844392854181574","0.40377693139611315","0.5423560230404642"
"-0.0055331734759761445","0.008146289815279009","0.021030214152124534","0.00032206369263357385","-0.01291167009259268","-0.001378663055641949","-0.01279808596857806","0.41179438019670134","0.5480261382173448"
"-0.004830852861954904","0.007656079413726386","0.01973513597103368","-0.007243910004196864","-0.008473961126890259","-0.00422280091642184","-0.03446353058399995","0.42043710663338413","0.5477178340824318"
"-0.005108588741136033","0.009160725217675662","0.021579013449421373","-0.004228806820979014","-0.011266185105325524","0.0017635968232476177","-0.011814889130277093","0.4205204769848634","0.5065659343353307"
"-0.005265014696077129","0.009493757046032046","0.01876140292064916","-0.000590173467443445","-0.009205922257964655","-0.0007458423816184234","-0.012657629277392042","0.4082789303759929","0.551792810474327"
"-0.005536365842403506","0.008141398827145605","0.019269648374290335","0.0038050128744891855","-0.008808079838837378","-0.000787191277770077","-0.0031768026223450724","0.43187273984462177","0.529648530871001"
"-0.0050335681300928605","0.00979388586330916","0.018941691203857525","0.0002800857205305457","-0.00020084064393386693","0.0014041721039495102","-0.08773173071624468","0.42035373628190487","0.5072227561879716"
"-0.004862776526228607","0.009895262708256098","0.021005970006460817","-0.000118750068177932","-0.007578958696527908","-0.0014094104919747047","-0.03520092821272597","0.43536039954817063","0.5185495820141283"
"-0.0053831322538897995","0.005022949256815158","0.018830608936452862","0.0023507860704330445","-0.01822420556889768","-0.006435335189199711","-0.024245306300226966","0.4208539583907803","0.5161501715728477"
"-0.005174032252897119","0.006514033684576354","0.019390869102608916","0.00043791229792479366","-0.010064501843708041","-0.005002056255980113","-0.045980979261242255","0.418213897260604","0.555773955172988"
"-0.004912258205852829","0.00862071566421928","0.020170208185035267","0.0024508456970138053","-0.013839967928738567","0.00795798815827636","-0.022594940178792988","0.4494638840067445","0.5279595603927811"
"-0.005114973473990784","0.008894610999689951","0.019656232296964487","0.00031879561612025066","-0.007929108529778212","0.0007117782720312708","0.0023010083339038458","0.39285541535233076","0.5208551607621742"
"-0.005167647520042368","0.008875714000083613","0.01921939687236918","-0.0017211296741713933","-0.013801602852115563","0.0025573290807458975","-0.02220868427803202","0.39888587077599685","0.5272625249573254"
"-0.005280976528213967","0.007157643259403947","0.01960818480828549","-0.00106292830528846","-0.01606925291679666","-0.0016156745440402737","-0.01357059777010039","0.4171439777499535","0.5584548606939718"
"-0.00496173988547705","0.008488436666974922","0.019942313215796346","0.00183058360320941","-0.015244403769402082","0.003410858696195484","-0.024069735436244636","0.40034485192688385","0.5434283852488577"
"-0.004596213929543273","0.007449768641553674","0.01987090318675049","-0.0007997876260305069","-0.018200227396008302","-0.0006741303920881735","-0.024666676373785026","0.4240498218641518","0.5324500771404289"
"-0.0052378795814444976","0.00916695011166363","0.019339735995390895","0.0014973339409722224","-0.013533389861081529","-0.008687264614778926","-0.05788468383924514","0.4046940052623849","0.5202787660751628"
"-0.005635329201651948","0.008281236624232498","0.022885552499371437","-0.0020152565603704852","-0.0013589863944907827","-0.004338103802669673","-0.003071460103956142","0.40733406639256126","0.5426375181201674"
