"AccX","AccY","AccZ","GyroX","GyroY","GyroZ","MagX","MagY","MagZ"
"-0.012337131429464018","-0.03900617190141261","-0.06528391591980465","-0.14287042198718167","-0.04204871766705098","-0.053296606501704216","0.008660821196889936","-0.9342425250914527","-0.4390568373078996"
"-0.01721862544841668","-0.08453315591429593","-0.018493562828511688","-0.06505233461486623","-0.0724531634546138","-0.25736839494883307","0.05321507795404795","-0.8977516147180055","-0.489149501858543"
"0.001733510304850375","-0.05222904451113209","0.0007273260375743553","-0.037443564352016394","-0.06646992081694794","-0.49830939909961514","0.14678180352661666","-0.8328305120615581","-0.5233563360851325"
"-0.01735342015505442","0.026174384196977585","-0.05153966274967071","0.02307006172014689","0.1836009018728241","-0.6197991922884563","0.29805451142818756","-0.7492813669440451","-0.497713468000317"
"-0.06362651730512628","0.04074031841583825","-0.03925141235713923","-0.0619715358966907","0.2286595055285581","-0.5741009740354424","0.4473488877289088","-0.6472492986764238","-0.45736149776359963"
"-0.03504041130459291","0.04355835874499528","-0.002406281075129512","0.01737732333871818","0.2637260939793902","-0.5410953570284859","0.5675812941748986","-0.5533571044870443","-0.4141167374370081"
"-0.014850089888924858","0.03947827676455709","0.009412392932233917","0.12430221935059627","0.27265309199478766","-0.5647574721621494","0.6589189137183408","-0.47077102388770253","-0.33493273751926983"
"0.005632928604013727","0.035846920704574424","0.030192898277131387","0.18839246018464145","0.24434038783335282","-0.5008090892111714","0.7320057276483134","-0.39198443070251576","-0.24863933822811232"
"0.018765784307862673","0.04606374513420528","0.007271697103768261","0.20789776706909027","0.17681829801876608","-0.38740081842182766","0.7732163253617823","-0.32942481501528276","-0.17210624538708347"
"0.030019216673448187","0.05380634469687999","-0.015730255429317212","0.14958402383162417","0.08416180253187261","-0.27234226678213613","0.7973463981270724","-0.281878451679815","-0.12265587829707303"
"0.039466399970087905","0.04384296731491383","0.019427358307190407","0.04321944808661423","0.0204498416289515","-0.1769463260976182","0.8043123544680917","-0.24547988995879522","-0.10623234857213283"
"0.021760152433886883","0.0171375427433594","0.033300896262966784","-0.027437707765141952","0.021565118056612417","0.03313927991886641","0.8061235031167565","-0.2378809151304852","-0.09900037334744777"
"0.02563068615305644","-0.021685559115311087","-0.05131868076782182","-0.06406070252745348","0.06956508379302298","0.12059445745288716","0.7909655821186993","-0.25814484800597864","-0.09144643222010439"
"-0.013800616815816695","-0.22545802415513344","0.06666091451348122","-0.016346832379710068","0.1614006783900287","0.16482198424220879","0.7700119854449136","-0.29241939072116874","-0.07110210959934059"
"-0.052640748714150004","-0.10698191654597367","-0.12296227843453052","0.2283176860729974","0.04986585573277192","-0.14928956055267148","0.7755011590416366","-0.27889690947287393","-0.009510195855276918"
"0.058164351419409496","0.06186783050395248","-0.003558898309427297","0.22599745953837144","-0.07867812909484137","0.009354849851588768","0.7800986902267094","-0.27007101683374296","-0.0005196657510977955"
"-0.0344145787380605","0.013028480547225127","0.06009341262301902","0.04024070082597828","0.031798856264076095","0.2683188623950517","0.7650800883554723","-0.30253816449428295","0.014256444532829373"
"-0.0587835360594987","-0.013908681878157142","0.004293810004442019","0.05538571477460926","-0.0576482278719734","0.09010066497550424","0.7517890436568077","-0.3401240660322262","0.015305693819665043"
"0.03928731557412633","0.0921879916569542","-0.07088694504836564","-0.1265133062928685","0.0367051152269621","0.2904035031864711","0.7302224428250126","-0.3794909772955546","0.017758845189665556"
"-0.031487607965355185","0.02389543820281226","-0.039102714201128756","-0.11191802236551196","0.021782908088623452","0.37097603882110003","0.6967579885627566","-0.4488052372746188","-0.0016588039955284216"
"-0.0015054139317880232","0.0044573272693426485","-0.014051205417699046","0.011230167146358582","-0.0025045097558953023","0.3763151827486959","0.6415876143418855","-0.5110746143399372","-0.0003954555551484026"
"0.0035715324117893423","0.025724619559113596","-0.032268794781147817","0.028589505173678226","-0.024505132264298166","0.4273525449293058","0.5768042203704079","-0.5792674978252403","-0.0032964173684401654"
"-0.003941346844598715","0.015265773973311126","-0.020253157674635522","-0.10961705082287461","-0.05641089329450411","0.459241795478674","0.49393720373764477","-0.6535290070414854","-0.018973051573000447"
"0.0055626427926954835","0.0030278235974692666","-0.015655906351311984","-0.10260823373902529","-0.11729876367244693","0.4178634300398058","0.4029060862732069","-0.7218274318438486","-0.07765910046972173"
"0.006702620883117556","0.0012057990041122331","-0.04185363008732236","-0.11235125968525539","-0.09717352873639405","0.3987395872445987","0.3046303742141094","-0.7788988990439687","-0.13262047783264475"
"0.013133291209071148","-0.036375100705778714","-0.04583337101276912","-0.07214779916266423","-0.07387238860826814","0.34636743908208983","0.2053794282672693","-0.8290574099766679","-0.1821215096078451"
"-0.005549255130920394","0.003735096668065032","-0.03302674232636782","-0.05176927839153257","-0.03824098205244043","0.22592605960994033","0.12680344074057384","-0.8649942284355508","-0.21399613397101644"
"0.009181880665918954","0.013343315793729917","-0.023491473072196758","-0.03479022645598772","-0.04899885231496365","0.23259756263583176","0.06703553533463005","-0.8932661087429614","-0.23615294484583124"
"0.0009536266450177079","0.013332720876163606","-0.03798541277888346","-0.07152971391983025","-0.02828414831424792","0.22032481225317152","0.0017227286812352433","-0.918569639508063","-0.26346284450786234"
"0.0029620677739201243","0.0008707087681424369","-0.016994189755406165","-0.07891304059785778","-0.05724136737261212","0.1929471383226219","-0.06317212059169909","-0.9380552051702402","-0.3067402917281246"
"0.007007834611718744","0.013319113678112756","-0.047640466658729626","-0.052107203500932446","-0.020623204440980557","0.16750369062402395","-0.12018150728659918","-0.9567096329605708","-0.33709007250154877"
"-0.01147059402964994","0.015409116975678863","-0.08008144769501271","-0.15247866298949156","-0.017529389337896297","0.0932774556124238","-0.16024968816014107","-0.9607202030088454","-0.3887026776078888"
"-0.013868014169135565","-0.05064603918063621","-0.060310788702121323","-0.14029988055670395","-0.08088953557372267","-0.05596132469829526","-0.1695840696571067","-0.946551281193559","-0.46597449424587994"
"-0.019019097601363708","-0.08815100864796861","0.013823090027329328","-0.07690667043264597","-0.10081373355714997","-0.29651402747252487","-0.1144972869123278","-0.9163928498437035","-0.5224411030623475"
"-0.00474048689109394","-0.03587132276267472","-0.016236242210186158","-0.013640543255712758","-0.026392725651628993","-0.5668445920611188","0.009691782735360711","-0.8572237489670185","-0.558772585377545"
"-0.04301255538288245","0.03265078723873728","-0.042559946328372074","0.004418521180472501","0.21666669398562072","-0.6393598741322849","0.19459612785137193","-0.786365947225954","-0.5304657354585517"
"-0.06737188451098935","0.04005164877402804","-0.033838386427924944","-0.046737948984912174","0.21596067135437616","-0.6163772864075879","0.3769927286846159","-0.6950727079691735","-0.49727219493575997"
"-0.028859111185919144","0.029235484399714684","0.005764063021995492","0.035656087233493325","0.28880784711648544","-0.5579864669085165","0.5309682276465021","-0.6038190467062907","-0.4513797962218262"
"-0.006415792530734472","0.03407175265351311","0.014934815268724234","0.13107997653058243","0.28215448130340104","-0.5615297169695574","0.6568291268160352","-0.5204677915582648","-0.35962768568762954"
"0.010252535764355907","0.043463835460825245","0.0094178451979543","0.20519244069469236","0.28184335268624244","-0.4774624689459566","0.761318471931322","-0.44421418998251483","-0.259899973097735"
"0.01963424734634301","0.05135497161290999","-0.00408574413718104","0.20583748292631035","0.21358891397280538","-0.3498326602403802","0.8166838929297413","-0.38240655617933333","-0.1648660984389807"
"0.034057280956581795","0.048947224660095406","0.00043550590640381733","0.13274553333759606","0.09300742844739782","-0.2919757551340683","0.8524889085225796","-0.33017679689933427","-0.10424498543694255"
"0.027348355843354568","0.048441369282174476","-0.001661757668993781","0.07289909273783769","0.09321085869707846","-0.1501656655335179","0.8739997817036468","-0.28807900405708187","-0.0738004126718728"
"0.013321040979030873","0.01843490078652826","0.025595233903374478","-0.002435293217868608","0.1062064617060887","0.057357151397720685","0.8726623180861707","-0.28429270930755934","-0.04247165943300542"
"0.02139909518396435","-0.015512461556822255","-0.019809128458770937","-0.06154022407614612","0.0857341986970512","0.19800233686861382","0.8649719022856862","-0.31329018616975635","-0.021565122241102255"
"-0.020906223494292143","-0.1961765804105936","0.03076435355168827","-0.041998332706919016","0.1815881390495133","0.22772438036009876","0.8450771309757352","-0.3576175393348983","-0.003788355118187098"
"-0.03360581049823405","-0.11501120211338385","-0.11120686310103656","0.18404083199521853","0.10338476447816547","-0.06281241711084216","0.8329285031169982","-0.35497900640840174","0.06249249352296616"
"0.036901449266638235","0.07129419098574387","-0.007673293676150186","0.23714609989976912","-0.06062070281436581","0.1694427706231827","0.8307551247385999","-0.35619273155459014","0.08611531157892054"
"-0.06037218795915784","-0.14170623951085365","-0.036409625375605895","0.17691648495943765","-0.007481131652200255","0.20111117476463672","0.8005228742185769","-0.3957179547935083","0.1081381061896847"
"0.014250161635498198","0.11580219322092612","-0.01288433794345026","0.053645063498840094","-0.0769549552151936","0.09495443218240959","0.792442364862995","-0.4024330210914421","0.11899015488842114"
"0.02773059511860589","0.08560148456989754","-0.08723341594868271","-0.21323779020950945","0.08259419296080416","0.303896976021668","0.7612348804552292","-0.4521693667559019","0.10719018627322878"
"-0.038304368843892614","-0.01448828619207886","0.010587521415149952","-0.09051706151978578","-0.01860062909974399","0.3465373209343316","0.7144236538435811","-0.5221828379604877","0.07885882118398228"
"0.0074622853369545735","0.02228646493710484","-0.029986691136820537","0.07467729124798463","-0.05108102075287136","0.36580677674574585","0.6588631860676128","-0.5804416449775313","0.07785533354828587"
"0.005099526693461499","0.0397202979207287","-0.053121645909448706","-0.03176045346658198","0.005574064453481137","0.414926900879628","0.5826834875222279","-0.6468271334081843","0.08185457498891964"
"-0.00581884454419589","0.004599621167127838","0.005695496650057333","-0.13452338296012484","-0.09730276677736766","0.42118826057653597","0.49368642930936796","-0.7221836337889256","0.043751463036759676"
"0.010734908250252416","-0.0022212413416259815","-0.04604402673378393","-0.09671620619051459","-0.08603751753917037","0.3705634686085131","0.40329617982830407","-0.7862999839027915","-0.01783881636262046"
"0.0010864957129891983","0.005802227408296811","-0.0361679908720889","-0.11429601387610368","-0.08459196611791031","0.3729903522119658","0.31519076402709456","-0.8376194493231494","-0.06732023600161828"
"0.011874886340674488","-0.012167791501575063","-0.0411204655681041","-0.06907566519088357","-0.06085285262870724","0.3415864783832881","0.2131534355438465","-0.8883056668411478","-0.11837879826023666"
"-0.0036621292379919565","0.011326853688682905","-0.031374540592918214","-0.06444580236722543","-0.06340410728940796","0.2503841925655364","0.12716567047030705","-0.9247569992206975","-0.1562351241651814"
"0.0047654283848665244","0.005080734296379202","-0.03356990364623937","-0.042222653363586174","-0.048496259933399705","0.22699388839545953","0.05034510394154846","-0.9537412834182621","-0.18758675822961843"
"0.0010797559776573097","0.004347181675349352","-0.04713034937352705","-0.08131702634763413","-0.02187322349284171","0.2019945603962935","-0.014438290029929144","-0.9758785746715681","-0.22168736005177755"
"0.003240322561193741","-0.0034586653903265967","-0.02688261713010208","-0.0869500742538982","-0.03577827938277716","0.1758012056642287","-0.07300805094521814","-0.992712414742616","-0.2672872110673568"
"-0.002737822678190271","0.009797861663427047","-0.047084913825857194","-0.09765007330196156","0.004348935690992679","0.12570304743815502","-0.12408244283756976","-1.0025937205523456","-0.3074920902825552"
"-0.018008137301580608","-0.018240133471443095","-0.07664073758510391","-0.16729537932471697","-0.024890692419869354","0.019671046673145415","-0.14943852391887943","-0.9973826180225149","-0.37855339712307656"
"-0.014397564802355278","-0.07302105087631314","-0.04301636705723753","-0.12111228104006702","-0.08452256050331337","-0.1704398511567616","-0.125196995852133","-0.9696912149589336","-0.45397840426866215"
"-0.012029029242863455","-0.09066574349385474","0.011902983782800863","-0.07043025387728137","-0.12329397279538813","-0.4552807528103991","-0.03706371622555953","-0.9209970898004399","-0.5054929486939895"
"-0.009612352716715306","-0.006072493876980022","-0.04803699507475753","0.028448943732161464","0.1039304362067206","-0.6353555161865879","0.12638548336011274","-0.8493873061753239","-0.5036297957547485"
"-0.06065140556576459","0.050335989835208914","-0.03261369189300541","-0.050759354061730655","0.2784448708680482","-0.662124042332671","0.3322712889752733","-0.7595980306866464","-0.46063018713068893"
"-0.051485365514397884","0.049233910664830884","-0.005748891707114754","-0.052432612865539734","0.22469859890242333","-0.6098975071863694","0.500011517667013","-0.6551648974559134","-0.4290873347382771"
"-0.023149592540477472","0.03047779042023507","0.03282382301243321","0.040646018407338246","0.33497454730871523","-0.6082714951720559","0.6506433575852103","-0.5538320404138136","-0.36028142356104736"
"0.006371411032521954","0.045145518945124995","0.03520712401293427","0.16370756045526005","0.267794698973003","-0.560219199823693","0.7661946413700351","-0.46011135086465654","-0.268758121282547"
"0.01473060848272844","0.05083145803904522","-0.0008720052404048686","0.23450816599733132","0.23950592778211882","-0.4090486201646255","0.8401452338862939","-0.382617638813453","-0.16702179907657608"
"0.034957517033055316","0.0719111891263702","-0.00033442010138370177","0.18959589718392877","0.09103056507991301","-0.3307816239532767","0.8782072193336223","-0.31968862851651053","-0.09749841058327023"
"0.04460304111231914","0.05694534870525173","0.01042649370370362","0.03581975466539641","0.030236033287117776","-0.21861349068529728","0.9021701091467281","-0.2683295851022553","-0.07242592879301175"
"0.01788865589538419","0.03580848816046134","0.01705934017272375","-0.043612863785162874","0.04374140856885716","0.04307251450779822","0.9079100571717275","-0.25675961821956794","-0.05935607435870519"
"0.03144804056380829","-0.02223400190697895","-0.10927791757723414","-0.07989023144127909","0.09714304575855247","0.24065724308289813","0.8906902130967284","-0.2893718851910652","-0.050473411003640015"
"-0.028926508539237998","-0.3571466171999281","0.07327385195161329","0.1235416471670467","0.1374294150864842","0.1291880522927131","0.8726623180861707","-0.33532193610600247","-0.02113038655527938"
"-0.03220972246520026","-0.047977574158297696","-0.11357364208420313","0.19318695318980214","-0.11256721539458078","-0.05453189025586163","0.8792103170467288","-0.31501842523661155","0.03859020252612566"
"0.03957327291606498","0.07532753068280126","-0.014959916371096333","0.17278628917788358","0.004328831995730119","0.19790283464087224","0.8677582848220938","-0.3254670156255379","0.036447576645998625"
"-0.08119797013468955","-0.14137384994014587","0.01251867675877086","0.1357685670798058","0.007325000578967677","0.11895388413695314","0.8462474116410265","-0.35528243769494877","0.06513522887625788"
"0.02784324498058172","0.13402129656534711","0.0003578524249316848","-0.0350347648542429","0.01666675697400813","0.1892582752453738","0.8458294542605653","-0.36640385398013176","0.06538364926815665"
"-0.005895870090846039","0.07129938457278617","-0.06507739070312345","-0.19579276746784055","0.03842589580955481","0.3708304258048929","0.8117798596656639","-0.4248209729727653","0.052643932459926095"
"-0.015100422915537813","-0.021632584527479532","-0.008821780406114347","-0.029922564481270397","-0.013736492165027158","0.3652485935169517","0.7632968035321708","-0.49614051797596675","0.03429187600840324"
"0.005728247717993276","0.018402700546865946","-0.022818200865816044","0.07612622939512655","-0.037946606514667275","0.3887408267983737","0.7031388045711301","-0.560731804016602","0.04245379335802521"
"0.0006936654250734742","0.031957962727293225","-0.03881977465427551","-0.03649525599657799","-0.003938334021585548","0.4336139046262137","0.6325875987492887","-0.6305473852517006","0.04620461440676018"
"0.00015352377918937491","0.0024287848808352275","-0.012460961249253798","-0.13595787986327532","-0.10387715378763487","0.41626168686152704","0.5450673232807248","-0.7020516275597569","0.0030530117271308096"
"0.005252614967428673","-0.0051581109423110465","-0.03700235274748095","-0.09581122156705053","-0.07603832244310318","0.36454479727195044","0.45501143970402963","-0.7639252246861009","-0.05532904905845117"
"0.006490800629829667","-0.0006086325649889443","-0.024280399399918946","-0.08858867407212778","-0.090642221073118","0.371849716918343","0.36913512993194625","-0.8175138284232455","-0.10233116781251175"
"0.010749350540249317","0.002167859067829608","-0.026888812886602515","-0.049261315685017806","-0.07917354158524009","0.3494738500945093","0.26743216735306746","-0.868252816599774","-0.144708091112141"
"-0.001620952251763238","0.022323858763809466","-0.024761603154786142","-0.05288221692847348","-0.07725411734707689","0.2932186881664762","0.17765492203001323","-0.9101527194725393","-0.1757884239591096"
"0.004238766209646185","-0.005138271439809424","-0.04537075452740322","-0.05801656054223287","-0.0673841602919833","0.2541943998229571","0.09740710498147338","-0.9396119395968731","-0.21673529566063726"
"-0.003257745118078721","-0.006501588038415615","-0.042564076832705695","-0.0714796509406599","-0.04177588180277342","0.20888448294649561","0.02613143970016583","-0.964915470361975","-0.2502409960179861"
"0.0071301126670258305","-0.00533531613219464","-0.029837992980810073","-0.07505530295294238","-0.04759638024069476","0.15979833518306172","-0.029373300425074182","-0.9768812171836366","-0.29371456460027373"
"-0.013473258242553592","0.015600240978835845","-0.050837477012954616","-0.12014953144063717","-0.033315576713113894","0.11494709930765276","-0.0735095998017711","-0.9847440453045965","-0.3433822995331957"
"-0.011480222222981219","-0.04116774282842174","-0.0742140662890998","-0.14987923907103096","-0.054972521764409234","-0.042154783878252965","-0.09053439709922194","-0.9692294716967969","-0.41951007489270553"
"-0.015360384135482047","-0.09121522500293108","-0.019078029191719487","-0.06870019284710593","-0.0763781706249226","-0.290301205447686","-0.04141047298235516","-0.9299153310919983","-0.47414621766360315"
"0.0008833408336994476","-0.03831126995515162","-0.012805858361111403","-0.018165466373033057","-0.017177096011390534","-0.5310237900741572","0.0820262733805033","-0.8697172023739798","-0.5072416975053823"
"-0.03981599519690162","0.04176864865021549","-0.03036050177901351","-0.009408296016619133","0.2362271108166779","-0.6189740518632824","0.26046621101204853","-0.7865374518661763","-0.48369079061550385"
"-0.06621650131123723","0.03457345316180018","-0.010527885221117752","-0.06577054581604089","0.21849038634158124","-0.5872789520021903","0.4300733160031815","-0.6858906133849656","-0.45593961788891574"
"-0.03152612073868025","0.026962770710000136","0.026330050624326196","-0.02202512951714733","0.27370614269901683","-0.5364114716738222","0.5674419750480779","-0.5879878491473114","-0.42871143546106183"
"-0.00633876698408434","0.033263630509729775","0.03313980659395544","0.10834945848804364","0.2989793596005174","-0.5037456183713491","0.6868663305585097","-0.5017737857740369","-0.3553783895104134"
"0.012841556951133754","0.038092627741668966","0.011951517208720945","0.21828583524693834","0.2983331693956495","-0.4524170301583249","0.7771729885634814","-0.42902943299052715","-0.25994900343824134"
"0.01645116663102596","0.04766336994323655","-0.013479130567492118","0.21959517470216294","0.23047362469629842","-0.34978412256831115","0.835185472971488","-0.3701901487296543","-0.15937796899163775"
"0.03405439249858242","0.04786488112047815","-0.002347627913592052","0.1520775452941475","0.0871988964947518","-0.33383949729362705","0.8660864553002492","-0.3092664234568491","-0.10620619905719612"
"0.03303958092146682","0.043050425932257434","0.0031442906483944533","0.05388478814909814","0.10874335658445902","-0.23077945818940554","0.8904115748430876","-0.25690473753052523","-0.07507847021440472"
"0.015067595249322807","0.03124851873731377","0.014464144299907776","-0.015517904974600967","0.122234372083868","0.007465763654661201","0.9009998284814367","-0.2390154842888787","-0.04276420713135991"
"0.029980703900123112","-0.014305471928189572","-0.024736820128784403","-0.040744832728461355","0.09668353272397971","0.18116704531146255","0.8924734979200292","-0.2617860234445438","-0.018330754112367398"
"-0.010267069863241496","-0.17014632215453937","0.02295790688635554","-0.02877785520754831","0.17591841832606114","0.20989892029273882","0.8790431340945448","-0.305928679304831","0.0036838687749790404"
"-0.03798663846396079","-0.1438356101982005","-0.12262770758350698","0.22289740582820733","0.11089253733990861","-0.061390263319218895","0.875225790019666","-0.3068521658291048","0.061745598002586256"
"0.04469547176829932","0.03545116937195046","-0.033194027751879594","0.27592565376480355","-0.07535623278240929","0.1029704287246138","0.8783465384604426","-0.2982241631594611","0.07374985970322172"
"-0.07119427726350255","-0.10279588538987235","-0.024249420617416764","0.10935071807145068","0.09546055792884083","0.16477830033734664","0.8640523960486712","-0.3250448503572985","0.10163831738322761"
"0.004200253436321119","0.137293256402002","0.01895875259054076","0.12843241513215034","-0.07143361890915555","0.07684502673344572","0.8644424896037683","-0.3281715118751969","0.10106629674398698"
"0.016802595687617213","0.10378838767465623","-0.0725659950599838","-0.23218470232628893","0.041601801001627844","0.34005754171311287","0.8400337785848379","-0.3792667019968024","0.09007369440246567"
"-0.04046108415009655","0.0029846441147995074","-0.035682656612888074","-0.13687249198273369","-0.005583725746943659","0.38357156472301945","0.7955073856530435","-0.4582511851514764","0.05419165687524288"
"0.0064397712051739485","0.013517924190092352","-0.02667609191342088","0.018712657033127383","-0.06040530607940983","0.3968466180339056","0.7421481600808372","-0.5252699214844886","0.03933546370182203"
"0.003367414713166484","0.032078453946674794","-0.026996205999276743","-0.04475853580848439","-0.03927009978611896","0.47356040873904476","0.6702594906415199","-0.6017873763528883","0.031072216981820274"
"8.420078720423909e-05","0.004370002296813259","-0.013070210638463343","-0.1398570157409662","-0.09863822653409467","0.46526046681523664","0.5763305353392186","-0.6851122461716491","-0.015614473248316187"
"0.006106635715912098","-0.00808355465150303","-0.05241532966839899","-0.12196912818355958","-0.08834944249436447","0.4146842125192828","0.48527155404941685","-0.7557721579432265","-0.08400362653124205"
"0.013293119218370193","-0.027827495151546068","-0.04905309914082904","-0.10168399412357264","-0.0757463402023851","0.3952448748556268","0.37657477130415484","-0.8144135522346121","-0.14537980677707785"
"0.0003441620071484728","-0.009622933850843505","-0.03908619218379426","-0.06652630425159332","-0.04302039627140792","0.27465302860006324","0.294153575877217","-0.8574348316011383","-0.18322632661392127"
"0.006315567511200596","0.02134538696503839","-0.016948754207736304","-0.043297081916549886","-0.06052975752627327","0.26023733999555426","0.22839494801799654","-0.8891368047129942","-0.21560106045025726"
"-0.00012954510474989838","0.0118036249791669","-0.04392714326280162","-0.04232855581952346","-0.03249946241733627","0.2532721840536451","0.14572297816278162","-0.9228704481782525","-0.24152993885469312"
"-0.004470897477818427","0.0012527490309747096","-0.032568256345335556","-0.0832964395240619","-0.043862836834791266","0.2071880913076822","0.08102317566739647","-0.9474483823885679","-0.2727459223103959"
"0.008004352621504939","-0.005353909173806107","-0.017803768604796474","-0.08266872678523363","-0.04320468014464802","0.1697388504228039","0.021394589388272746","-0.9611027902831876","-0.3260092155471161"
"-0.011730555249594174","0.019777962395669448","-0.048592547907629964","-0.12151663587182757","0.002763376392011225","0.1186893538241768","-0.01755903847070604","-0.969400976337019","-0.3663121554433271"
