"AccX","AccY","AccZ","GyroX","GyroY","GyroZ","MagX","MagY","MagZ"
"-0.0003124807780439831","-0.003933670861216205","-0.026339455810230523","0.12495688907820855","0.07116141292875224","-0.3439353330839902","0.390841049890562","0.5631117180307026","0.3170073567466909"
"0.002963030593253249","0.0007741080491554842","-0.035662004091219945","0.1641985627509693","0.06509440489415906","-0.34954143420796585","0.29705141371508076","0.6327557946255788","0.2783551049808599"
"0.004889632078839877","-0.011675439449964142","-0.03896021180161873","0.13362163547307723","0.030812817877388758","-0.3661170492195477","0.20398623699906562","0.6985608058124025","0.2320050897555337"
"0.003999987015030759","0.009966757114042947","-0.03346664103789878","0.10383416286671765","-0.007622575508154677","-0.3658743608592024","0.09651546256982298","0.7583499619268143","0.18591656967957457"
"0.008728392760016248","0.01303294703208151","-0.03714278989482416","0.0518909337286789","-0.020103619650325654","-0.2787977771673203","0.0031995114255310678","0.8030203243724007","0.15357288839222594"
"0.0010008047923409115","-0.009675908438675062","-0.034482745103970286","0.04007703339407521","-0.024190174371851437","-0.27270629932265406","-0.08033623701597","0.8402104459713695","0.13141117448336048"
"-0.007080137870591941","-0.005484164336827224","-0.043828011158794644","0.06301261710129255","-0.021206929592711237","-0.25210205752934084","-0.1641784875364759","0.8710021252235841","0.10687966078335531"
"-0.002660797131540139","0.004796447728857276","-0.03343359700322979","0.08261131069688603","-0.03055012196598474","-0.19773015727758697","-0.24094332641450641","0.8978228124214215","0.06689214941106839"
"-0.008379943970313058","-0.002634339254971263","-0.030874749568549704","0.09159761545796426","-0.02964401970093662","-0.15620860570611508","-0.3005719126936299","0.9177701213457354","0.015371067607006827"
"-0.025238910493362535","0.02704379066786016","-0.06358627863868517","0.11099701988647574","-0.04377907143786394","-0.06815398792204151","-0.33180726092675933","0.9317015751976372","-0.04007407578224541"
"-0.028926508539237998","0.08520781067209049","-0.019088355452553545","0.07494782388542441","-0.1293968802858073","0.15146684377240868","-0.3199651351470269","0.9296435195149698","-0.09728921446377652"
"-0.024738244440136625","0.06561344547886595","0.045907195489187314","0.06775608437768343","-0.216000727520438","0.4773706159964655","-0.2061971361855032","0.8968465552386177","-0.15224405444796538"
"-0.01668907481519695","-0.012996687993527626","-0.04732448307720739","-0.06899094322613374","-0.054247352756724126","0.6864223695978793","-0.015274204790851653","0.8294980022897935","-0.16459970025556292"
"-0.0530258764474007","-0.05566927656795777","-0.056390940089512114","-0.021405118775114508","0.061231623447281974","0.6506501052829868","0.19651873180149312","0.7432707462518866","-0.12951358858922637"
"-0.047133422128664955","-0.04822375018410315","-0.028417099490043406","-0.0018764170753995794","0.11398467713505432","0.6369382129234791","0.3618069438611941","0.6547875445618251","-0.11696182141960346"
"-0.019336827981295532","-0.0254436386991261","-0.0240139818704002","-0.14428566389834352","0.07875534448447775","0.6950135375541017","0.5269001091433468","0.5515021731541179","-0.07516835917199968"
"0.019390654055061934","-0.03360484137741093","-0.02836959869020673","-0.23049989052728667","0.09874894808250197","0.6440975195536646","0.6599220114314479","0.44081571688758786","0.004628520002067852"
"0.023436420892860563","-0.0347796307663813","-0.017037560050909218","-0.23831741727465705","0.08517656048322074","0.5249132657881035","0.7543246517649385","0.33024799460275023","0.0880830625779083"
"0.02021675304288469","-0.05310260585164852","-0.016050369515173076","-0.178617314614012","0.04403578410663031","0.3318304062974083","0.8015816995824123","0.23929776462641444","0.1446330229732367"
"0.033921523430610924","-0.0607610693042378","-0.014049140165532235","-0.09519313632421655","0.08732813453572538","0.17149591415170365","0.8291947505182116","0.18713396866957785","0.17452518723526841"
"0.043736503712505065","-0.04960939920699128","0.0006052696345157649","-0.036998774037079796","0.12441466570103343","-0.029260751293108882","0.8285260187094737","0.16970645869006817","0.21170652878590918"
"0.03509520019769244","-0.029728348009031274","0.012741310942353196","0.05805349391462939","0.14036359727599554","-0.18085118181557358","0.8059563201645719","0.1952342647539222","0.24194190543148517"
"-0.00904428931017051","0.13703357704988656","-0.02330146987285005","0.0933989199584975","0.4338895145946072","-0.12655936872273368","0.7627673908502536","0.23971992989465393","0.28848804201883677"
"-0.06284663364529361","0.2768449402288529","0.06596698978543239","-0.18087014867667786","0.021519645412566155","0.16525882329083025","0.7271852858603282","0.21796522591568993","0.3747650978631588"
"0.056457272741775755","-0.061811212604192756","-0.062041470017909786","-0.12924751515524927","-0.19236691910165787","-0.10529016082207442","0.7590336382514673","0.1987303208815301","0.3535839907644202"
"-0.033365105664952356","-0.0004374519360744292","0.022279265024341115","-0.05907558510160571","0.07007246276869705","-0.331072849985691","0.7350707484383617","0.24694951011325444","0.36329199818467545"
"-0.06845987035742258","0.002283156700168875","0.02788848990940254","0.01387772854479067","-0.16726123299401194","-0.15880051739460255","0.705228591473436","0.27283351812218554","0.3830185385150593"
"0.051738495190121525","-0.08310803562988626","-0.13223939116785008","0.07892205423187083","0.046644477896652624","-0.2379678874228324","0.6867827390824172","0.31610545811672885","0.35918979302897835"
"-0.019240546047982858","-0.05732603083445444","-0.014643932789574094","0.08926679867774458","0.10367674671888358","-0.4176155192848135","0.6224451663167649","0.3943511520519838","0.3554634871504965"
"-0.007349727283867437","-0.0032869654027078503","-0.014712086111078892","0.018031993066330475","0.031956813869710485","-0.3964773630987407","0.5402468814927396","0.4721087173958369","0.35982718745556075"
"0.01398923759622084","-0.025138255781038316","-0.0645714039222545","0.04665742690617824","0.0669755363794412","-0.3835178046563034","0.46401145529662646","0.5345232137721126","0.3601213694985988"
"0.0016093066108770222","-0.012206224045688153","-0.015546447986470945","0.13010759943515826","0.08413786956132195","-0.424410793374481","0.3571536850253935","0.6097741728357938","0.3464255610504946"
"0.002240916093408172","0.0023986620759898335","-0.031667806400605514","0.15405118197297868","0.06341909695561262","-0.4054325635954811","0.24249404365221905","0.6916346568803492","0.30651486387833426"
"0.002331421110722082","0.039515670591261716","-0.0481691712134335","0.14454884342660604","0.018393999458649512","-0.3670392649888597","0.13647218814190828","0.7611468068289006","0.2527122368960444"
"-0.0017172341850759116","0.01478796396541867","-0.04100687669892943","0.08563434443909576","0.034500888639246004","-0.23663067455732997","0.03802929313062644","0.8092472620789325","0.2036818963897049"
"0.009860668295773306","-0.025856009510285455","-0.027867742413671414","0.03550878654478056","-0.02048295723355367","-0.2552084685417602","-0.032103955310753926","0.8452104658670805","0.17973874677577578"
"-0.003729526591310843","-0.011889415236107285","-0.028795040636570006","0.03779724234262532","-0.016126438604216406","-0.28593281496147116","-0.11845395011402658","0.8809625870211086","0.16587950385931718"
"-0.007802252370437018","0.008533534833847271","-0.0428057113362227","0.08460420236770583","-0.02209580011896288","-0.23919831740978287","-0.20825905926244476","0.9135484686633408","0.12873084920234729"
"-0.0046442049577812665","-5.395746887031089e-05","-0.027774806066164875","0.07147422333068151","-0.03892307171313434","-0.20680427507089652","-0.2832963409679025","0.9401053025685286","0.08578353960816097"
"-0.01436868022236149","0.0005389424278797186","-0.03315272270854335","0.10819541855213487","-0.0241348892098794","-0.13558980261118111","-0.343677250531856","0.9602241161330648","0.03982413276220188"
"-0.02336141279376536","0.07213866823882337","-0.05399524757601019","0.1370297690550589","-0.07349424767356766","0.05327998694392019","-0.3571076143573408","0.9706331285280936","-0.03723521906692836"
"-0.033249567344977145","0.09601254915491075","0.020525659409501035","0.10380528037873475","-0.14193536355729988","0.34804198876847225","-0.28095577963731994","0.9507517829269421","-0.11280895157871651"
"-0.006184715890784059","0.035299516630315025","-0.023733107575713765","0.008078221232785192","-0.12479217675185968","0.5979381934159945","-0.10736414761912391","0.8974006471531821","-0.16884409339872836"
"-0.03896871418375008","-0.057220081658791326","-0.030835509777380275","-0.04885022160606126","0.008107848045679876","0.7085070103892986","0.11654955300659368","0.8166879249316529","-0.14997394968252187"
"-0.05408497771384014","-0.03968237693432128","-0.02904493614875426","0.05178888227113934","0.13367911860119525","0.5962393748935777","0.3041009615321922","0.7300912742840363","-0.14260959253846964"
"-0.039565662170288646","-0.03373675848828559","-0.01138703012251155","-0.0524605326039232","0.11599026006719992","0.680282354081144","0.4731507900160437","0.6367795573384861","-0.12263953485023756"
"-0.00028744747538267737","-0.03752288344212907","-0.020377072804644243","-0.19741981429087702","0.09994081001592502","0.6488056737443627","0.6358755301422498","0.5283622393887432","-0.05104870033224774"
"0.02678221807547604","-0.044563310036683554","-0.025393570317830624","-0.2277656816649059","0.12873696018248323","0.5804403626351008","0.7577519022847198","0.4184013796769998","0.03466450659625141"
"0.03321288840142963","-0.03581107715298393","-0.02529030770949002","-0.2126793954418401","0.07986104772391839","0.43108994567862285","0.8315353118487945","0.3192716976285247","0.10913505644664691"
"0.02826399702915811","-0.053052747416042344","-0.02376202110604913","-0.12185359823162802","0.03950048618727958","0.26113528692883176","0.872801637212991","0.2498782816616656","0.15020613834412397"
"0.033363088217397405","-0.05994775357341217","0.005759106416795143","-0.08462984771927225","0.1283420661683973","0.08785822452591396","0.8912474896040101","0.21012878312399522","0.1869135199365368"
"0.042881520144688504","-0.06142273229342801","0.02259772690846353","-0.03841979244583826","0.1429268184219716","-0.11140590750277517","0.885730452181923","0.21073564569708936","0.2346363846960406"
"0.02602255362163903","0.04070292458913362","-0.08279105853787005","0.12260778005559975","0.2204983625707819","-0.20054048849038514","0.8485601091462448","0.25139543809440107","0.26098202099478035"
"-0.0843271329673515","0.3010886045423527","0.12604104481366024","-0.12994069486683874","0.34217837144446495","-0.012176218789883057","0.797903674634354","0.2756039776950069","0.35098538271758417"
"0.00830956635010611","0.03267156158690652","-0.003888719080467174","-0.13228980388944758","-0.18450254497870985","-0.025690805512429995","0.8230647089381149","0.23990462719950872","0.37004184172771476"
"-0.010190044316591363","-0.07022897848236766","-0.009886830948539304","-0.0839703642436628","-0.06121663378107731","-0.34864348727468836","0.8138696465679695","0.2685722874458936","0.36154324937328264"
"-0.08482779902057741","0.0267404851845893","0.03363753236615714","-0.016506648813215424","-0.13916871216164317","-0.19402187913151128","0.7926652754659079","0.30151437103320294","0.3761052605036655"
"0.04945083645461236","-0.0900902940495669","-0.15091753176449793","0.12301213488736028","0.056634099804499544","-0.2332184762108755","0.7787333627838697","0.3478074312285847","0.34122834495682264"
"-0.014166488162404848","-0.055388822867673076","-0.03627744923692992","0.13894564075792432","0.09649446225662948","-0.41938714431533397","0.7203586486461292","0.43246476017522634","0.3208970970935272"
"-0.0057803317708708234","-0.0023384086653004802","-0.01805572936914754","0.009572312336140379","0.058922091789142955","-0.40528695057927394","0.6315009095600896","0.5131510970674905","0.32529348429226235"
"0.01674193806963023","-0.02917782778254649","-0.06444335828791216","0.039870042230197786","0.07663727659074403","-0.40832055508358983","0.5426153066486862","0.5821487330953752","0.32908516395808585"
"-0.003286629698072525","-0.01207119078258811","-0.01544731588246397","0.13787698870255716","0.09112151036800553","-0.4309876479398378","0.4285686694335214","0.6610804455915192","0.3130358991656775"
"0.004856896221513575","-0.004358402409536259","-0.03618864339375701","0.154513301780705","0.07011554211568825","-0.4156982812380859","0.30903285862163354","0.74057944266686","0.2684836630922503"
"0.004157889385663538","0.017179091439697876","-0.054705694321393515","0.14905451155193775","0.028869460668674893","-0.38441575158958086","0.1899985966662992","0.8106456845299758","0.21561261257958084"
"-0.005327806684301243","0.02005945481336261","-0.03606059775941466","0.09504425902392312","0.035561119234640386","-0.25821780421004153","0.09233588876521136","0.8637593523403512","0.16380388611121544"
"0.007662551758244934","-0.01675684501215956","-0.024883453032628053","0.033115391040597957","-0.022143187400653196","-0.27872497065921675","0.009970420989001444","0.9019257311221236","0.1367227947048806"
"-0.0007168648979572185","-0.010780065043870019","-0.03176487325244568","0.049117252132721514","-0.02042647542305411","-0.3086727143258228","-0.09086876300359088","0.9385485681418956","0.11966023620867448"
"-0.007580803923817867","0.006058686736446044","-0.05100269718629958","0.07875164755277175","-0.011144072794979292","-0.26227069982780754","-0.1910392151874455","0.975210983155565","0.07899283744803295"
"-0.0074556374105113725","0.0031851788976771543","-0.01783061688296503","0.07531366873320776","-0.043956175419938855","-0.2183805098593658","-0.2715378066642623","1.0025066062801717","0.029449312711060445"
"-0.008861353636876443","0.010122564725312226","-0.0225538485884641","0.10044528427672458","-0.01364458955811261","-0.15302938818559206","-0.3328660862905944","1.0250264848078197","-0.01740081198743049"
"-0.020617377694354105","0.08299014900502441","-0.05947849207889608","0.13592260701571457","-0.06950462148277207","0.07969418808389915","-0.3364605197625604","1.028614889587855","-0.09502891576643425"
"-0.028541380805987303","0.10072728747191914","0.010646505017034104","0.12085557578463742","-0.19594250490192697","0.41150499499875975","-0.22547890333744403","0.9988654308416066","-0.1885085286311376"
"-0.024150924646929306","0.01499466872970258","-0.03685985034797091","-0.05447460476593044","-0.059668170586449396","0.6800882033928678","-0.011289677763788919","0.9326382543865432","-0.22513746167874027"
"-0.053757619140577036","-0.06783057998622923","-0.054073727158349044","-0.06535271248988835","0.015904252532263994","0.704235695247222","0.24959931912005867","0.8381391976240696","-0.1794346469480977"
"-0.05918792017941195","-0.05420780117425193","-0.0228801584308204","0.01556831684138949","0.07995199301201092","0.646330252468841","0.45542939708449104","0.736120322021081","-0.1708772181850579"
"-0.03352878495158392","-0.03455422908874507","-0.017787246587461978","-0.09534139976252877","0.1272626891965624","0.7623595575499137","0.6480798856517151","0.613982632853556","-0.12891214974568194"
"0.009696989009141763","-0.04986803984169828","-0.019765758163267883","-0.2071628402371071","0.13209236265368626","0.6729531655987169","0.8094950259858098","0.4842327761930885","-0.04204836415996735"
"0.026075508684961","-0.04760051973902604","-0.02774176203149588","-0.2133340651694524","0.12173417299935912","0.5645200061964513","0.9101948908515818","0.3618576190621788","0.0435471699513166"
"0.03111971917121207","-0.05029910756620996","-0.03046376438735411","-0.18682956869714865","0.052797644625228186","0.3742766005217957","0.9670928222450261","0.2611448172578058","0.10683063044284899"
"0.03510290275235745","-0.07000046065250605","-0.026374565097066326","-0.12163216582375914","0.01663205416670967","0.21890751222875518","0.9909163929313113","0.19258253916279322","0.13517016725551317"
"0.04965687979190148","-0.09712656577448751","0.010260633302186947","-0.12012064895265429","0.12669069120040152","-0.04511800875806869","0.9992755405405342","0.16429746619075028","0.17027589105805227"
"0.03275362357952817","-0.04784461833001458","0.028020252997645146","-0.015985801279923877","0.0835227922181699","-0.2023266748225263","0.9875727338876222","0.18738462929759497","0.20059298493780556"
"-0.02126246664754905","0.13295141763463142","-0.03497634037183836","0.1327262783456075","0.3723339143383008","-0.22336775566446104","0.9457491320161436","0.24247719680284288","0.23878762019224398"
"-0.05257335136083111","0.23697896609208674","0.07703261089521116","-0.13986664323696052","-0.025514624962125153","0.1606720132803047","0.9259100883569209","0.21461428909903935","0.32722201101884496"
"0.07797917329515812","-0.1286184001642342","-0.14464742618605667","-0.0798132114733247","-0.12125727700152666","-0.16148222377641774","0.9422940176709981","0.20369076278334364","0.2924758430466857"
"-0.058331010972929115","0.08307116896288444","0.0479848391690002","-0.07810818193273443","0.09751879339619787","-0.20366874145523567","0.915349698543936","0.25305771383809395","0.30404700340618185"
"-0.024545680573511263","-0.05933906517205352","-0.06863788543870736","0.05142785117135316","-0.07064622417803872","-0.14393585532345488","0.8929193191258545","0.2822003100112483","0.30463536749225795"
"0.03587893513485762","-0.07390292195609727","-0.05856358536899836","0.1861973910979414","0.0564019499901581","-0.29624707027614505","0.860318643449885","0.3333878487852812","0.29111933695934367"
"-0.021734248120781157","-0.004358610153017951","-0.015949172158999287","0.08628612591790977","0.06603257733974506","-0.40778664069083015","0.7926931392912715","0.4241269961274972","0.26794432934668055"
"0.0034107415831571898","-0.005120717115606419","-0.04709524008669125","0.02431585970180912","0.03855034725641825","-0.3643454241890272","0.7158168451117848","0.4931774028139118","0.27873100425807523"
"0.007514277580943417","-0.018679510935222462","-0.037283227042167376","0.07553798938987491","0.0716113527751047","-0.38385756836078677","0.6313615904332693","0.5615681762687021","0.27382797020744126"
"-0.002872617384828027","-0.010951453416266226","-0.0284501435247124","0.1259966586455928","0.06735846390825181","-0.403539594384788","0.5308567723450459","0.6401964574782991","0.25343134855680405"
"0.003469473562477922","0.0019286424486608415","-0.02789459069183997","0.12825912020425298","0.055904144202704294","-0.40312702417220103","0.41658722452696867","0.7170305362978784","0.21719792692261916"
"0.00759419158559294","0.0205445358431143","-0.05502787365941619","0.13801177364647735","0.02253679666096935","-0.3960162552140847","0.29939197504566306","0.7889701365388065","0.163934633685899"
"-0.0037006420113170225","0.01117644740793763","-0.03163269711376971","0.09799027279817846","0.018252794932400597","-0.26202801146746224","0.2002246205749151","0.8430732541966183","0.11851619493019322"
"0.01023424219702649","-0.012622749726481359","-0.022146993911602138","0.04799276060058744","-0.04158920463247824","-0.2604262682891835","0.11705110186314725","0.8789441093323387","0.08391221494550236"
"-0.0031614631847660477","-0.01016722177287752","-0.0315624785400981","0.05768090981965004","-0.016187228349415092","-0.2692358557697167","0.03164847712225291","0.9152635150655637","0.062123131624485066"
"-0.0057418189975457406","-0.00017901904484911882","-0.04471193908619019","0.08084755343073052","-0.02843229340195653","-0.23800429067688417","-0.057989449073980646","0.9454351390800516","0.020694128241311754"
"-0.006579471817366032","-0.0004720412257762097","-0.018094969160316967","0.07261989535400304","-0.06080020009349578","-0.19410439317402867","-0.13520010915783637","0.9687729628149137","-0.027456934825280718"
"-0.009670121876702896","0.00037326700123005224","-0.018850851453370166","0.08724695001814076","-0.04477228971571647","-0.15201009707214191","-0.19767080562409564","0.9866226380626626","-0.07110537828870768"
"-0.01640022901525893","0.07366558282926229","-0.062066253043911536","0.12461992671840813","-0.08642283836503606","0.0032876408429570693","-0.2215779677864733","0.992809997775297","-0.14071211836087433"
"-0.029523456525776596","0.09380735209674623","0.0020965882241707205","0.10839759596801515","-0.14537692472248526","0.3454209544767433","-0.15554070167361222","0.9660025032420922","-0.21568441202911803"
"-0.014763436148943447","0.03608374827370373","-0.043629746950780694","-0.020965142208175067","-0.1260701973792651","0.6141983135591276","0.01749365383730217","0.8986803356225329","-0.26374068310406495"
"-0.03709121648415291","-0.04751326747671525","-0.04936908272235128","-0.09310878344145093","0.025279515086075382","0.7015903921194586","0.235583814961928","0.8118462170115317","-0.2158184282931687"
"-0.05635723134001927","-0.06009836759763914","-0.031267147480243986","0.01853839935563058","0.10685025861390154","0.6149991851482669","0.4223550363773322","0.7117138924509878","-0.18739227121227658"
"-0.04082695549668471","-0.039519298301192766","-0.00554009471305006","-0.05209853875453758","0.11412348836424817","0.708288590864988","0.5875596569609414","0.6077161171531267","-0.15547188519796604"
"-0.0018712852783761924","-0.0362203318119179","-0.013010318325625792","-0.18851438049615088","0.13870504241683457","0.6596053057797272","0.7305289449040172","0.4907895305154324","-0.07924768350212713"
"0.02808780109119591","-0.04558229181438465","-0.02022217889213334","-0.2482626206367674","0.13110632426699892","0.5847116777771775","0.8307551247385999","0.3756571462677558","0.013828246225740677"
"0.02346145419552186","-0.03999918574390214","-0.017025168537908347","-0.2121210006741708","0.07197034733336466","0.4254595757186127","0.8832784355498841","0.27235858219541614","0.10125914941664527"
"0.025101135519836715","-0.05291459800071691","-0.02157491906139521","-0.15641630885115967","0.031219678376750045","0.25848998380106836","0.905792406444058","0.19985169737529115","0.13129677035551238"
"0.03382139021996574","-0.07358091955947409","-0.030916054611885943","-0.07280439438947538","0.10217375616830192","0.12356496298351323","0.9191391787934505","0.15280665529585782","0.16873960705552032"
"0.04026457719724999","-0.05728863700774981","0.014728290052043033","0.004465310811004792","0.14072498513131057","-0.09233545614684402","0.9033961174627475","0.15189636143621651","0.2127525093833777"
"0.024806512803899932","0.020324327752520386","-0.10077320915430227","0.17291144662580946","0.26923067720604277","-0.1848749548300981","0.8686220634083797","0.1864875281025862","0.24282445156059926"
"-0.06489743882485358","0.2647438824202723","0.1117701523409892","-0.10238680133115641","0.37211851760334486","-0.09503172383027994","0.8052039968797421","0.22737159579865016","0.3229890582884644"
"-0.006415792530734472","0.07883527937117697","0.019240039935660556","-0.1651773302059713","-0.19197681168168204","-0.010940206970644606","0.8007736486468537","0.19033978617527111","0.35281584876315425"
"0.023805180697448105","-0.09425555085749894","-0.07422645780210066","-0.07365257678657308","-0.07178782687330536","-0.3077747673925453","0.7926931392912715","0.2119757561725428","0.33514858273403647"
"-0.0760180021224676","0.09162396810415939","0.09462029834778225","-0.08483972713194794","0.01142974435811196","-0.16522205140933835","0.7634082588336275","0.24047191177870547","0.36409282707961227"
"0.015308300082604498","-0.09812892807365324","-0.10185540128971177","0.08823280560795692","-0.008494932284726359","-0.14201376350952036","0.7444887214114198","0.27491795913411776","0.3402804250403667"
"0.006389704599851371","-0.06284993001265461","-0.07736977159998855","0.1551390890203344","0.07197752722452985","-0.3654617906466155","0.6960056652779265","0.3411319429245485","0.32673170761378156"
"-0.011711298862931633","0.0027180676790918555","-0.026690548678588565","0.01627112404897328","0.04886785086080925","-0.3890510992721755","0.6209962473978331","0.42040666470113713","0.32463974641884447"
"0.01018995250770266","-0.03967198976023666","-0.051378573080659365","0.01348492670822329","0.04691252716682006","-0.36745183520144664","0.5482716631975936","0.4802749768033437","0.3299677100872"
"0.0036206361977788124","-0.014509060540248097","-0.027851220396336918","0.09305329285230218","0.0699192917571728","-0.3932738767421831","0.461308664236311","0.5519375310869897","0.32951009357580746"
"0.0009016344010288646","-0.0025234042357475373","-0.027686000222991957","0.16079042916898761","0.06868913707086871","-0.3915022517116627","0.35687504677175275","0.6307900875953388","0.29718275573529435"
"0.0020242817434546613","0.0023217969877636557","-0.03260543088433816","0.16282183082378462","0.014525474098840273","-0.3944145120358059","0.2494599999932383","0.7030990824459767","0.24633829263022028"
"0.005310384127416263","0.03460876955368789","-0.04229559405102014","0.1138948961807596","-0.012909129373090722","-0.3276752129408572","0.14324309770537896","0.7661864047185091","0.18653762065932156"
