"AccX","AccY","AccZ","GyroX","GyroY","GyroZ","MagX","MagY","MagZ"
"-0.036985306357508956","0.07001968472556117","0.03993861672710059","0.10014683190090132","-0.20725562008122558","0.5431876993221021","-0.10496785863781373","0.9220973153451897","-0.1076182728637787"
"-0.01801776549491187","-0.028942038930825642","-0.02147578695738823","-0.03985814034738645","-0.0180633339108816","0.6767391040201031","0.10454024427467697","0.8427038595869087","-0.12886965678390977"
"-0.057868857693028276","-0.06147259072903418","-0.0446623730341867","0.010379096500462594","0.09133690710296151","0.6401174304440022","0.3059399740062209","0.7485082341109821","-0.1133760691839065"
"-0.04670015342875791","-0.04202572340781123","-0.0078087742182930565","0.004491305050189398","0.1224258358482733","0.6391709458386556","0.47019722452745144","0.6509616718184051","-0.09181089108453484"
"-0.00561665248423928","-0.03589105839343549","-0.02603999424604278","-0.16347326341498047","0.13425590319146624","0.6464758654850482","0.6243399064415222","0.5383095085216351","-0.03484580713958608"
"0.017546855032124203","-0.03749899294173445","-0.02937744174761099","-0.22102643446889692","0.09199506379310476","0.5981808817763398","0.7383308160059587","0.4253011432797882","0.05321758744385027"
"0.028290955970485664","-0.03974469997882899","-0.013724895575342748","-0.22081462955702238","0.08213707322328649","0.5218553924477531","0.8182442671501299","0.3114484475014624","0.12595246324032136"
"0.031261253613181696","-0.045409864724579974","-0.018543128880515174","-0.16888391616377624","0.07341350545756967","0.3662921534664364","0.8602071881484289","0.2151551883489711","0.181503839034004"
"0.03302706427013617","-0.0539688961703057","-0.01984217249343993","-0.10245419380311652","0.10510075846664806","0.20074714222411882","0.871213399167239","0.14875650725368564","0.22022146458717679"
"0.041392038636341416","-0.06816193083952857","0.004257255041089447","-0.06169618951125377","0.17721797862696215","-0.013583568591525265","0.8621855197492786","0.12197539804974576","0.2657706509175662"
"0.03367985577799611","-0.013581485894491655","-0.0343133944262917","0.03656203460655682","0.17757936648227718","-0.1030452934888807","0.8361607068592306","0.1341390348408948","0.30064756646440893"
"-0.030351481152265627","0.20962953672728596","0.012651059422663511","0.00543701398170934","0.3805907891782797","-0.0901876641577884","0.7957581600813199","0.1670283477696742","0.3653512724859417"
"-0.03321105457165206","0.1545463525565535","0.04751189642280024","-0.17706728775892996","-0.05267974318565567","0.05444731795718093","0.7719903170457629","0.13370367690802287","0.4167514127834208"
"0.059362098669819174","-0.08859557969879028","-0.09688433932419524","-0.10607413229697274","-0.07876907438293389","-0.1879595238900865","0.7834980769211264","0.12376960043976337","0.4007838652251897"
"-0.06326064595853811","0.0479396687738874","0.11385399177730253","-0.04186836151099599","0.03894284797344912","-0.203370234772011","0.750535171515424","0.16391487891640827","0.409838134772027"
"-0.01668907481519695","-0.0596963839605644","-0.06458586068742218","0.11753408966660443","-0.09578541644445558","-0.14970213076525846","0.7372162629913954","0.20172505575310373","0.3964855387074673"
"0.028410345567793375","-0.056137738119174066","-0.1094452030027459","0.17491396579262353","0.1315490842221862","-0.266760434494195","0.7097146673570522","0.2531632551551538","0.38440773149607227"
"-0.01830661129484991","-0.011816705017514955","-0.015792212994321573","0.05853871971274203","0.07160656618099458","-0.3626223368305758","0.6545442931361809","0.3305382332246649","0.3787855857846787"
"0.00043081574712988403","-0.008429447548520827","-0.032347274363486674","9.609389883498484e-06","0.020375649420244443","-0.34694466875227153","0.5861664656927377","0.39130364652188027","0.39174593912518774"
"0.011130626996167512","-0.026475085085728725","-0.06128971822919021","0.05389730389389072","0.07839156333210766","-0.37791170353232767","0.518958918914585","0.45358621625183115","0.3940176782353148"
"-0.0009951196852308521","-0.007851920669416035","-0.013505978845660675","0.13529681977608518","0.06711913420274518","-0.4228090501962023","0.42639529105512347","0.5345627917660101","0.3781155044644253"
"0.003671665622434531","0.0071484051696633815","-0.024493120373100585","0.15747857054694894","0.06426393081605104","-0.40691296259358717","0.32385641371532214","0.6197742126272158","0.3424050731289748"
"0.001153893066308068","0.0195504832832163","-0.03702507052131588","0.1344881101125641","0.009603180045685325","-0.3879832704866563","0.21750019230064274","0.6941148778312559","0.2965290178618765"
"0.0042368405709799365","0.033843234823651494","-0.048080365370260586","0.09896264989360261","0.01647266058284225","-0.2992321371083918","0.11939166319372954","0.7521098315556499","0.25114326599984155"
"-0.0013128500651626762","-0.0074810985545951504","-0.042341029598689996","0.04137770810290493","-0.001795375838479145","-0.24152084501828708","0.04466088356727676","0.7895901917765333","0.22814803630236832"
"0.005441327556721504","-0.004658487868840891","-0.03740920742434291","0.03000185883604181","-0.019330824031244736","-0.25557250108227814","-0.03631139294072918","0.8244715970648177","0.20799656635426278"
"-0.008524366870282078","-0.00192146749754389","-0.03367729675891361","0.09713342565468587","-0.002509535679710942","-0.23955506929949044","-0.11756230770237618","0.8564638087985882","0.17731991664412974"
"0.001982880512130205","-0.003039542916012236","-0.03632081953243298","0.0790529881773933","-0.027198070110658813","-0.18835510591744928","-0.18510422038489716","0.8849071937462208","0.1318034172074112"
"-0.02243710623396369","-0.012088848978531961","-0.04324147954342004","0.11731265725873555","-0.017538005207294535","-0.16474880910666506","-0.2533705925268844","0.9091553113407241","0.07960735104904575"
"-0.021589825220812153","0.06583053741723448","-0.04833232613461165","0.1557648762599638","-0.07844837257755499","-0.03460474898791169","-0.2848009875375626","0.9228361045646087","0.004849156534346373"
"-0.02395836078030396","0.10112719367417695","-0.018759980358030434","0.085493782997579","-0.13868047956240964","0.23410951112078277","-0.2565749324437531","0.9140497899193752","-0.06884181090199834"
"-0.01689126687515356","0.04391671625091462","0.009250580424964195","0.03799845700890616","-0.1908902548186819","0.5491092953145267","-0.11761803535310407","0.868126124333703","-0.12670088138884605"
"-0.027376369412903945","-0.04021523896486221","-0.014571648963735676","-0.031874057919314705","0.0014051803132610753","0.6776855886254497","0.06895813928475124","0.7938514224528253","-0.1271323483853018"
"-0.06406941419836458","-0.05343603413976477","-0.026351847323231398","0.048270995234822665","0.0836998962002448","0.606941931584804","0.24901417878741328","0.7065423679150546","-0.12190734843200958"
"-0.0471815630953213","-0.03407641908085262","-0.010480384421281075","-0.01209436739902842","0.13302335520810707","0.6461118329445303","0.3973890488511198","0.6223599748951826","-0.11241344016529871"
"-0.006492818077384604","-0.03170398851992573","-0.01864845674102259","-0.17739462262273611","0.12169109365236795","0.6695312597178485","0.5527298752558459","0.5182038876217315","-0.05608248195756526"
"0.025888721734334406","-0.03808067469047309","-0.03242575394582553","-0.23836555475462853","0.1285933623591793","0.5789356948009601","0.6542377910571758","0.4153934521407937","0.03375254226283349"
"0.025163718776489964","-0.03220465031080435","-0.012169760693733303","-0.2334170218135591","0.10810195297370123","0.4741185919678389","0.7368261694362986","0.3137439711475144","0.1176990225884209"
"0.03169548513242187","-0.04680174605191887","-0.02254971808413048","-0.18104344360457525","0.05383394225007191","0.33680551768448636","0.777061533262025","0.23076211060919816","0.1710113461656474"
"0.03695247869129395","-0.06437476716827661","-0.027553824084315986","-0.08933095401328821","0.11509756026566015","0.17292534859413727","0.7968169854451552","0.17589381840270255","0.20799656635426278"
"0.03701602476728032","-0.0661946000679018","0.02327884707307813","-0.048353442812755464","0.18184900842851554","-0.05571135568713963","0.7863959147589907","0.16392807158104078","0.25733743235047574"
"0.021564700109262154","0.0033952698807126497","-0.055789951708969825","0.08591257907333098","0.24218642048379307","-0.1843022102996833","0.7547147453200356","0.18946907030952728","0.2997486768884594"
"-0.05714674319318321","0.29645592490061284","0.09018000618913642","-0.04984570469187173","0.4136422215087459","-0.03594681562062101","0.6945567463589947","0.2280708070241717","0.3705321451327782"
"-0.017786688854961458","0.07759608950288197","-0.004342041931082411","-0.16917274104360516","-0.12922456289784254","0.02544363201231796","0.6901263981261065","0.1863819867855263","0.41433258265177486"
"0.05907806696654678","-0.11583178886606872","-0.14921369872687804","-0.08452972176093154","-0.022480163626006536","-0.3031394197099506","0.6984855457353295","0.1902210521935788","0.3980218227099992"
"-0.07546919510258537","0.13280599719744676","0.11469248415702822","-0.15273860538133763","0.12541985046416132","-0.2160676897852754","0.6582223180842389","0.22738478846328264","0.4390929046074763"
"0.00270403219264214","-0.08870879989631263","-0.08414173345496513","0.1092929530954849","-0.024363209748932732","-0.10910522184670203","0.6506990852359382","0.2531104844966239","0.4203469710872192"
"0.015386288448587755","-0.0870042646290267","-0.05384654941999972","0.2232921331639736","0.11279281520163129","-0.3106870277166885","0.6175411330526875","0.31140886950756497","0.4128126420960784"
"-0.020395929247734954","0.01477549935651713","-0.032985437283031584","0.09643350669590038","0.047056124990124036","-0.3971568905077074","0.5428103534262344","0.40676544947114995","0.38901658350366825"
"0.01184503894134756","-0.02314391835679154","-0.05103780647313538","0.0004217624933994177","0.03179646296702104","-0.36665096361230726","0.47184119022393217","0.469351450487648","0.39308610176569436"
"0.006221211216554189","-0.017121434822529674","-0.036417886384273145","0.09297627288434782","0.08968313883791067","-0.4394332028798531","0.38554692307138744","0.5403675642043024","0.3907163019745546"
"0.0005482797057713481","-0.0008148179705686233","-0.022752112796478055","0.1504793809590939","0.0756799577687175","-0.43601129699898483","0.2739244386628974","0.6250908564741064","0.3620498962251815"
"0.0005193951257775443","0.0035619736375966937","-0.02957983645995857","0.14033200018110328","0.03611157755730565","-0.4242651803582739","0.15260534302770873","0.702505412537515","0.3183311759403621"
"0.004194476520322355","0.04303172901890512","-0.046242290941797895","0.11247965426959772","0.03367280785819304","-0.3594431193100528","0.041122177746039074","0.7709093786569379","0.2680423900276932"
"-0.0033443988580601322","-0.003599411599173178","-0.040267516423210734","0.0682230179334069","0.0002484998465475117","-0.2494082167295083","-0.05082844595541312","0.8128224741943354","0.23146575600996397"
"0.005675292654671308","-0.0072390773984235355","-0.03212422712947097","0.020647783727981383","-0.01615803012534328","-0.28231675839232667","-0.13037966736985113","0.8480732740923292","0.21564529947325176"
"-0.006319510597421798","0.0018427405189810457","-0.041027529220597554","0.08453103339814914","-0.002725171744372419","-0.2665420149698842","-0.22589686071790513","0.8823478168075193","0.1905744520276768"
"-0.0036717574313232188","0.0073591609318402924","-0.028528623107051256","0.08956525105356783","-0.02167912710167583","-0.19039611502795295","-0.3029403378495764","0.9131526887243664","0.142410314203616"
"-0.004942678951050549","0.0014440807776133838","-0.033840451680091754","0.10061857920462193","0.006562735466929044","-0.12747915760844225","-0.3547670530267585","0.9349997413557578","0.09326393522474484"
"-0.017266766415073007","0.04600557695933142","-0.059259575349214","0.14015870525320592","-0.04347272941481545","-0.0008441284919211174","-0.375024054066442","0.9449206251593847","0.022473929601691877"
"-0.03345175940493375","0.08904898764858243","0.0003818093500667052","0.13960031048553662","-0.12565855028579367","0.25387890495450827","-0.33133357589557016","0.9373348429957072","-0.0602386204878193"
"-0.013338463535915852","0.04971795297717411","-0.00114565115250746","0.04630891155118463","-0.14903388262262665","0.5618504342326532","-0.17805467256778604","0.8929415265074029","-0.13252078280694854"
"-0.0308617753988228","-0.05372272014450024","-0.044600415469182336","-0.06833338524972314","-0.008558833316096632","0.6955231831108267","0.0295029625692192","0.8202763297116881","-0.12357438000922513"
"-0.05662682075329475","-0.049337255245974265","-0.03378882037592145","0.0418379024114324","0.11606205897885191","0.5915312207028796","0.22652807171860326","0.7382179556976457","-0.10458819782048691"
"-0.047739998308534815","-0.03618293798521327","-0.009880428666822186","-0.054913618583270464","0.14033487771133474","0.6602848331886939","0.38451596153291634","0.6529669568425425","-0.0898872673920028"
"-0.010498146503191925","-0.03499776142215829","-0.016335374314193133","-0.1992490385297937","0.10685265191095662","0.6719824121573358","0.5503614500998995","0.5490351448678435","-0.015233670937050284"
"0.022179941663130153","-0.04155102955214416","-0.019561298198753494","-0.234832263724721","0.10946852559214414","0.5927203936685713","0.6758601195396995","0.4366468348637233","0.07249958602031006"
"0.03295196436215228","-0.03553166217010768","-0.007488866657653875","-0.20075092790490426","0.06324438627059277","0.47377882826335554","0.763993399166273","0.33119786645628907","0.14587512493273067"
"0.031840870851724004","-0.04479702145358747","-0.01216563018939968","-0.16219280644773876","0.0472571619427496","0.3511241309448571","0.812086361744669","0.24442971116845028","0.18867861219476503"
"0.0350720925336974","-0.06065615884598316","-0.021444808174886053","-0.10953040335892592","0.06820808436280036","0.1672585753800753","0.8359656600816826","0.19123688737027997","0.21976384807578428"
"0.04468199229763554","-0.07697233189810207","0.014335272564698708","-0.058605763297083946","0.12993121541296135","-0.09768673449245717","0.8372195322230659","0.18183051748731976","0.2608349299732613"
"0.038311016770335805","0.0019439115945652312","-0.07257632132081787","0.09732597557457184","0.17114379070120378","-0.2111750924407148","0.8037550779608099","0.21399423386131264","0.28664123252643137"
"-0.05931308669271841","0.26361168044504885","0.06830898574259721","-0.047074911344712624","0.43087396030522357","-0.09488125704686587","0.7498385758813222","0.2620551111174471","0.3517862116125211"
"-0.024873039146774384","0.11911570175391945","0.017731579753021063","-0.14551798338561375","-0.14602311492735318","0.05424103285088745","0.7508695374197929","0.22346656706743523","0.38713708711759187"
"0.05431018562890309","-0.12264577506557851","-0.06588283904818013","-0.1095592858469088","-0.056812967199755246","-0.23377423255606614","0.7728262318066852","0.22012882291541713","0.38087754697961584"
"-0.07073212398360172","0.06353289450971684","0.055543662099532154","-0.037809409199799734","0.07041231095051646","-0.1598416504604837","0.74975498440523","0.25105242881395656","0.38958860414290886"
"0.010991981012197258","-0.09171796422862663","-0.08145277513377588","0.12649728843729635","-0.0287486872726363","-0.13913305267222204","0.7408942879394536","0.2879259264617458","0.3677701026175878"
"0.006346377729860666","-0.05710997761349437","-0.09954851461938274","0.1971534815394531","0.1283420661683973","-0.32716556738413216","0.7035288981262273","0.3529129924413556","0.35281584876315425"
"-0.01398355248911078","5.0745245902644394e-05","-0.01935064247773867","0.023844112398088486","0.0729133063730608","-0.3914779828756282","0.6303306288947985","0.43539353172363743","0.3449709942821399"
"0.0063829648645194826","-0.0194710136004704","-0.030517460943691226","-0.0005062318454910155","0.03059263454832266","-0.402617378615476","0.5482995270229576","0.5006840289897945","0.35711417528087663"
"0.007124335751027083","-0.025144488085489084","-0.03543276110070381","0.07916177888212887","0.09055190566889974","-0.4430977971210666","0.454342707895292","0.5720827299807909","0.36074242047834576"
"-0.0004626805940117489","0.00026866815819794325","-0.021403503131549814","0.17726307481523237","0.09288297700053437","-0.43501627472156923","0.33564281184432665","0.658560646646715","0.3308175693226432"
"0.0034713992011441708","0.01528343216925498","-0.040635131308903276","0.18728529814529712","0.04310957814631964","-0.3918420154161461","0.21958997920294823","0.739181020215817","0.270265098797314"
"0.0007081077150703761","0.04879557191845998","-0.052758161528089785","0.14572339793791048","0.018882232057883044","-0.32524832933740455","0.10958359666557474","0.8057643986159571","0.20155724830109686"
"-0.0057033062242206915","-0.0037900162436259304","-0.02843775201171153","0.08059049928768278","0.023010669477872486","-0.224396754312325","0.02613143970016583","0.8467540076290809","0.15984877197703737"
"0.012265790989923945","-0.015944567998742387","-0.028412968985709785","0.02194557018801282","-0.04488956127141473","-0.2746478062054162","-0.053475509365000395","0.8823873948014167","0.1375889973871593"
"-0.002477861458246054","-0.003127730023990648","-0.04054219496139673","0.060263966994920315","-0.005647387448608424","-0.27001245852282163","-0.13837658524934102","0.9143004505473924","0.12077159059348484"
"-0.009699006456696717","0.004538087547850557","-0.03296685001353027","0.08113830380975835","-0.03529004678354363","-0.21534690535504997","-0.2190702235037064","0.9445380378850428","0.07508185062031063"
"-0.003652501044660677","0.0026154423991358237","-0.032547603823667434","0.08992531940375459","-0.055381775560825575","-0.1735268471003534","-0.2886740592631694","0.9667017144676138","0.02479306470764173"
"-0.01558183258210118","0.028455407625959828","-0.04551325692691324","0.14646471512947146","-0.041438426918009065","-0.054871653960345004","-0.3231137474131676","0.981385150203567","-0.04318096502566379"
"-0.030977313718798014","0.0816096935691786","-0.0134419560284895","0.12583299121368974","-0.12402153510012828","0.1673241012373685","-0.29385673078088737","0.9751450198324026","-0.12822899366796028"
"-0.029311636272488707","0.08475077501236727","0.01513535125412168","0.05342555659017009","-0.19966408182255516","0.4734633333949067","-0.17741380458441228","0.9376514669468867","-0.20197716316822906"
"-0.01623654972862737","-0.016719451185454936","-0.051178243620478604","-0.11502770357167037","-0.07135942670044848","0.6858156486970161","0.0319549792012579","0.8701973726810026","-0.19192267467506238"
"-0.06683270568443836","-0.058960972035373406","-0.07201663798361181","-0.04398929887853995","0.04949010809512651","0.6723707135338883","0.2571782796190873","0.7773737843268543","-0.1485112111907494"
"-0.05328583766734491","-0.05262479584375606","-0.019691409085262655","-0.002873536835529076","0.07321007520788902","0.6203383290758628","0.4321909667308513","0.6869512609358177","-0.1292471904058086"
"-0.015119679302200354","-0.031432883276317186","-0.017006581268407036","-0.12114116352804992","0.11068432049611782","0.7054491370489483","0.605726871098319","0.5759481807181084","-0.08548924584858414"
"0.022483229753065073","-0.046441311111182604","-0.027285341302630425","-0.22082425705301664","0.12289731536812137","0.5901964347209806","0.7391667307668809","0.46022212656197","0.003974782128649984"
"0.027450414692666007","-0.04457889079781049","-0.013749678601344495","-0.22929645352799935","0.12850481036814182","0.4986058475266764","0.8280244698529208","0.3519631205878168","0.0919744372694281"
"0.030746145269958888","-0.044154055377749586","-0.023836370184054365","-0.17986888909327084","0.06375655184037697","0.35937553519659626","0.8785694490633552","0.25958808283117285","0.1563349309074164"
"0.02878873356571219","-0.0689534335047765","-0.015498947186634268","-0.13517805268773714","0.04501224930509738","0.22209401040008853","0.908411606028281","0.19206802524212632","0.194496879268184"
"0.0403550822145639","-0.07881917145034725","-0.005061782311216399","-0.06798198164593126","0.14649283103402047","0.00263165420494381","0.9146531029098341","0.16121038266674934","0.2312532912011032"
"0.03351906494936394","-0.02387517541234869","-0.02964798978146337","0.060615370598712214","0.15114061391495928","-0.15338371319169616","0.8886840176705146","0.1808806456337811","0.27041218981883297"
"-0.023265130860452687","0.22254079411446687","-0.035108516510514325","0.11721638229879258","0.509062975094241","-0.10486302930786674","0.8379997193332599","0.23603917646219125","0.32467243331251533"
"-0.04819252339510438","0.18992506748876445","0.04926942601675727","-0.20587275577387107","-0.08375191885158202","0.10644329916115458","0.819776777545154","0.2012765051555993","0.3998359453087338"
"0.067913859986651","-0.08321917839259169","-0.07979231239165903","-0.1445648612821782","-0.12753728847402077","-0.06022535918956162","0.8489502027013422","0.1738357627200353","0.3811880724694894"
"-0.04591064157559397","-0.03892307450873566","0.07450061173869962","-0.02558922853423664","0.030925302838976883","-0.40368520740099517","0.8206126923060761","0.22499691616480322","0.3896866648239215"
"-0.06799771707752175","0.01927106830034006","-0.007774491032323975","-0.00836197975195877","-0.07346074151479674","-0.20007938060572916","0.7768107588337478","0.26539285526946527","0.4147738557163319"
"0.03688796979597446","-0.07003889319661914","-0.11323494072884596","0.0931957797930178","0.0333209931910983","-0.26304730258091236","0.7508974012451572","0.31262259465375336","0.40147028999227846"
"-0.01186534995623193","-0.04780099219885917","-0.00613984394229227","0.13893601326193","0.090200091001805","-0.4056995207918609","0.6866434199555969","0.39952267658791696","0.39128832261379526"
"-0.004547923024468576","-0.0025526960666661623","-0.021727747721739295","0.04375184861509895","0.02597835782615475","-0.37063105272196967","0.6101850831565714","0.4779002971694968","0.38465288319860397"
"0.011087300126176806","-0.017979415401919174","-0.06347888552601096","0.047568188027238875","0.06956987038713312","-0.3712863112949019","0.5300208575841238","0.5422145372528501","0.384178923240376"
"-0.0009951196852308521","-0.006292182608869705","-0.014439472825059703","0.13747263387079664","0.07111833358176103","-0.41679037885963965","0.42709188668922526","0.6215684150172335","0.36780278951125867"
"0.0026010105239975775","0.017610159164209545","-0.0374236641895106","0.1584990851223446","0.046795255611121814","-0.38943940064872795","0.3153579469792789","0.7043128075921651","0.3204558240289702"
"0.0052160278327698555","0.040386115779552756","-0.045263361414728996","0.13537383974403955","0.02179487457389878","-0.35439520141487124","0.2053794282672693","0.7752365726563921","0.26505153925680647"
"-0.0032288605380849174","0.005575683141511279","-0.03160584883560115","0.07991657456808188","0.029290680950366573","-0.24722402148640094","0.12117494801703066","0.8215692108456715","0.22630122680996287"
"0.011881626076006376","-0.024835989015175912","-0.02406974367890412","0.02873680586239099","-0.0364866953110768","-0.2855445135849187","0.03532650207031096","0.8597751676213413","0.20386167430489485"
"0.002987101076581413","-0.004034426449837005","-0.042782993562387774","0.05481287876294851","-0.0027613105299039214","-0.2920485616421719","-0.06052505718211181","0.8995510514882766","0.182419072056789"
"-0.01101806894308036","0.007743901859934566","-0.04124438069811282","0.09076579980405686","-0.025210676236131727","-0.2388172966840408","-0.14812892412676776","0.9340102915083217","0.14427346714285688"
"-0.0010240042652246387","-0.004694635234655363","-0.03334892166439049","0.0758277770193033","-0.03432076147624176","-0.20211553594902593","-0.22302688670540516","0.9615169972670481","0.09789403371322682"
"-0.01946199449460201","-0.00612453361914396","-0.05784694286711459","0.12181832538406727","-0.027703055789277814","-0.1613778677814693","-0.29023443348355754","0.9846305457031578","0.043588028568405206"
"-0.030004866192339982","0.0658710473961645","-0.04761155312839426","0.10040677429274737","-0.08784445681574546","-0.007691337890702506","-0.3257608108227549","0.9967677971650418","-0.02977443558654703"
"-0.027126036386290988","0.09510990372695739","0.0204754737818475","0.08000514753122942","-0.16447543522191468","0.30802267814753753","-0.26557494803634984","0.982915499300935","-0.08861411288352151"
"0.00840488546408566","0.03741850014357722","-0.03551124068304267","0.01833525919015088","-0.11762185877488089","0.5722617648914653","-0.08749724013453783","0.9272556472164903","-0.14150150684302637"
"-0.034559001638029524","-0.04551062031320078","-0.030366697535513947","-0.08772316218224034","0.018109197109096614","0.7086040857334367","0.1466982120505245","0.8406721892335064","-0.11546476168947656"
"-0.05732967886647728","-0.05075302707370778","-0.028547210376552563","0.04048235097543517","0.13105127843473238","0.6207751681244843","0.3450329209920204","0.7479937201903154","-0.0882512883637746"
