"AccX","AccY","AccZ","GyroX","GyroY","GyroZ","MagX","MagY","MagZ"
"0.01301293879243031","0.0006275450228215156","-0.03514362579735013","-0.08245884737255793","-0.06584527028557563","0.17924009973032115","-0.025751003127744337","-1.0536493326800538","-0.22432028933696793"
"-0.006627612784022361","-0.0026750569773829696","-0.08647959890779633","-0.1711367502264421","-0.01069915887244246","0.03133610540150106","-0.06459317568526671","-1.0586493525757645","-0.28645807420533553"
"-0.0065987282040285734","-0.08209840230886134","-0.06160157130637883","-0.14826181974398883","-0.04937938654671919","-0.16369311473916315","-0.03299559772240433","-1.031986977353517","-0.37472903056358203"
"-0.014811577115599793","-0.09724497955905219","0.014857574837685463","-0.10751825669611753","-0.13783564570197124","-0.4431948724652048","0.058146975043489924","-0.9756806847020808","-0.45255652439397825"
"-0.02129135122754284","0.010708193600203024","-0.021211434680036296","0.054750300038985567","0.12828223374202063","-0.5976174761528987","0.22973241163547198","-0.9046118003268965","-0.4420476880787862"
"-0.08894866576635993","0.05623071112822997","-0.03360294768090837","-0.041978114965330986","0.23809388251962965","-0.6410101549826326","0.4231909511382547","-0.8145059008870397","-0.3981001595382706"
"-0.06534996391142316","0.053843738523584615","0.021241888860951443","-0.04604669477252154","0.2596096230446761","-0.5826921419916647","0.5909311798299944","-0.7102970429550586","-0.37255535213446767"
"-0.013733219462497809","0.031267215650666084","0.04736939402329021","0.0698163685204633","0.3426091649143769","-0.5851675632671866","0.7399747817024391","-0.6101911037237798","-0.292733957790147"
"0.015861921199152376","0.051707096814378566","0.03250577417874416","0.18223086274829042","0.33614726286569774","-0.5111961510339488","0.843182390850978","-0.5214968193995986","-0.17850143613379368"
"0.016132473431760996","0.05068915375408595","-0.007297417781790399","0.25434080774558626","0.28849671849932684","-0.3980548374409849","0.9202815956333776","-0.4434490154338308","-0.05278110569680507"
"0.03663859958869463","0.060484258915881293","0.012013268248508626","0.21755414555137167","0.13804688572669133","-0.3145700414822128","0.9590123128894439","-0.37301337896100556","0.0378302322482774"
"0.04522309676285277","0.0662086305539146","-0.0027654284269381193","0.12044159345688259","0.04280802271738128","-0.22537721528811985","0.9803281392929625","-0.3148601132610218","0.07840610770664042"
"0.027550547903311184","0.06178057824164169","0.006753525335115127","0.00701833019877287","0.07893244846655266","-0.0038379321051403427","0.9866810914759715","-0.2893718851910652","0.09923909938778408"
"0.022417758038412453","0.002648161997502372","0.0244568669090277","-0.038321591986696414","0.1516455995935783","0.21853619903742694","0.9690154261951474","-0.32235354677227196","0.12552753362259975"
"-0.015187076655519225","-0.1362633602905135","-0.032886305179024605","-0.10756639417608901","0.12677684989438393","0.2562329820498574","0.935077286901702","-0.3773009949665625","0.1446330229732367"
"-0.04572770590229988","-0.17815483337378032","-0.13080404091191575","0.21349134224177768","0.12093241848591191","-0.10059899481660038","0.9246004885648097","-0.3716545345038599","0.20451541217831268"
"0.05689342989968217","0.10011340548351817","0.010491136096524835","0.21452148431316764","-0.09813563415253074","0.11820883087069317","0.9276097817041296","-0.3501636838175456","0.2212511017378099"
"-0.07129055919681525","-0.09832628438126098","-0.002624371703944861","0.15075857834292858","-0.009004225898044477","0.16079821122768426","0.907659282743451","-0.37893688538099035","0.24239952194287767"
"-0.02200383753405665","0.10457573547027033","-0.006539263711353711","0.013656296136921806","0.023982348082229422","0.037318373484011916","0.9092196569638392","-0.382591253484188","0.24208899645300416"
"0.024969229271198358","0.09586089641327533","-0.08357172385692502","-0.16209653148779576","0.022649281622557468","0.3640594205512599","0.8757830665269476","-0.4339239115691783","0.2424158653897131"
"-0.03916127805037543","0.025083730918092628","-0.02594705789853624","-0.08782521363977992","-0.012397681792423045","0.422110476345848","0.8180770841979453","-0.5217870580215132","0.21879958471249292"
"0.005763872033318968","0.014264969750258125","-0.003394091186515699","0.04131609212854142","-0.023549010090799162","0.40053548111115367","0.751287494800254","-0.5934496123051592","0.21484447057831485"
"-0.0013609910318190044","0.03633096301691765","-0.04349550555993792","0.0036611260706010374","0.0005816467966127468","0.4514757679476254","0.6682811590406705","-0.665270478564395","0.2238497097846459"
"-0.0013128500651626762","0.01463111763674093","-0.014757521658748754","-0.14158033752394564","-0.09690308616917157","0.4815933934664732","0.5686958471894614","-0.7542681941751236","0.18576947865805554"
"0.007400664899634468","0.006070112627939125","-0.02528824245732321","-0.1542212397644596","-0.13014837556109812","0.436574702622426","0.4635934979161654","-0.8335693012809772","0.09693957641803674"
"0.019379100223064414","-0.024720691382836647","-0.06775808801564544","-0.11721314516237613","-0.11261029474157198","0.3876244603407854","0.35403293658461693","-0.9037542771257852","0.021723765391944882"
"-0.0010817734252122461","-0.016045323587363186","-0.044691286564522065","-0.11240902466122117","-0.06122381367224252","0.25756776803175635","0.2622773596607133","-0.9486753001993888","-0.041785234665916667"
"0.004376449374283315","0.007079953692445746","-0.01721517173725505","-0.043142079231041686","-0.05878025737901978","0.23292033815509094","0.19420603429627478","-0.9807730532502191","-0.08253761935010251"
"0.0045170209969198185","0.011700376468765794","-0.041717323444312775","-0.049813933955090546","-0.04532035474132667","0.2539031737905428","0.11100465175914266","-1.0135436321973064","-0.10791082056213319"
"0.005507762090707249","-0.003999006186208456","-0.03019321635350174","-0.09095800083632465","-0.058741964626138725","0.2246519457181277","0.02983732847358814","-1.0411294939438276","-0.1544487854260671"
"0.01480281993271295","-0.007446820880115908","-0.03758888436285556","-0.08878988873840864","-0.046126895848884034","0.14998644477430256","-0.03190890853320535","-1.0572773154539865","-0.2061006148048122"
"-0.00979528839000939","0.0014609079996304656","-0.09073814887576269","-0.16625560975733272","0.00246014565513432","0.03164674650274301","-0.0632835758931552","-1.0601665090085","-0.26748333242938216"
"-0.006309882404090536","-0.07773578919332153","-0.07236773085196985","-0.15373023746875036","-0.050365424933406525","-0.14655203584797688","-0.04361171518611739","-1.0387680069746132","-0.3573722900243379"
"-0.017045317968453856","-0.09615848114980106","0.021108473570975384","-0.11124409764591105","-0.12555803180948089","-0.42880345269673037","0.04443797296436393","-0.983147732884066","-0.43915489798891216"
"-0.02242747804063241","0.021083630178106005","-0.005150588154389315","0.04729958088899795","0.12406524433099374","-0.5903610941785752","0.21655282223826414","-0.913780702246472","-0.43382693432055663"
"-0.08021589441490026","0.059432038181109426","-0.025554659986841956","-0.02201839026995132","0.20975245879353402","-0.5948750976809972","0.4036862733834012","-0.8261550237575217","-0.38732982807371136"
"-0.058793164252829946","0.053056390727970526","0.00836053935115489","-0.000802181072355752","0.25360244743645954","-0.559394059398519","0.5707856340917673","-0.736326170274947","-0.3464712109850951"
"-0.017911855368267934","0.0323807207125372","0.043829551809374416","0.05384242716672321","0.30496260223818333","-0.531290747270537","0.7045877234900624","-0.6451384723352266","-0.2719450934154591"
"0.011955763164657135","0.04068630511059823","0.04495717949245378","0.15470585170059098","0.25379391120086486","-0.4886989400299425","0.8129222765055911","-0.5611539692848415","-0.17989553214885728"
"0.01758055370878363","0.05011058815757269","0.008489700221667314","0.23062828511162906","0.270068331175316","-0.4061606286765169","0.8855354054043741","-0.4856655422577755","-0.06376553631490865"
"0.03114571529320649","0.05790512359067049","-0.005788957599150908","0.22293591581218453","0.13745574135408994","-0.3277237506129263","0.9318729469848333","-0.4122087855841117","0.022790992470299542"
"0.04138818735900892","0.060031378125791915","-0.009263537844595437","0.13030977685103853","0.04332258158422054","-0.248655882812438","0.9629689760911424","-0.35355419862809356","0.07353739489436091"
"0.02567497584238027","0.06554073526027362","-0.008106377055530668","-0.013050377751262261","0.09850243848583012","-0.07841727868104291","0.9738915956338607","-0.3182770134008348","0.09140405097487102"
"0.024189345611365685","-0.010352113471583732","-0.001160934018541868","-0.08291807893148596","0.17974051372300207","0.12131038811590569","0.9605726871098319","-0.33536151409989995","0.11153754313145757"
"0.0018538627214912124","-0.09424412496600586","-0.15115710101584814","-0.15059167377460905","0.15565915875492456","0.2103357593413603","0.9398977286896876","-0.3749790859912456","0.13923968551753937"
"-0.0342412712580977","-0.21763648206941563","-0.12350337450223528","0.1912518264949481","0.2279774158678642","-0.10641380793047299","0.9219534251552224","-0.3811400603746149","0.1901168355162843"
"0.04549364899546139","0.05363287888966686","-0.00035445304740177653","0.24139182563325476","-0.06575671829453818","0.058286647817843054","0.9240432120575282","-0.3540423272194954","0.2275760156631277"
"-0.04025889209013992","-0.009579307719688106","0.05359612930622843","0.10104218902837109","0.013211793345314358","0.28858334048388157","0.9013899220365336","-0.38236697818543586","0.2567000379238934"
"-0.0859350412536732","-0.007646254622540586","0.01183458263103605","0.11162280712610514","-0.06041009267351996","0.018095999214504624","0.8900772089387187","-0.39462296362901234","0.2585141605226279"
"0.04387996379314095","0.11436876319724873","-0.11688630655976959","-0.07539707906073997","0.09056387215417508","0.29392248441147745","0.8706839864853219","-0.4207840175952255","0.27853488289604994"
"-0.038978342377081344","0.06231240155477416","-0.060765144178819966","-0.1729370919773759","-0.0002907099799589349","0.390415376484756","0.8165724376282852","-0.5075257875537993","0.2482177890162966"
"-0.00628099782409675","0.01547974975945427","0.002193448550794202","-0.0031172087591447707","-0.02036879696402701","0.40449130138478157","0.7535166008293802","-0.5867345460072255","0.22821341008971013"
"8.420078720423909e-05","0.03233813329879026","-0.027417517441306393","-0.01562573292973711","-0.050966142494228185","0.46836687782765607","0.6725443243213742","-0.6629617622537106","0.21995996943780965"
"0.0033038686371801127","0.015560769717314295","-0.026928052677771944","-0.14960004168719632","-0.11582449268652607","0.48409308357802944","0.5691138045699226","-0.7547299374372604","0.17709110838843345"
"0.007822379767543979","0.002521646217151718","-0.03840672422091312","-0.14806926982410284","-0.13419304758416023","0.4242218650808518","0.46378854469371394","-0.8331735213420027","0.08954253238031365"
"0.015066632429989681","-0.019918700803517462","-0.05029844619741668","-0.13845140132579864","-0.09590747459426396","0.4272069319130986","0.35464594074262656","-0.904902038948811","0.011545066702828809"
"-0.005173755591000979","-0.007343987856678184","-0.03893129827128337","-0.12200763816753679","-0.07056245878111139","0.27625477177834196","0.25366743762321387","-0.9550737425461429","-0.05571148571440062"
"0.00876594271400819","-0.001569757783038703","-0.008924629964021586","-0.03053679872570664","-0.09169048518323707","0.28812223259922554","0.16327718814214998","-0.9896253312186152","-0.10899929412137392"
"0.0015390207995587789","0.0009486125737770766","-0.05252891853757365","-0.016650098503530473","-0.04945597205248131","0.276764417335067","0.07138229209142599","-1.0268814161407462","-0.12182563119783232"
"0.000740843572396695","-0.0074613629238343745","-0.03316304896937741","-0.06510239759403658","-0.066075026802862","0.23020465540282742","-0.011791226620341868","-1.0559448563261056","-0.15510742633353558"
"0.015887917321146805","-0.0107478648042077","-0.01673809848672148","-0.08462118297287738","-0.05846194887069596","0.1757720830609873","-0.0787201351448538","-1.071617741909495","-0.20382560700531804"
"-0.006916458583960398","-0.00556352234683371","-0.07570517835353806","-0.16467670041426777","0.012660138374121567","0.027729756366770383","-0.12029296258805561","-1.079097982756113","-0.2615996915686214"
"-0.006184715890784059","-0.08407404281975579","-0.08659112252480416","-0.15118857852625556","-0.04681377210368807","-0.19549257059520359","-0.0853517255815035","-1.0527390388204123","-0.3528451552509192"
"-0.011066209909736705","-0.1030347903938186","0.029465722989196873","-0.13391685071248405","-0.10645952131005149","-0.490057994847876","0.024403882527593224","-0.9907335150477437","-0.4378474222420764"
"-0.029927840645689832","0.028631989585398344","-0.040405888318387144","0.06494966929534542","0.22219999677693406","-0.6283660914086442","0.2185311538391135","-0.9119073438686593","-0.42643969635093476"
"-0.10169639373695818","0.06634885740405695","-0.014569583711568863","-0.08947344095400382","0.2346714677308848","-0.6217164303351839","0.42107330041058494","-0.8195191134473829","-0.3775891337597852"
"-0.05193789060096745","0.04817338019079132","0.030337878979241586","-0.008702408010317166","0.29352264231496616","-0.6039273735218758","0.5938568814932225","-0.7158511547653339","-0.34738644400788005"
"-0.011701670669600369","0.03660102954311773","0.05302611970818831","0.09768219292636089","0.34141251638684367","-0.5493710301162595","0.7390274116400606","-0.6210618593809456","-0.25532380798380994"
"0.012319708872579055","0.04207403156830328","0.049143445634581735","0.20784962958911876","0.32875197496554276","-0.49687753777357807","0.8389192255702745","-0.5346630987028163","-0.1385008500040384"
"0.019828736851634613","0.058874246932765405","0.004915244381435754","0.2484102702130984","0.22326022737232848","-0.4274686667148314","0.9092753846145675","-0.4506917883170638","-0.01782737594983564"
"0.03405246685991616","0.06591882839695373","0.017503162863371655","0.20276631170412915","0.08548768910037936","-0.3411444169400196","0.9534395478166287","-0.37156218585143247","0.05268969411106535"
"0.04205830961486513","0.07415793488087322","-0.013638154984336643","0.07351621523107221","0.034701925591871574","-0.22445742640241131","0.9776532120580109","-0.31247224096254245","0.08416880706081885"
"0.022929015104302765","0.06245262840491651","-0.009148090248470646","-0.06043209928720236","0.041881816757070596","0.05959716496370751","0.9826965644489091","-0.2959814101719391","0.09562066025841623"
"0.02377822175612055","-0.03560021751906617","-0.026923922173438322","-0.06068241418305413","0.07039316457407595","0.25019004187726024","0.9592909511430846","-0.34418740673903087","0.10237704118018981"
"-0.02262004190725776","-0.30665456397459706","0.07223709536387365","0.0730897171585248","0.09440272063050151","0.1633901229161717","0.9281949220367752","-0.39389736707422573","0.12163779327576349"
"-0.03162240267199292","-0.07166967952790426","-0.0960871519878058","0.17800439200679338","-0.04566259622020116","-0.07498323838215737","0.9303683004151732","-0.36904238690662833","0.18304012303653597"
"0.025931085784991988","0.05294317053044819","-0.03747942599801452","0.17613665778389948","-0.0031265276605070454","0.14428326830618876","0.9290308367976977","-0.3644117616206269","0.19117915956058834"
"-0.10466187728298855","-0.08826422884549096","0.019672503739390994","0.08155806263510977","-0.03774078296793156","0.0220180858060445","0.916464251558499","-0.38260444614882055","0.1963600322074249"
"0.04582967294272263","0.14982018834805205","-0.07219011916562401","-0.0652679905251385","0.04591930888896753","0.24742339456932413","0.905792406444058","-0.3972219185616114","0.2145339450884414"
"-0.02827179139271181","0.07314622412503136","-0.03084996654254796","-0.11298667442087908","-0.012814833469121108","0.4168198700903211","0.8553588825350797","-0.4792802925756538","0.18809024810868896"
"-0.004143538904555341","-0.0033801383542468796","-0.0013790246473572168","0.021551805601846014","-0.015346702423675793","0.40873834769082373","0.7950615644472181","-0.5564837660049428","0.1843802856770426"
"0.005119745899457165","0.025338216683165785","-0.03282847811835387","0.008831572794339052","-0.036355063973048156","0.4173295156470462","0.7214453378353285","-0.6289246875019052","0.18815562189603074"
"0.0007889845390530232","0.020998455350612132","-0.023749629593048258","-0.08934154425888192","-0.05090631006785152","0.441598351681573","0.6400272401214969","-0.7073550787420149","0.16994902212134333"
"0.008686028709358667","-0.0018507308420276363","-0.02543900586550048","-0.14079088285241317","-0.10116076163013459","0.40046267460305013","0.53902087317672","-0.7850466807627057","0.10506553818462075"
"0.010382516374328023","-0.01702379538613426","-0.05045334010992759","-0.11637555301087214","-0.10574153219353158","0.3743736758659338","0.44152534822781675","-0.8537804634979407","0.03200052476207364"
"0.015284229599276335","-0.019069029963395663","-0.048898205228318135","-0.11624076806695198","-0.07668211935091604","0.3066878921656386","0.34664902286313654","-0.9095590495640775","-0.026535164423761533"
"-0.0016883496050821248","0.0062779599813723415","-0.029164720774429356","-0.09260141440255142","-0.058004829133178296","0.23834684989241114","0.26776653325743643","-0.9440182895841224","-0.08569517327871078"
"0.005509687729373516","-0.0007303702452606738","-0.03573015741272474","-0.05851526483473754","-0.04743363604095025","0.2385701231839288","0.19601718294493956","-0.9754300240740635","-0.1260994425453016"
"0.004075086923014642","0.00401131240132321","-0.03637451608877009","-0.07325399845240912","-0.06729560830094583","0.22778262556658166","0.12181581600040428","-1.003728289710739","-0.1644460718553097"
"0.003572495231122484","0.0020501723854508794","-0.022824396622316476","-0.06919215789241459","-0.06584287698852057","0.21307085716245147","0.04538534302674285","-1.0281611046100971","-0.21096769327240816"
"0.008546419906055305","0.0035988896542934285","-0.03528819344902697","-0.07733798225319054","-0.044868021597919125","0.15196192802751304","-0.019620961547647586","-1.045786504559094","-0.25069861252937864"
"-0.0020349645650077357","-0.017209725802248933","-0.08562045400640253","-0.17314889688925048","-0.026314704167633828","0.014521927731699866","-0.042803664250559134","-1.0461427065041708","-0.32002751400534263"
"-0.013819873202479236","-0.08813646660425015","-0.049243102340175746","-0.1347255603760051","-0.07074913595140657","-0.16822167954320583","-0.02243520790941949","-1.0176729362272734","-0.39984890834966336"
"-0.013945039715785697","-0.0918114487953882","0.011369549800634988","-0.07855008399887274","-0.1108655811884286","-0.45901815355971626","0.0738900363741929","-0.9638336718621113","-0.4692595270598046"
"-0.020973620847611014","0.03292189248234583","-0.03435056896529432","0.06240319660485346","0.1384944322759887","-0.626837154738469","0.24737021309093252","-0.8898360159385158","-0.4520498775420795"
"-0.09522624781834638","0.0571832149917895","-0.027652956188322964","-0.06888504077019646","0.19518445961934522","-0.6098732383503348","0.4394912889762391","-0.7970651982428973","-0.41797379089017356"
"-0.05571214238682434","0.03515721234535575","0.029514256415116957","-0.014692828567889586","0.26719637470923635","-0.57832375150545","0.6009342931356981","-0.6918273124695827","-0.3951910260015611"
"-0.014455333962342885","0.032528218584538776","0.03855489777533654","0.1118249845419854","0.3108979789347478","-0.5502932458855715","0.7418973856525604","-0.5996633573470586","-0.3046810174268584"
"0.016567667770334284","0.047705957356983485","0.01121738202098428","0.22659436429001797","0.35072244193105173","-0.47889433027199363","0.8456344074830168","-0.5226709665518895","-0.18277361313657942"
"0.024945158787870188","0.058709090864819964","-0.004466370111524495","0.2270564840977443","0.272772756847541","-0.38558065571923816","0.9120339033256112","-0.44504532785436124","-0.053769884230349584"
"0.038077051672386","0.058929298955413885","0.009279824395646254","0.19658545927578952","0.10993521851788207","-0.3159533651361808","0.9526314968810701","-0.3764302791008186","0.02452993521359104"
"0.04081627267513161","0.060169527541117346","0.0021339692883900175","0.0847197323196374","0.042393982326854804","-0.27360424625593155","0.9806067775466032","-0.31664112298640695","0.05954250136916807"
"0.012606629033850826","0.049419841080945555","0.018489114247807706","0.002364302360169028","0.0718674355599968","-0.016624696435011816","0.9894953378377433","-0.2857175170878675","0.07508021627562705"
"0.020106028819575114","0.0007995566256627999","0.023283184102628432","-0.03802699060927088","0.10565121678931332","0.23405369279790336","0.9733900467773069","-0.31865960067517685","0.09618614351892267"
"-0.008274033843669105","-0.16215858528346766","0.02030095997375189","-0.09107641903705453","0.13771182413898203","0.28467605788232275","0.9434921621616532","-0.3771954536495027","0.10826885376436826"
"-0.045833616028943834","-0.15481485320564234","-0.12158062473493329","0.2626685917806545","0.09917256166124871","-0.10633857453876597","0.9302289812883529","-0.36555952344365283","0.18253347618463717"
"0.06450259108938292","0.08241677699555347","-0.008922977762288136","0.2134143222738233","-0.07630397841621554","0.10775381630701902","0.9389782224526726","-0.3495832065737163","0.19363067658590533"
"-0.08606983596031094","-0.09968908162116293","0.020902154879510863","0.04232120271034619","-0.05680100071447992","0.2078554842986317","0.9175509407476979","-0.3778023162225968","0.2090915772922377"
"-0.01433979564236767","0.12460012967059805","-0.029144068252761238","0.04338696651691503","0.019961609029717966","0.038971081217963194","0.9115602182944216","-0.38173373028307667","0.2195023529264171"
"0.016373178265042688","0.12120352374492778","-0.039773921155342666","-0.18810039816839605","0.012892048858757494","0.33743650742138404","0.8757273388762193","-0.43396348956307573","0.22133281897198712"
"-0.036590550430926995","0.01157458779060106","-0.02885906345374118","-0.0579693858118608","0.01161666085811264","0.41944090438205006","0.8238727598736735","-0.5190165984486917","0.2003641766821093"
"0.008415476476750063","0.00994816407243148","-0.027235775250626936","0.0258601100592946","-0.028678563668922855","0.4192224848577393","0.7568045322223415","-0.591747758567569","0.200135368426413"
"-0.0006436906286395845","0.031117640343847574","-0.03747942599801452","-0.03176911821297685","-0.01504466833532642","0.4590476447903977","0.6734638305583887","-0.6711280216612174","0.1929932821593229"
"0.0022919455180638914","0.010496606864099343","-0.012642703439933253","-0.14926307932739585","-0.11496529904375725","0.48411735241406395","0.5657701455262335","-0.7620122883143908","0.14285158726817304"
"0.015738680324512148","-0.010958724438125457","-0.028933412531746413","-0.15437527970036838","-0.14555881529867032","0.4302405364174145","0.46231176194941814","-0.8394004590485344","0.05575082170334448"
"0.01648486530768539","-0.030525044261321518","-0.06820211723151003","-0.12407754980631096","-0.1071416109707454","0.373694148456967","0.35060568606483566","-0.9030022952417336","-0.014222011577936148"
"-0.004730858697762661","-0.0017806174169564615","-0.026849573095433087","-0.08349380319194502","-0.03899247732773126","0.26128089994503895","0.267181392924791","-0.9453639413766355","-0.06720092883971951"
"0.007047310204376935","0.008695574749567322","-0.016954949964236736","-0.04351947707401818","-0.06590031611784215","0.2532479152176106","0.1861812525914208","-0.9810105212136039","-0.10507196384681614"
"0.005288239282754348","-0.0017993143303087742","-0.04500107438954387","-0.058369889645223626","-0.04760595342891503","0.22957123878232624","0.11125542618741914","-1.0114591911853739","-0.13490692604492371"
"0.0030785689132284467","0.005911812094889537","-0.011095829566991056","-0.07353512133544264","-0.07283609098342442","0.24093148093008823","0.0356608679746799","-1.0359051987493644","-0.17771695068569227"
"0.019658317829671174","0.0049280220629871405","-0.028706234793397088","-0.06815912757222636","-0.05378544642509633","0.18837488961371704","-0.04428044699485527","-1.0601665090085","-0.22561142163696823"
"0.0008679357243694212","-0.0015343375194101533","-0.09484180493121817","-0.15919865519351192","0.015271225461198946","0.050447813778690904","-0.08376348753575126","-1.0640187670811851","-0.27777970393571344"
"-0.007869649723755888","-0.06097400637297249","-0.06832190185718512","-0.15822627809808779","-0.05684647335852618","-0.10442133649203836","-0.06880061331524227","-1.0428445403460502","-0.3638442949711747"
"-0.01582253741538287","-0.0996007906414437","0.033631336609656705","-0.12944969257112954","-0.1575923128915439","-0.34878910029089555","-0.004128674645221084","-0.9988206184674555","-0.4479803592800533"
"-0.022061606694044243","-0.01916147581274877","-0.02139937262721619","0.06601254485311596","0.07639555358818233","-0.6023984368517005","0.15179729209215048","-0.929743826451776","-0.4622808752610689"
