"AccX","AccY","AccZ","GyroX","GyroY","GyroZ","MagX","MagY","MagZ"
"0.08246494856819567","-0.09717019190564292","0.018221457566988872","0.0020208895780524","-0.008282886165647482","-0.0016639297731674322","-0.8228514553178778","0.7358432760637987","0.7456959672404526"
"0.08246494856819567","-0.09732703823432066","0.019146484012503972","-0.0006147337253467599","-0.009926363253361539","0.003170907741630995","-0.8242725104114458","0.7379013317464661","0.746480452688554"
"0.08232148848755978","-0.09717019190564292","0.018679117447154413","-0.00016041218937581312","-0.005469326147711488","0.0005654055049641989","-0.8279505353595038","0.7361599000149782","0.7462353009860222"
"0.08232052566822665","-0.0973259995169122","0.018832565683148544","0.0004486232072235105","-0.009561385452463923","-0.0005633380590016419","-0.8274489865029504","0.7365161019600555","0.744502895621465"
"0.08232148848755978","-0.09724809571127757","0.018832978733581907","-7.578649958592936e-05","-0.007184602147077536","0.0005535137753072807","-0.826501616440572","0.7368591112404999","0.7462516444328577"
"0.08260937146816467","-0.09732807695172913","0.019151647142921002","-0.0006826075721065643","-0.00784491280457034","0.00011060751767716682","-0.8279783991848679","0.7368459185758675","0.7462189575391869"
"0.08260937146816467","-0.0973259995169122","0.018226001121755857","-0.0007611679394200401","-0.005717511052321868","-0.0007526349800709512","-0.8282570374385086","0.7366744139356453","0.7468726954126046"
"0.08224927703757527","-0.09716915318823446","0.018522364807693384","0.002000190461664658","-0.009497963080504664","0.0018426743454613437","-0.8280062630102318","0.7366744139356453","0.746006492730326"
"0.08232052566822665","-0.0973259995169122","0.018832565683148544","0.00010424767550745278","-0.007853050014557566","-0.0007691377885744295","-0.8249969698709118","0.7387720476122099","0.7468890388594401"
"0.08246494856819567","-0.09717019190564292","0.018375731903849727","0.0006175857619234494","-0.01018651464324725","0.0003074277779171791","-0.8265573440913","0.7382443410269105","0.7462189575391869"
"0.08239273711821116","-0.09748076841077304","0.018525875736376964","0.0004548810796198046","-0.005705065907635523","-0.0007574887472778564","-0.8293994542784356","0.7352891841492345","0.7464477657948831"
"0.08246494856819567","-0.0973259995169122","0.01868345447670472","0.00011416399638158031","-0.007674749383955124","-0.002525716140753479","-0.8315728326568338","0.735962010045491","0.7468236650720985"
"0.08253716001818018","-0.0974818071281815","0.01868531320365485","9.596802895235614e-05","-0.005236458344253532","0.0014412677974502707","-0.8284799480414213","0.7363314046552006","0.7451402900480474"
"0.08232052566822665","-0.09748076841077304","0.01883173958228182","0.0007757655211097738","-0.0060336655932961315","0.004068369298187796","-0.8243839657129021","0.7377430197708763","0.7456142500062753"
"0.08246494856819567","-0.0974818071281815","0.01883690271269885","-0.00024397885460632427","-0.006561387593938261","-0.00032064969865637424","-0.8266687993927564","0.7363314046552006","0.7477715849885542"
"0.08246494856819567","-0.0973259995169122","0.018837935338782256","8.643680791800059e-05","-0.005200798218133045","0.0031983315263500105","-0.8307926455466396","0.7375187444721241","0.7476735243075416"
"0.08217706558759076","-0.09724601827646065","0.018210718255721448","-0.0005848884877644345","-0.005292700825047592","-0.0011851056382062189","-0.8258886122825622","0.7368723039051325","0.7451729769417182"
"0.08253716001818018","-0.0974818071281815","0.018531038866793994","0.0004546885296999186","-0.003981174038871236","-0.00030851528063911073","-0.828758586295062","0.7363314046552006","0.7457776844746298"
"0.08260937146816467","-0.09724913442868603","0.018534962845910937","0.0002728251303676198","-0.006754287336576607","0.0005508442033434829","-0.8303189605154504","0.7384026530025004","0.7457123106872882"
"0.08232052566822665","-0.0973259995169122","0.018832565683148544","-0.0002599604979568597","-0.006069565049122127","0.0027573667756026583","-0.8256378378542855","0.7380728363866883","0.747542776732858"
"0.08246494856819567","-0.09724913442868603","0.01883814186399894","0.0013115356731924859","-0.007807816700216812","0.0009779757175511542","-0.8299567307857173","0.7377166344416113","0.7455161893252628"
"0.08246494856819567","-0.0973259995169122","0.01852918013984386","0.0006166230123240195","-0.006951495013914074","0.0012075589064377778","-0.8292322713262514","0.7371757351916797","0.7481311408189341"
"0.08246494856819567","-0.09724913442868603","0.01883814186399894","0.00061373476352573","-0.006080334885869926","0.0018720396370631213","-0.8351672661287997","0.7376902491123463","0.745205663835389"
"0.08232148848755978","-0.09717019190564292","0.01883339178401527","0.0004674930993723356","-0.009417548299454433","-0.004074795944837324","-0.8329660239250375","0.7383894603378679","0.7452220072822247"
"0.08246494856819567","-0.0973259995169122","0.018837935338782256","-0.0007706028854944527","-0.006977581951814297","0.0005576394774331502","-0.829817411658897","0.7378881390818335","0.746594856816402"
"0.08246494856819567","-0.09732496079950374","0.018220631466122145","0.0006287536572768356","-0.007857597278962193","-0.0012132574880062699","-0.8284242203906931","0.7370306158807223","0.7457776844746298"
"0.08260937146816467","-0.0973259995169122","0.018380275458616716","0.0013148090218305473","-0.007602711142597625","0.0005387097853262194","-0.8282570374385086","0.7356453860943115","0.7438655011948826"
"0.08246494856819567","-0.09717019190564292","0.018375731903849727","0.0007922285392600244","-0.008464537412127016","0.0005377390318848382","-0.8266409355673923","0.7372153131855769","0.7451566334948827"
"0.08246494856819567","-0.09724809571127757","0.018529593190277225","0.000264834308692352","-0.006508017069610281","0.002090701849734208","-0.8288143139457901","0.7373736251611669","0.7455488762189335"
"0.08246494856819567","-0.09724809571127757","0.018529593190277225","0.0006293313070364936","-0.006137534685486011","-0.0009819754805972293","-0.8249691060455477","0.7363445973198331","0.7464967961353894"
"0.08246494856819567","-0.09724809571127757","0.018529593190277225","0.0006216293102410547","-0.0056775429915022595","0.0005576394774331502","-0.828758586295062","0.7366744139356453","0.7459901492834905"
"0.08232052566822665","-0.09716915318823446","0.018216294436571842","0.0004543034298601466","-0.0082871941003466","-0.0012135001763666148","-0.8306533264198191","0.7366744139356453","0.7455161893252628"
"0.08253716001818018","-0.09717123062305139","0.018841239742249157","-0.000335825166391932","-0.004820263986377496","0.001007583697513277","-0.8297338201828048","0.7373604324965343","0.747036129880959"
"0.08246494856819567","-0.09724809571127757","0.018529593190277225","0.001143054493292262","-0.007612284330817893","0.00010235611342542767","-0.8321022453387513","0.736832725911235","0.7457123106872882"
"0.08275379436813368","-0.09732703823432066","0.018231164252172888","0.001148542166009012","-0.007417230620829985","-0.0007776318811865139","-0.8326595218460328","0.7352627988199696","0.747036129880959"
"0.08260937146816467","-0.0973259995169122","0.01791724592281746","0.0002766761287653391","-0.0061191062981619995","0.00011618934996510787","-0.829455181929164","0.7373868178257993","0.7433588543429837"
"0.08232052566822665","-0.09748076841077304","0.01883173958228182","0.001129479723940301","-0.007777421827617469","0.002517833363941879","-0.8305140072929987","0.7359752027101236","0.7464150789012122"
"0.08246494856819567","-0.0973259995169122","0.01852918013984386","0.0006211479354413398","-0.008045949757195912","0.00010259880178577275","-0.8278112162326835","0.7368591112404999","0.7446990169834903"
"0.0825381228375133","-0.0970164617291906","0.018687791506255023","9.895255271058865e-05","-0.005678739640029793","0.0007794566387887251","-0.8307090540705474","0.7363314046552006","0.7450912597075411"
"0.08232052566822665","-0.0974818071281815","0.019294562592864394","0.000780771819026809","-0.007347585676527554","0.002742320097261252","-0.8287864501204262","0.7361599000149782","0.7455652196657688"
"0.08260937146816467","-0.09717123062305139","0.018535375896344297","-0.0012840372468703922","-0.006580533970378792","-0.0007553045520347493","-0.8295109095798922","0.7351176795090122","0.7453690983037436"
"0.08246494856819567","-0.0973259995169122","0.01852918013984386","0.0004403435606684138","-0.006081770864102965","0.0018732530788648477","-0.8299567307857173","0.7366744139356453","0.7451076031543766"
"0.08246494856819567","-0.0973259995169122","0.01852918013984386","0.0007956944378179718","-0.007400956200855534","0.00010599643883060653","-0.8313777858792852","0.7361467073503458","0.7455161893252628"
"0.08246494856819567","-0.09732496079950374","0.018220631466122145","8.662935783788659e-05","-0.00562919839098992","0.0031954192660258673","-0.8269474376463971","0.7351308721736447","0.7451893203885539"
"0.08232148848755978","-0.09717019190564292","0.018524843110293555","-0.0005972116826371366","-0.0065412838986757035","0.0007804273922301062","-0.8301239137379018","0.736832725911235","0.7468236650720985"
"0.08246494856819567","-0.09748076841077304","0.018065531028394564","-0.00026207854707560553","-0.006704746087536734","0.0031903228104586162","-0.8320743815133872","0.7377034417769789","0.746333361667035"
"0.08260937146816467","-0.09732703823432066","0.018534549795477574","-0.00010168446381059228","-0.007733145832098743","0.0053757314953677545","-0.829817411658897","0.7352891841492345","0.746006492730326"
"0.08224927703757527","-0.0973259995169122","0.019138636054270085","-0.00026958799395115836","-0.006896449181647548","0.004289215706101989","-0.8314613773553774","0.7361467073503458","0.7448787948986801"
"0.08232148848755978","-0.09717019190564292","0.0183705687734327","0.0003497488233620648","-0.008222096420448795","0.0020802662502393612","-0.8298731393096251","0.737188927856312","0.7459574623898197"
"0.0825381228375133","-0.09717226934045985","0.019149788415970873","-0.0007742613339722862","-0.007827441736068357","0.0009898674472080724","-0.8295387734052562","0.7372153131855769","0.7427214599164013"
"0.08246591138752879","-0.09693855792355595","0.01884000059094907","-6.442605431265703e-05","-0.006581969948611831","-0.0014200279710204382","-0.8310991476256445","0.7368459185758675","0.7448624514518448"
"0.08260937146816467","-0.0973259995169122","0.018226001121755857","0.00010492160022705368","-0.006129876134909798","-0.00032186314045810075","-0.8361146361911783","0.7354474961248244","0.7430646722999457"
"0.08246494856819567","-0.09748076841077304","0.018219805365255422","-0.00025986422299691683","-0.008653129220066245","0.002299171151270793","-0.8296223648813483","0.7358168907345338","0.7446990169834903"
"0.08246494856819567","-0.09732496079950374","0.018066357129261287","1.33641133212749e-05","-0.006111926406996801","0.0005586102308745312","-0.8330217515757657","0.736120322021081","0.7472322512429846"
"0.08232052566822665","-0.0973239220820953","0.01806119399884426","0.0014933990725247849","-0.005677064332091247","0.00011497590816338159","-0.8310155561495522","0.7361467073503458","0.7455325327720981"
"0.08231667439089414","-0.09733119310395451","0.017938104969702263","0.0007981975867764894","-0.007422017214940117","-0.0016430585741777394","-0.8347214449229744","0.7366744139356453","0.7445355825151359"
"0.08217321431025826","-0.09717642421009372","0.0188594139613171","0.0011349673966570511","-0.0037191080113414716","0.001015835101765016","-0.8312106029271008","0.7356453860943115","0.7457123106872882"
"0.08253427156018078","-0.0971795403623191","0.01933545458576727","0.0003538886466396132","-0.006535300656038037","0.00011958698700994166","-0.830569734943727","0.7375583224660215","0.7452546941758955"
"0.08246206011019629","-0.09717850164491064","0.018869946747367843","-0.00035373230894132716","-0.009508493587546955","0.0018606332841268937","-0.8329102962743096","0.7372021205209445","0.7443394611531106"
"0.08253330874084766","-0.09733327053877146","0.018717324612240436","0.0003314565809728977","-0.007309053593940986","0.00428509000397612","-0.8304582796422707","0.7368591112404999","0.7461372403050096"
"0.08231667439089414","-0.09748803943263225","0.018862924890000684","0.0004319676391533741","-0.008436535836582739","0.0014257357423881735","-0.8311548752763726","0.7358300833991662","0.743113702640452"
"0.08246109729086315","-0.09733223182136297","0.018406091110701867","0.001141417818973231","-0.00675907393068674","-0.0007640413330071788","-0.8303468243408143","0.7365292946246879","0.7439799053227307"
"0.08246109729086315","-0.09733223182136297","0.018251816773841006","0.0014052112092170106","-0.008275706274482281","-0.0016539795503932764","-0.8325202027192125","0.7370306158807223","0.7443558045999459"
"0.08246109729086315","-0.09748907815004071","0.018868088020417714","0.002095502672008214","-0.007823133801369238","-0.0007771465044658234","-0.8358359979375376","0.7377166344416113","0.7447153604303257"
"0.08260552019083217","-0.0971795403623191","0.018875109877784874","8.75921074373164e-05","-0.0078073380408057984","0.000989624758847727","-0.8377028742369306","0.7380464510574233","0.7446663300898194"
"0.08231763721022727","-0.09717746292750218","0.018710302754873273","0.0011329456224982485","-0.009529075942220525","9.67742811374866e-05","-0.8286192671682417","0.7363445973198331","0.7457449975809589"
"0.08260552019083217","-0.09733430925617992","0.019182832450639863","-0.0004353734749729786","-0.010824088978716923","0.0005336133297589688","-0.8340248492888725","0.7366876066002777","0.7441269963442497"
"0.08231763721022727","-0.09733327053877146","0.018863750990867408","-0.0007669444370166193","-0.007436855656681529","-0.0016331083514035834","-0.8355016320331685","0.7361599000149782","0.7441106528974142"
"0.08246109729086315","-0.09733223182136297","0.018251816773841006","-0.0004271901033778249","-0.006755483985104141","0.00012371268913581135","-0.8339412578127804","0.737545129801389","0.744976855579693"
"0.08246109729086315","-0.09748803943263225","0.018559539346695998","0.00010232217630859316","-0.006567370836575927","-0.0014146888270928424","-0.8320743815133872","0.7375583224660215","0.7450095424733638"
"0.08253330874084766","-0.09748803943263225","0.018407949837651996","3.062692607375464e-06","-0.008244832742471925","0.000549145384821066","-0.8403499376465179","0.739431680843834","0.7443721480467814"
"0.08253330874084766","-0.09733327053877146","0.01856305027537958","0.0014874300250083195","-0.006966572785360992","-0.0005490194457412716","-0.8353901767317122","0.7380728363866883","0.7423292171923507"
"0.08231763721022727","-0.09733327053877146","0.018863750990867408","0.0002614646850943475","-0.009528357953104007","0.0005413793572900173","-0.8321301091641153","0.7384158456671329","0.7447643907708322"
"0.08260552019083217","-0.09717850164491064","0.01856656120406316","0.00025578446245771134","-0.006921100141314731","0.0023115482576484014","-0.8343592151932414","0.7385873503073551","0.7447153604303257"
"0.08274994309080118","-0.0971795403623191","0.018725998671341046","-0.00025553184979948233","-0.008257995876274791","0.00010915138751509522","-0.8352508576048918","0.7384158456671329","0.7436203494923509"
"0.08246109729086315","-0.09733223182136297","0.018251816773841006","-0.00027469056682813647","-0.00688926929048235","0.004072980377034356","-0.8342198960664211","0.7378881390818335","0.7458267148151361"
"0.08231763721022727","-0.09717746292750218","0.01855602841801242","0.001978721145597373","-0.007493576796886601","0.004934524056260057","-0.8317957432597465","0.735658578758944","0.7439635618758953"
"0.08238888584087865","-0.09733223182136297","0.018557887144962548","0.0004331229386726899","-0.007793456917886413","0.0014291333794330073","-0.8358359979375376","0.7368459185758675","0.7445192390683003"
"0.08246109729086315","-0.09725536673313682","0.018560778497996085","0.0006939318051582365","-0.008654086538888271","0.0012012490090688008","-0.8372570530311053","0.7387456622829449","0.7453037245164018"
"0.08246109729086315","-0.09725536673313682","0.018560778497996085","0.0007783649450282344","-0.0077819690920220945","0.0018652443629734537","-0.8333003898294065","0.7387588549475775","0.7445192390683003"
"0.08253330874084766","-0.09733327053877146","0.018717324612240436","-0.0007596275400609525","-0.007464857232225805","-0.0029530903433214956","-0.8365883212223676","0.7370174232160897","0.744502895621465"
"0.08231667439089414","-0.09733119310395451","0.01824665364342398","0.0011292871740204154","-0.005203430844893617","0.0018822325481976225","-0.8371455977296491","0.7390886715633895","0.7463823920075413"
"0.08246206011019629","-0.09710059783927599","0.01871608546094035","0.0006111353396072693","-0.006085360809685565","0.000999574981621883","-0.8369505509521006","0.7392733688682442","0.7448787948986801"
"0.08246109729086315","-0.09733327053877146","0.01886912064650112","0.0006056476668905192","-0.00951304085195158","0.0011961525535015502","-0.8357802702868093","0.7382311483622781","0.7451402900480474"
"0.08260552019083217","-0.09733327053877146","0.018565735103196434","-0.0007744538838921723","-0.004391624483815114","0.0005792387415038791","-0.8389567463783141","0.7368195332466024","0.7461862706455159"
"0.08231667439089414","-0.0975659432382669","0.01886251183956732","-0.0002536063506006229","-0.004384923252060928","0.0005794814298642244","-0.8357524064614451","0.7392865615328768","0.7427214599164013"
"0.08231763721022727","-0.09717642421009372","0.018247479744290702","0.0006052625670507473","-0.003474513052313691","0.0027750830259078633","-0.835334449080984","0.7408301032948773","0.7463823920075413"
"0.08246109729086315","-0.09748907815004071","0.018868088020417714","9.558292911258415e-05","-0.006974470665642711","-0.00031992163357533876","-0.8346378534468822","0.7392733688682442","0.7457776844746298"
"0.08231667439089414","-0.09733223182136297","0.01855520231714569","7.652048704387315e-05","-0.00840877359074397","0.0029646226353375175","-0.83304961540113","0.7399857727583983","0.7438491577480469"
"0.08231763721022727","-0.09717850164491064","0.019173125765455847","-0.0004491407942448254","-0.008400875710462252","0.0036264337939990628","-0.8377864657130228","0.7399593874291334","0.7444048349404524"
"0.08231763721022727","-0.09717746292750218","0.01886457709173413","-0.0002534138006807367","-0.006110011769352748","0.0001285664563427165","-0.840795758852343","0.7383894603378679","0.7435222888113381"
"0.08246109729086315","-0.09733327053877146","0.01886912064650112","-0.0002641965961943511","-0.007362663447974472","0.0018747092090269193","-0.8363096829687268","0.7382311483622781","0.7438164708543763"
"0.08260552019083217","-0.09733327053877146","0.01825718642947472","0.00027041825636904516","-0.004819785326966483","0.00013075065158582399","-0.8339412578127804","0.7391018642280219","0.7453690983037436"
"0.08253330874084766","-0.09733327053877146","0.018254501601657865","0.0006038184426516025","-0.007779336465261522","0.0020851200174462664","-0.8339133939874162","0.7399725800937659","0.7457776844746298"
"0.08231667439089414","-0.09733119310395451","0.01824665364342398","-9.224951773617974e-05","-0.008427680637478993","0.002087546901049719","-0.8362818191433626","0.7385741576427227","0.7442577439189333"
"0.08246109729086315","-0.09733327053877146","0.01886912064650112","8.460758367908389e-05","-0.004347587818001893","0.0023319340799174038","-0.8369784147774646","0.7404739013498003","0.7450585728138701"
"0.08224542576024275","-0.09733223182136297","0.018706998351406375","0.0007782686700682915","-0.005626565764229347","0.002321498480422557","-0.841520218311809","0.7387324696183124","0.7437184101733636"
"0.08260552019083217","-0.09702269403364135","0.017950289957486452","0.0004263836914766809","-0.010136494734796364","0.0022884928634156008","-0.8380093763159354","0.7397746901242787","0.7454835024315917"
"0.08231763721022727","-0.09733223182136297","0.018709476654006553","-0.0003447787376666297","-0.009971596567702292","0.00010308417850646336","-0.838204423093484","0.739787882788911","0.7439635618758953"
"0.08246206011019629","-0.09717850164491064","0.01871567241050699","0.00041531207108323764","-0.006865575649637193","0.00494665847427732","-0.8358638617629015","0.7417008191606211","0.7452710376227311"
"0.08246109729086315","-0.09725536673313682","0.018715259360073625","8.306718431999608e-05","-0.0077884309940707734","0.0018696127534596685","-0.8357245426360812","0.7385741576427227","0.7457776844746298"
"0.08260552019083217","-0.09717850164491064","0.01856656120406316","0.0014793429283731087","-0.006936417242467156","0.0009869551868839292","-0.84043352912261","0.7389171669231673","0.743734753620199"
"0.08246109729086315","-0.09733223182136297","0.018251816773841006","0.0006091135654484667","-0.008229994300730516","0.0009852563683615122","-0.8362260914926344","0.7406585986546549","0.7450749162607055"
"0.08246109729086315","-0.09733223182136297","0.018251816773841006","0.0002666635329312687","-0.003943120615695681","0.0010163204784857064","-0.8402663461704255","0.7413314245509117","0.7456305934531107"
"0.08231763721022727","-0.09733223182136297","0.018709476654006553","0.000955992246123042","-0.004347348488296387","0.00188902782228729","-0.8399319802660568","0.7409884152704671","0.745205663835389"
"0.08246109729086315","-0.09748803943263225","0.018713813683556853","0.0014767435044546482","-0.006926604724541385","0.001427919937631281","-0.8401548908689692","0.7408169106302447","0.743473258470832"
"0.08260552019083217","-0.09717850164491064","0.01856656120406316","-8.897616909811822e-05","-0.006503948464616668","0.0018776214693510622","-0.8421889501205468","0.7415029291911337","0.744944168686022"
"0.08231763721022727","-0.09725536673313682","0.01886416404130077","0.00044101748538801476","-0.008686396049131666","-0.0003322987399529472","-0.8400991632182411","0.7413446172155441","0.7438981880885535"
"0.08253330874084766","-0.09733430925617992","0.018871598949101294","0.0002543403380585666","-0.005839329872424744","0.0027590655941250753","-0.837117733904285","0.7411731125753217","0.7439635618758953"
"0.08231763721022727","-0.09733223182136297","0.018709476654006553","-0.0006197400232637951","-0.00819624881225408","0.003189837433737926","-0.8400155717421489","0.740117699404723","0.7443558045999459"
"0.08274994309080118","-0.09725640545054529","0.01826276261032511","0.00010145570166910626","-0.008718705559375062","-0.0016522807318708594","-0.8408236226777072","0.7427166543373224","0.7442904308126043"
"0.08231763721022727","-0.09733223182136297","0.018709476654006553","-0.00043335170081417596","-0.006518308246947066","0.0012245470916619464","-0.8432756393097458","0.7411599199106893","0.7421167523834897"
"0.08253330874084766","-0.09717850164491064","0.018563876376246305","0.0003662118415123153","-0.004854009474853932","-0.0016253423238725348","-0.8412415800581683","0.7432443609226216","0.7440452791100726"
"0.08246109729086315","-0.09725536673313682","0.018560778497996085","0.0011283244244209853","-0.007787713004954255","0.0014240369238657565","-0.8411022609313479","0.7420174431118007","0.744944168686022"
"0.08231667439089414","-0.09733223182136297","0.01855520231714569","0.0006122906391265851","-0.009104744374357264","0.00010284149014611826","-0.8403499376465179","0.7437588748432884","0.7453527548569083"
"0.08231763721022727","-0.09717642421009372","0.018247479744290702","0.0004507412563422562","-0.006996249668843815","-0.0016379621186104886","-0.8417152650893576","0.7409752226058345","0.7456142500062753"
"0.08231667439089414","-0.09748803943263225","0.019171473563722397","0.0006154677128047037","-0.007826963076657343","-0.0003272022843856967","-0.8399319802660568","0.7434290582274764","0.7427704902569077"
"0.08274994309080118","-0.0971795403623191","0.018571724334480188","-0.001021591706065815","-0.008755562334023083","-0.002962797877735306","-0.8424675883741876","0.7437588748432884","0.7431463895341229"
"0.08246206011019629","-0.09717746292750218","0.018561398073646127","0.0007835637928651557","-0.007370561328256191","0.0009898674472080724","-0.840795758852343","0.7446295907090322","0.7448951383455157"
"0.08231667439089414","-0.09733223182136297","0.01855520231714569","-0.0014840966136319153","-0.008436296506877232","0.0023156739597742708","-0.8395418867109596","0.7444712787334424","0.7431954198746292"
"0.08231667439089414","-0.09764176960908462","0.017936452767968816","0.00130392995135699","-0.007788909653481788","0.0012053747111946702","-0.8426347713263721","0.7458433158552207","0.7424436213201988"
"0.08246109729086315","-0.09717746292750218","0.018252642874707733","0.0014879113998080347","-0.007828399054890382","-0.0007737488674209896","-0.8435821413887507","0.7451441046296992","0.7435222888113381"
"0.08246109729086315","-0.09733223182136297","0.01809754243698015","0.0014805945028523678","-0.008230712289847035","0.0005408939805693267","-0.8422168139459109","0.7453288019345538","0.7426887730227305"
"0.08231763721022727","-0.09725432801572836","0.018555615367579055","0.0002784090780443129","-0.003557321130418987","-0.0011744273503510269","-0.8423004054220032","0.7456850038796309","0.7420186917024771"
"0.08246206011019629","-0.0971795403623191","0.019487044094811275","-7.260942590781067e-05","-0.006569764133630993","-0.0014137180736514612","-0.8415480821371732","0.7470702336660416","0.7424436213201988"
