"AccX","AccY","AccZ","GyroX","GyroY","GyroZ","MagX","MagY","MagZ"
"0.058605322673981546","0.09740339176484118","0.0016777550847412437","0.0003390623028083935","-0.009264137958224682","-5.757551604210386e-05","-0.39834607589617393","-0.7976324828220942","-0.6949625278573207"
"0.058606285493314675","0.09732548795920654","0.0016779616099579253","0.0011071439332335285","-0.007370321998550684","0.00038387461142593834","-0.39870830562590687","-0.7976324828220942","-0.69475006304846"
"0.058606285493314675","0.09740339176484118","0.0019877494349797263","0.0006856521586031399","-0.0077908242911258405","-0.00047524218419631","-0.4010210031311253","-0.7971179689014274","-0.6943905072180802"
"0.05867945976263231","0.0971686416305288","0.002301461239118472","0.0005053291586299287","-0.0027340269434761645","0.0010585482531857832","-0.3975380249606157","-0.7968145376148803","-0.6938675169193459"
"0.05846378823201191","0.0970896991074857","0.002292374129584498","0.0013395516865358946","-0.002311370683551448","0.003631287561205969","-0.3994606289107369","-0.7968013449502477","-0.6941290120687129"
"0.058175905251407006","0.09716656419571187","0.0025895639163887466","0.0014421807938351167","-0.006101395899954509","0.001249543992777509","-0.4026649688276058","-0.797738024139154","-0.6961555994763083"
"0.05867945976263231","0.09724654543616344","0.0023012547139017905","0.0012040928178961147","-0.0033692079818907717","-0.000658471896256987","-0.4004079989731155","-0.7965506843222305","-0.6963190339446628"
"0.058461862593345654","0.09740339176484118","0.0016715593282408073","0.002226629167450559","-0.007793935577297427","-0.00047499949583596493","-0.39937703743464475","-0.7986878959926929","-0.6936877390041559"
"0.05875070839328368","0.09717071906534572","0.0016845704168917234","0.0008571178622615962","-0.003579578793031104","-1.85026900265158e-05","-0.39831821207080986","-0.7973158588709146","-0.6943087899839029"
"0.058462825412678776","0.09724654543616344","0.0019819667289126537","0.00017741664506412149","-0.006102353218776536","-0.0008921807872694805","-0.3979838461664409","-0.7972894735416497","-0.6951749926661814"
"0.05846378823201191","0.09724550671875498","0.002291961079151136","0.0001567175286763797","-0.003572638231571411","0.0016956051990921115","-0.40288787943051846","-0.7986615106634278","-0.6940146079408648"
"0.05846378823201191","0.09724550671875498","0.0026017489041729384","0.0006912361062798329","-0.004418429410831857","-0.0008798036808918716","-0.39870830562590687","-0.7979754921025387","-0.69475006304846"
"0.058678496943299185","0.09740235304743272","0.0023008416634684274","0.00017067739786811255","-0.003997448458845687","-1.9958820188587394e-05","-0.39876403327663507","-0.798120611413496","-0.6956162657307385"
"0.058678496943299185","0.09740339176484118","0.0019908473132299437","0.0007144383716260924","-0.0035800574524421165","-0.0034435635195792817","-0.39720365905624677","-0.7964583356698033","-0.694717376154789"
"0.05839061396269428","0.09724654543616344","0.001978868850662435","0.0012127575642909832","-0.00484132500046208","-0.0017396485415951562","-0.397315114357703","-0.79707839090753","-0.6964497815193464"
"0.05846378823201191","0.0970896991074857","0.002292374129584498","0.0010307016150387985","-0.004419386729653883","-0.00045242947832385477","-0.3965070634221449","-0.7965902623161281","-0.6959921650079539"
"0.058606285493314675","0.0972475841535719","0.0016781681351746055","0.0013796983448321194","-0.006108336461414201","-0.0013205257432788782","-0.3984296673722661","-0.7970915835721625","-0.6960411953484602"
"0.058461862593345654","0.09748129557047583","0.0016715593282408073","-1.840662345991014e-05","-0.009470918823782414","0.0016545908661937613","-0.39489096155102843","-0.7973158588709146","-0.6950769319851688"
"0.058605322673981546","0.09740339176484118","0.0016777550847412437","-0.0005303968604367049","-0.005046909217492278","0.0018994634217821365","-0.3955596933597663","-0.7973422442001795","-0.6938021431320041"
"0.058605322673981546","0.09740339176484118","0.0016777550847412437","0.0005145715547844553","-0.0031554865548733477","-1.4376987900646332e-05","-0.39829034824544574","-0.7969860422551025","-0.6938838603661812"
"0.058606285493314675","0.09732444924179809","0.002142849872707309","-0.000838958107053972","-0.006101635229660015","-0.002176972966937329","-0.3995999480375573","-0.7974214001879745","-0.6960738822421311"
"0.05839157678202741","0.09724446800134652","0.002598857551139401","0.0010911622898829932","-0.00757686353440291","0.0020960409936618034","-0.3979838461664409","-0.7979622994379062","-0.6955999222839031"
"0.05846378823201191","0.09724550671875498","0.0026017489041729384","0.00103946263639361","-0.006526684786639798","-0.0017512975828917288","-0.39881976092736326","-0.7964055650112732","-0.6958450739864348"
"0.0586072483126478","0.09724654543616344","0.00214305639792399","0.0006637014677361391","-0.007789148983187295","0.0020938567984186965","-0.39971140333901367","-0.7956799684564867","-0.6971688931801059"
"0.058893205654586445","0.09740443048224964","0.0016903531229587971","0.0005127423305455386","-0.005686876850017019","-3.233592656619602e-05","-0.39879189710199914","-0.797434592852607","-0.6958450739864348"
"0.05867753412396605","0.09740443048224964","0.001681059488208143","0.00019647908713283258","-0.00526374193068129","-0.003027352981587148","-0.3956990124865867","-0.7984768133585731","-0.6959594781142829"
"0.058606285493314675","0.09732548795920654","0.0018330620476855065","0.0013514897815688246","-0.003788752955643902","0.002122494024939438","-0.3986804418005429","-0.7981601894073934","-0.694537598239599"
"0.0586072483126478","0.09724654543616344","0.0022981568356515727","-0.0006770236244298712","-0.008629435579221087","-0.0013384846819444283","-0.39918199065709614","-0.7952446105236148","-0.6947827499421309"
"0.058461862593345654","0.09755712194129355","0.0022911349782844116","0.0008475866412272407","-0.009263419969108162","0.0003719828817690203","-0.3979281185157127","-0.7986483179987952","-0.6951586492193461"
"0.058748782754617423","0.09748233428788429","0.0016839508412416792","0.0011903254986242676","-0.005054807097773997","0.000829207752659505","-0.3986525779751788","-0.7980018774318037","-0.6939002038130166"
"0.05874974557395056","0.09740339176484118","0.0018390512789692617","-0.0006795267733883889","-0.0048389317034070135","-0.0006689074957518338","-0.4000179054180185","-0.7962208677064185","-0.6960902256889665"
"0.05853503686266329","0.09724654543616344","0.0019850646071628716","0.0008437356428295214","-0.006104028526715082","0.001249301304417164","-0.39937703743464475","-0.7966694183039229","-0.6982312172244101"
"0.0586072483126478","0.0972475841535719","0.001988162485413089","0.00136939692411822","-0.001893979677147878","0.00020841092689630972","-0.3952531912807615","-0.7978303727915814","-0.6948808106231436"
"0.058461862593345654","0.09748129557047583","0.0015164588905132248","-0.0009174221994075051","-0.0018867997859826793","-0.002574981877903568","-0.398011709991805","-0.797434592852607","-0.695812387092764"
"0.058605322673981546","0.09740339176484118","0.0016777550847412437","1.760021155876622e-05","-0.005683047574728912","-0.00217381801825284","-0.398011709991805","-0.7971047762367948","-0.6953874574750424"
"0.058605322673981546","0.09740339176484118","0.0016777550847412437","0.00016364932579227462","-0.00483917103311252","0.0008304211944612313","-0.39973926716437763","-0.7988725932975476","-0.6932791528332698"
"0.05875070839328368","0.09724862287098036","0.0016843638916750419","0.0007000934025945876","-0.004212127204685138","-0.0017357655278296314","-0.39603337839095565","-0.7964715283344357","-0.6944722244522574"
"0.058606285493314675","0.09740235304743272","0.0022977437852182087","0.0010354190880760047","-0.0018932616880313583","-0.0008616020538659765","-0.3986804418005429","-0.7969860422551025","-0.6939002038130166"
"0.05846378823201191","0.09724550671875498","0.002291961079151136","0.001180120352870311","-0.006103789197009575","0.001891940082611433","-0.3977609355635282","-0.7960361704015638","-0.6968910545839033"
"0.058461862593345654","0.09740339176484118","0.0016715593282408073","2.308788427551635e-05","-0.0031535719172292947","-0.002583961347236344","-0.3995163565614651","-0.7969464642612051","-0.6947827499421309"
"0.05867753412396605","0.09740443048224964","0.001681059488208143","0.001206499691894689","-0.0006307974914838627","-0.0006388141390690209","-0.3995442203868292","-0.7967749596209828","-0.6949952147509917"
"0.058605322673981546","0.09740443048224964","0.0015228611722303428","0.0011857043005470045","-0.006948862387153501","0.0012437194721292226","-0.39720365905624677","-0.7967881522856153","-0.6949298409636498"
"0.058605322673981546","0.09740339176484118","0.0016777550847412437","0.0013772914708335448","-0.009057596422372456","-0.0013406688771875354","-0.39188166841170824","-0.7969464642612051","-0.6963026904978274"
"0.058605322673981546","0.09740339176484118","0.0016777550847412437","-0.0005010329976540943","-0.007787952334659762","-0.001760519740584849","-0.3934699064574605","-0.797434592852607","-0.6969891152649161"
"0.0586072483126478","0.09724550671875498","0.002608151185890055","0.000891006648161527","-0.005686876850017019","-0.004315300109939485","-0.3928290384740869","-0.7960361704015638","-0.6982639041180809"
"0.058606285493314675","0.09740235304743272","0.002142849872707309","0.000522754926379609","-0.0010491458167094586","-0.0008557775332176901","-0.39879189710199914","-0.7962604457003161","-0.695191336113017"
"0.05874974557395056","0.09740339176484118","0.002149045629207744","0.0008634720096178333","-0.0033692079818907717","-0.0008722803417211684","-0.3971479314055187","-0.79697284959047","-0.6942924465370673"
"0.058678496943299185","0.097326526676615","0.001681059488208143","0.0005335377218932233","-0.007792499599064387","-0.002617209652603645","-0.39854112267372255","-0.7968805009380427","-0.697348671095296"
"0.058606285493314675","0.0972475841535719","0.0016781681351746055","0.0001624940262729588","-0.004417711421715337","0.001046656523528865","-0.39812316529326125","-0.7942023900176486","-0.6956162657307385"
"0.058319365332042905","0.09732237180698117","0.002595553147672502","0.0008435430929096353","-0.007365296074735045","0.0010269987663408984","-0.39745443348452353","-0.7961812897125211","-0.6981821868839038"
"0.05867753412396605","0.09740443048224964","0.0013710651379696592","0.0008380554201928851","-0.0069483837277424885","0.0018861155619631469","-0.3955875571851304","-0.7968277302795127","-0.6994242888433976"
"0.058605322673981546","0.09740443048224964","0.0015228611722303428","0.00017067739786811255","-0.008210608594584477","-0.0002643459990562722","-0.39870830562590687","-0.794782867261478","-0.6988686116509925"
"0.05867753412396605","0.09740443048224964","0.001681059488208143","0.00017009974810845463","-0.006104507186126096","-3.5248186890339405e-05","-0.39333058733064014","-0.7953105738467773","-0.6939655776003585"
"0.05874974557395056","0.09724862287098036","0.0013745760666532398","0.0005279537742165302","-0.003579578793031104","-0.0015173460035188902","-0.39427795739301874","-0.7972498955477522","-0.6972179235206124"
"0.058461862593345654","0.09740339176484118","0.0016715593282408073","0.00019214671393539824","-0.0035752708583319842","-0.00237282247373596","-0.39472377859884394","-0.7948620232492728","-0.697021802158587"
"0.05860821113198092","0.0970896991074857","0.0029183520613452188","0.000865204958896807","-0.005684722882667459","-0.00131785617131508","-0.3927454469979946","-0.7962472530356834","-0.6969727718180807"
"0.058462825412678776","0.09740131433002426","0.0022915480287177734","0.0006707295398119771","-0.0023101740350239155","0.0017053127335059223","-0.3912408004283343","-0.7952182251943498","-0.6971525497332706"
"0.05875070839328368","0.09724862287098036","0.0016843638916750419","0.000852111564344561","-0.005264699249503315","0.00039819322468630914","-0.3934699064574605","-0.7959174364198714","-0.6961229125826374"
"0.058605322673981546","0.09748233428788429","0.0015226546470136601","1.8948060997968025e-05","-0.009054006476789856","-0.002625461056855384","-0.3986247141498147","-0.7941496193591188","-0.697348671095296"
"0.058534074043330164","0.09740339176484118","0.0016748637317077074","0.000806766058211415","-0.0050540891086574774","-0.004310446342732579","-0.39438941269447503","-0.7951786472004524","-0.6981004696497265"
"0.0586072483126478","0.0972475841535719","0.001988162485413089","-0.00035565780814018693","-0.0025195875273422196","0.0017026431615421243","-0.39631201664459637","-0.7949939498955976","-0.6979370351813721"
"0.058318402512709776","0.09740131433002426","0.002285352272217337","0.0010272357164808508","-0.0056813722667903655","-0.0002456589953096866","-0.3931912682038198","-0.7962076750417859","-0.6978389745003593"
"0.05838965114336114","0.09748025685306737","0.0019782492750123905","-6.442605431265703e-05","-0.005048345195725318","-0.0025968238303346425","-0.3955039657090381","-0.7955216564808969","-0.6976918834788404"
"0.0586072483126478","0.09724654543616344","0.00214305639792399","0.0006618722434972225","-0.00526086997421521","0.002540160693093644","-0.3950024168524847","-0.7955744271394268","-0.6959594781142829"
"0.05874974557395056","0.09740443048224964","0.0016841573664583616","-0.0005801710147272282","-0.0037868383179998485","-0.0021604701584338505","-0.3948630977256643","-0.7941232340298537","-0.6987542075231443"
"0.058317439693376646","0.09740235304743272","0.0015104696592294709","0.0008721367560127019","-0.0027328302949486314","-0.0017243591748934042","-0.3955596933597663","-0.7941628120237512","-0.6977082269256758"
"0.058319365332042905","0.09716760291312034","0.0021308714101397996","0.0011988939700591933","-0.0035752708583319842","-1.7774624945480114e-05","-0.3955875571851304","-0.7941364266944861","-0.6981331565433975"
"0.058462825412678776","0.09740235304743272","0.0021366541162068722","0.0011213926273050902","-0.006948144398036982","-0.0013256221988461288","-0.39383213618719354","-0.7955876198040592","-0.6959267912206121"
"0.05839061396269428","0.09724654543616344","0.0016688745004239513","0.00016721149931016514","-0.010735776317384975","-6.849649225764089e-05","-0.3919095322370722","-0.7949279865724352","-0.6954364878155487"
"0.05875070839328368","0.09724862287098036","0.0016843638916750419","-0.0002688177942716144","-0.006524530819290239","0.0012456609790119848","-0.3955039657090381","-0.7948488305846404","-0.6972669538611187"
"0.058893205654586445","0.0974054691996581","0.0013803587727203134","0.0005205406023009204","-0.0056875948391335385","-0.0008892685269453373","-0.3935813617589168","-0.7965506843222305","-0.6980677827560556"
"0.058462825412678776","0.09716968034793726","0.0016721789038908516","0.00016268657619284473","-0.00441603611377679","0.00104641383516852","-0.3948630977256643","-0.7934504081335971","-0.6985417427142836"
"0.058175905251407006","0.09724446800134652","0.0025895639163887466","0.000341758001686797","-0.004202554016464873","-2.1657638711004282e-05","-0.39628415281923224","-0.7940045000481614","-0.6970708324990933"
"0.05839157678202741","0.09724550671875498","0.002133762763173336","0.0015334494558610667","-0.009054245806495363","0.0003722255701293654","-0.39408291061547035","-0.7937934174140417","-0.6985253992674479"
"0.058462825412678776","0.0972475841535719","0.001671972378674169","0.0011141720053093665","-0.00821180524311201","-0.00047888250960148907","-0.39121293660297035","-0.7937142614262468","-0.6962863470509919"
"0.058606285493314675","0.09740339176484118","0.0019877494349797263","0.00035735454519756065","-0.0035771854959760377","-0.0017301836955416904","-0.39249467256971776","-0.7940045000481614","-0.6978389745003593"
"0.058605322673981546","0.09748129557047583","0.0016777550847412437","0.0003560066957583589","-0.0006276862053122759","-0.0012809675405425994","-0.39625628899386817","-0.794017692712794","-0.6966459028813716"
"0.058462825412678776","0.09732444924179809","0.0021368606414235536","-0.0008519552266462749","-0.0035707235939273583","-0.0004458768925945327","-0.3928011746487228","-0.7937010687616144","-0.696547842200359"
"0.05846378823201191","0.0970896991074857","0.002292374129584498","0.0008503786150655874","-0.006946229760392928","0.00038630149502939115","-0.39360922558428085","-0.7933316741519049","-0.6970054587117515"
"0.05846378823201191","0.0971686416305288","0.0019821732541293337","0.0007709517731126246","-0.009053288487673337","-0.00048519240697046586","-0.3974822973098875","-0.7933052888226397","-0.6973323276484604"
"0.058605322673981546","0.09740339176484118","0.0016777550847412437","-0.0008774680910311662","-0.009048501893563203","0.0020851200174462664","-0.3944172765198391","-0.7928039675666055","-0.6974630752231441"
"0.058821957023935056","0.09724862287098036","0.0016874617699252595","0.0001627828511527878","-0.006527163446050812","0.0008175587113629321","-0.40138323286085825","-0.7937670320847767","-0.6980841262028912"
"0.058678496943299185","0.09724862287098036","0.001371478188403021","0.00016095362691387102","0.0006376499477012988","0.0017247278023335437","-0.3905163409688684","-0.7935295641213921","-0.6969237414775743"
"0.058319365332042905","0.09716760291312034","0.0019759774976288984","0.0006997083027548156","-0.004417472092009831","-0.001736978969631358","-0.39436154886911107","-0.7921707196642465","-0.6961719429231437"
"0.05846378823201191","0.09724550671875498","0.002291961079151136","0.0001658636498709633","-0.0010450772117158466","0.0008568742257388655","-0.39831821207080986","-0.7941100413652213","-0.6984273385864354"
"0.058606285493314675","0.0972475841535719","0.0016781681351746055","0.0006871925579622275","-0.006737534257191143","-0.00046868959846698777","-0.39586619543877116","-0.7960361704015638","-0.6972669538611187"
"0.0586072483126478","0.0972475841535719","0.001988162485413089","-0.0005057504706913008","-0.003995294491496128","-0.0008776194856487642","-0.3951974636300333","-0.7958250877674441","-0.6987705509699799"
"0.05875070839328368","0.09724862287098036","0.0016843638916750419","-1.725132394059433e-05","-0.006103789197009575","0.0018912120175303975","-0.3944451403452032","-0.7936482981030843","-0.6978880048408656"
"0.05846378823201191","0.0971686416305288","0.0019821732541293337","-6.837332767031935e-05","-0.006523812830173719","-0.0021806132923425075","-0.39633988046996044","-0.7939781147188963","-0.6977245703725111"
"0.0586072483126478","0.09724654543616344","0.0022981568356515727","0.0017030859352806064","-0.0056863981906060046","0.0008241112970922544","-0.394027182964742","-0.7946641332797856","-0.6980841262028912"
"0.05860917395131405","0.09693493021362487","0.002298776411301616","0.0005065807331091876","-0.004418668740537364","0.0008313919479026124","-0.3956154210104945","-0.7932920961580073","-0.6979206917345365"
"0.058462825412678776","0.0972475841535719","0.0015170784661632678","-0.0009487115613889752","-0.005255365390988557","0.000826538180695707","-0.3965906548982371","-0.7938725734018366","-0.7011893811016258"
"0.0586072483126478","0.09709281525971107","0.0013685868353694858","0.0005051366087100428","-0.007789866972303815","0.0008078511769491214","-0.39177021311025184","-0.7943079313347086","-0.6988849550978278"
"0.05875070839328368","0.09717071906534572","0.0016845704168917234","0.0004990712862336347","-0.005052174471013424","0.0016841988461558839","-0.3916587578087956","-0.7933580594811698","-0.6969400849244098"
"0.058462825412678776","0.0972475841535719","0.001671972378674169","-9.80855710229862e-07","-0.006522855511351692","-3.8888512295518274e-05","-0.3948630977256643","-0.7932920961580073","-0.6983292779054228"
"0.05846378823201191","0.0971686416305288","0.002137067166640235","2.4917108514433142e-05","-0.005681850926201379","-0.003030993306992327","-0.39528105510612543","-0.7941100413652213","-0.6991954805877013"
"0.058464751051345035","0.09693493021362487","0.001982792829779377","0.0005135125302250824","-0.005681850926201379","-3.4034745088612905e-05","-0.3941386382661984","-0.7925928849324857","-0.6987378640763089"
"0.05875070839328368","0.0972475841535719","0.0019943582419135256","0.0007635386011970148","-0.003578621474209077","0.0008386725987129705","-0.3944172765198391","-0.7934899861274946","-0.6974630752231441"
"0.05875070839328368","0.09709281525971107","0.001374782591869921","0.0006961461292369252","-0.005686876850017019","-0.0013188269247564612","-0.3949745530271206","-0.7932393254994774","-0.6998492184611192"
"0.058606285493314675","0.09724862287098036","0.0015232742226637043","0.0018035007185011396","-0.0018958943147919314","-0.0004342278512979598","-0.39335845115600426","-0.7931073988531525","-0.6989339854383343"
"0.058464751051345035","0.09685702640799027","0.0021378932675069607","0.001537781829058501","-0.00947690206642008","-6.097315308693764e-05","-0.3979838461664409","-0.7925796922678533","-0.6986398033952962"
"0.058317439693376646","0.09740235304743272","0.0015104696592294709","0.0005152454795040561","-0.010315034695104313","-0.0007072522566863862","-0.3949745530271206","-0.7920651783471865","-0.6994079453965623"
"0.05867945976263231","0.09709281525971107","0.0015267851513472849","1.2112538842016178e-05","-0.00441962605935939","-0.0013098474554236862","-0.39762161643670785","-0.7929095088836653","-0.6988359247573215"
"0.058678496943299185","0.09717071906534572","0.0015265786261306046","-0.0002803707894647726","-0.005258955336571156","0.0027532410734767893","-0.3961448336924119","-0.791207655146075","-0.6990157026725116"
"0.05875070839328368","0.0972475841535719","0.0019943582419135256","0.0011144608301891954","-0.0018949369959699047","-5.882895288561879e-06","-0.39536464658221776","-0.7913923524509299","-0.6989993592256759"
"0.05875167121261682","0.09716968034793726","0.0023045591173686893","-0.00016484083753319053","-0.005683286904434419","-0.0008897539036660275","-0.3909621621746936","-0.7929886648714602","-0.6975774793509922"
"0.058464751051345035","0.0970896991074857","0.0026021619546063","-1.2052476103673197e-05","-0.0052575193583381166","0.0012546404483447595","-0.39503028067784896","-0.7925401142739559","-0.7002741480788408"
"0.05875070839328368","0.09709281525971107","0.0016847769421084037","0.0004923320390376257","-0.00441962605935939","0.0025450144603005494","-0.39834607589617393","-0.7917617470606393","-0.6975611359041567"
"0.058606285493314675","0.09724862287098036","0.0013683803101528032","0.0010157789962476358","-0.006105703834653629","0.0012488159276964734","-0.39923771830782434","-0.7911812698168101","-0.699326228162385"
"0.058678496943299185","0.09724862287098036","0.0016812660134248232","0.00032693165785557734","-0.006104028526715082","0.001677160883705871","-0.3953089189314897","-0.7922498756520411","-0.6987705509699799"
"0.0586072483126478","0.09709281525971107","0.001523687273097066","0.0005264133748574425","-0.003367054014541213","-0.001302324116252983","-0.3945565956466595","-0.7927511969080755","-0.6994079453965623"
"0.058462825412678776","0.0972475841535719","0.001671972378674169","0.001361887477242667","-0.002734505602887178","0.0010590336299064738","-0.39622842516850404","-0.7921707196642465","-0.7009605728459297"
"0.05875167121261682","0.09709177654230261","0.0023047656425853697","-0.0005077722448501034","-0.0014686907904625888","-0.00043204365605485227","-0.39578260396267884","-0.7913791597862974","-0.699440632290233"
"0.058462825412678776","0.09724654543616344","0.0019819667289126537","0.00017318054682663017","-0.006944793782159888","-0.00046990304026871407","-0.39271758317263045","-0.7923949949629985","-0.7002087742914991"
"0.05889416847391957","0.09724862287098036","0.0016905596481754774","0.0007815420187063531","-0.004845872264866706","-0.0013120316506667936","-0.3928011746487228","-0.7896641133840747","-0.7002251177383345"
"0.058678496943299185","0.09724862287098036","0.001526372100913922","0.0003354038543305601","-0.00484060701134556","0.0008294504410198503","-0.3953089189314897","-0.791748554396007","-0.6983456213522582"
"0.05846378823201191","0.09709177654230261","0.0016723854291075318","0.0013859562172284132","-0.003157640522222908","-0.001728727565379619","-0.39723152288161084","-0.7927380042434431","-0.6990483895661823"
"0.058175905251407006","0.0970896991074857","0.0019699882663451436","0.0020426477189995147","-0.005682329585612393","0.0012519708763809618","-0.38990333681085887","-0.7921179490057163","-0.6986234599484608"
"0.058606285493314675","0.09724862287098036","0.0015232742226637043","0.0011084917826727303","-0.006106421823770149","0.0003923687040380228","-0.3975658887859798","-0.7915902424204171","-0.6977572572661821"
"0.058606285493314675","0.09724862287098036","0.0015232742226637043","0.0008547109882630217","-0.0018923043692093315","0.0004222193723604907","-0.39425009356765467","-0.7907063338900407","-0.6993916019497267"
"0.058678496943299185","0.09716968034793726","0.0016814725386415056","-0.0005279899864381303","-0.005048105866019812","0.0016841988461558839","-0.39578260396267884","-0.7913791597862974","-0.699440632290233"
"0.058606285493314675","0.0972475841535719","0.0016781681351746055","0.0001602797021942701","-0.0048389317034070135","0.0012577953970292482","-0.3970922037547905","-0.7887802048536983","-0.700355865313018"
"0.05860821113198092","0.09709073782489415","0.0022985698860849345","-0.0006798155982682178","-0.0027304369978935644","-0.00044102312538762733","-0.3935534979335528","-0.7898224253596644","-0.70024146118517"
"0.058535999681996416","0.0970896991074857","0.0026052598328565177","0.0008581768868209692","-0.008422415383957849","-0.0006948751503087773","-0.39589405926413523","-0.7904820585912885","-0.7007481080370688"
"0.0586072483126478","0.0972475841535719","0.001988162485413089","0.000522851201339552","-0.006948144398036982","-0.0013265929522875096","-0.39115720895224215","-0.7908910311948956","-0.6995386929712458"
