"AccX","AccY","AccZ","GyroX","GyroY","GyroZ","MagX","MagY","MagZ"
"0.0019302594305242206","-0.020132171956125697","-0.0008969250448206583","0.01575205843939517","0.004816749328527848","0.014259306669788136","-0.7021220122074162","-0.4728178369520041","0.7446028064593044"
"0.003948461420951458","-0.02027569196666003","0.0031155040514173494","0.01828977665181948","0.007070221896506755","0.009816974832419025","-0.7024076670539493","-0.47221990259588376","0.7490228996390923"
"0.004409086345825436","-0.021194865067835","-0.012482268119192676","0.013463136130149706","0.012112528574392753","0.0016058279606575492","-0.7100727387692489","-0.46860884805303915","0.756473913856449"
"0.00852146969573131","-0.038522084317177116","-0.02522025883266383","0.00643914765096592","0.022851721296056646","-0.04753149546742875","-0.7125008049647785","-0.4645171011846861","0.7665348878561566"
"0.02462276432053598","-0.05318047640433578","-0.023522619640975812","0.02140365379792114","0.036592134840828384","-0.12075156227944332","-0.7137386426330877","-0.456908093397978","0.780426609278347"
"0.02606162362194646","-0.053367536193346825","-0.003065497703554117","-0.004983726990036278","0.05263540206296883","-0.18293318180665488","-0.7103345890452373","-0.44649700107964696","0.7907401600311854"
"0.009463297291264022","-0.0685725943880464","0.03258131736388057","-0.025553299296782617","0.03722338203205714","-0.2614672625030016","-0.7007413471158407","-0.4415611115908887","0.7941709942612113"
"0.044158959587871714","-0.032655502313537595","0.0515570876979065","-0.06771067388033782","-0.013490537883014568","-0.3468498360208854","-0.6652249278635823","-0.437305225879679","0.7755855548433412"
"0.08333582175498883","-0.05536875341888741","0.010997563063563455","0.002403852695021169","-0.021703143745608427","-0.4553659812208217","-0.6199486346881166","-0.4218175536358555","0.7607887667224323"
"0.023831312559584112","0.03337821579174955","-0.004254224922789797","-0.05038749527443892","0.04957505175612562","-0.5089655448956419","-0.579290428198266","-0.39505119804717337","0.758262999191125"
"-0.05343812286214607","0.007915072907030207","-0.06803532690312211","-0.02252584599073256","0.04912598729856796","-0.24314233739063307","-0.5687926125881819","-0.3815331919176287","0.7675662429314405"
"-0.05872502062530452","-0.027454917662152925","-0.07463789006811006","-0.04229682709667885","0.04048509220243156","-0.10227962122099524","-0.5540813879917371","-0.3830925109247661","0.7546848285217729"
"-0.18075105312886242","0.010349059404785395","-0.034433844244375525","-0.018742402326251316","0.02816858054977327","0.09426538452625595","-0.573291676421075","-0.39518016428084646","0.7584313836932122"
"-0.1821914953337948","-0.03904133649012157","0.04950245055539371","0.005944349342468466","-0.056506438253405476","0.33432404748083133","-0.6026665164728758","-0.40642367501652144","0.7691027515129858"
"-0.16968655751075543","-0.0463947212995213","-0.009138260718115947","0.017481408208508537","-0.14765693457268275","0.5094261649259444","-0.5988815897563146","-0.42880517866032086","0.7313214788571799"
"-0.0635687054023299","-0.1218652832435381","0.003979515049424115","0.013547814034038652","-0.18733601434741382","0.49892065044567957","-0.5882647512935084","-0.45911224357348046","0.6901304200341091"
"0.10380434719672585","0.014563226186014409","-0.043831625407310636","0.022008620678282353","-0.05298743492407454","0.3097907614788135","-0.5778383493950572","-0.4720088669407824","0.6675037525661474"
"0.1976040440976966","-0.006429881152627797","0.0198526313842341","-0.11463183528370706","-0.18842271837282026","0.30761615060972086","-0.5727917804396426","-0.5036993878151615","0.6192615927181769"
"0.17785732266194768","-0.10515568381481004","-0.006536733097743932","-0.015505436680682225","-0.10297901628108194","0.08481348432622765","-0.5501060247108208","-0.5260222704436552","0.5550650012974481"
"0.15235986524401687","-0.02642447623820415","-0.029927694577847934","0.09297743381803021","0.04671925750112364","-0.02873856959337374","-0.5515581035140297","-0.5120352961916632","0.5840060875936783"
"0.1564640649827145","-0.005878538550361621","0.021857706577190897","-0.019737585938966733","0.0008370154543076711","-0.011772316849356607","-0.563150929369157","-0.5079083767141266","0.608842801651534"
"0.10669314612420015","-0.0405603909836423","-0.023803660580986808","0.02849826539488447","0.07791405540690922","-0.09607432316355603","-0.5923591374271466","-0.5120235719886019","0.604822621664203"
"-0.1137467470466779","-0.1586096311091044","-0.11659844176691331","0.19648525922124688","0.2466743962700682","-0.3429600391141985","-0.630327427445479","-0.4739433604458777","0.698318116448097"
"-0.0600863176541417","0.11732452127923236","0.01303662901885942","-0.04807849469932289","0.1057288841748497","-0.34194930448490185","-0.6568933281730391","-0.4430852579888425","0.7715653748560105"
"-0.2190731473941515","-0.06800980243662523","-0.03418318610869004","-0.03514721851059177","-0.021394711573691588","-0.06845063946165862","-0.6726757584439823","-0.45660326411838714","0.755463606843926"
"-0.07490229461916056","0.008729540903890628","0.09807316112026626","-0.08014261232654858","-0.08490457138792441","-0.12141313403680111","-0.6314700468316107","-0.4641770992959118","0.7107575215397857"
"-0.028428247216067255","0.07205121458539522","-0.04405949643975198","0.02836382831035976","-0.04827944954341653","0.16103512670403214","-0.6169730633700655","-0.4576818908000161","0.71650364267351"
"-0.0036748019405368707","-0.020099920268365174","-0.04385061466001408","0.023560757926885872","-0.13030962252005457","0.37512097251789456","-0.6240430208217549","-0.4638253732040763","0.7092841571465233"
"0.06553448874765956","-0.0008829133746950824","0.02683972691646682","-0.04086341350713611","-0.09883036385467728","0.408995896760381","-0.6330173439169972","-0.4934876069488708","0.6711240193610213"
"0.07974896237435498","-0.019327492346500594","0.049483461302690254","0.03518170902554169","-0.05501861259509163","0.3373256230466213","-0.6682004991816335","-0.519362923104903","0.652370195441064"
"0.019570136278619296","-0.031150961079509105","-0.010503587987493667","0.08727869818311244","-0.0057720627331496474","0.20229147657259386","-0.699598727729709","-0.5144504820222671","0.6854998462267121"
"-0.0964456115522702","-0.062381882922413597","-0.016642813386517557","-0.008637796784864517","-0.0695548770290581","0.13297345799610621","-0.7299257506032859","-0.5219774203875469","0.6896042184650866"
"0.015627123605557118","-0.04434512654233993","-0.022825714066759373","-0.03037993981845239","-0.02598283989272389","-0.06230353521620923","-0.7197611989808232","-0.5273822779987525","0.6736918830178504"
"0.014406704990169354","-0.006239112419524293","0.005925913451527267","-0.07060718197418848","-0.009353391734525953","-0.11439005977929464","-0.7017173345081612","-0.5292112536762972","0.6553590203531112"
"0.0056627459351731866","0.001570633771686866","0.02676887801463027","-0.05935113153352832","-0.011240261503345679","-0.057923685155923915","-0.6878630744513152","-0.5388251001864677","0.6216189757473969"
"0.008982094620605289","0.0008267485934903542","0.0285360368604656","0.006532467938860024","-0.00047629832227914147","0.024172775683861905","-0.6871251327644385","-0.5435382298170635","0.6140206250907142"
"-0.016651445013103595","-0.0011665669685489008","0.01070360943171412","0.05179865645364516","0.0037904532621807416","0.038463644492453","-0.6945283542037498","-0.5388719969987124","0.6247761851615312"
"-0.004086356856231836","-0.0033732274451240287","0.00343262457156489","0.029276952923430216","-0.006393082121786342","0.014039701600331871","-0.6984084992024885","-0.5300553962967023","0.6415935873074862"
"0.007760093101695623","-0.010904964087839461","0.005775898355170048","-0.0041428841340998826","-0.0024475474624833693","-0.021178274566235084","-0.7023838624834047","-0.5243105367967223","0.6562851351145905"
"0.003733186541972548","-0.008238878319115652","0.006839296506562989","-0.013659982156752055","0.009742554942513653","-0.041405831047449285","-0.6982894763497665","-0.5241346737508046","0.6564114234911559"
"-0.0002921371142286274","-0.006180898123116543","0.009884413070087488","-0.006507056291955929","0.010197532348444862","-0.01760425566039806","-0.6981942580675887","-0.5253657150722288","0.6572743940643525"
"0.001838451026253794","-0.009085646381268237","0.011053201573984551","0.023101576716106652","0.013889609274763324","-0.012010911478514808","-0.6914575646035211","-0.5247091597008027","0.655232731976546"
"-0.003609902896138829","-0.005321713161176154","0.009819849610895775","0.04067267825710307","0.020349105849311752","-0.009818842465825156","-0.6983608900613998","-0.5153063488457333","0.6736076907668068"
"-0.001458737009871651","0.005025708703940281","0.010463775170069608","0.0245323714014054","0.016747001623920326","-0.014461789812948595","-0.7081921776962404","-0.5059504348029089","0.6985706932012278"
"-0.0007685910743216339","-0.0024098695317171432","-0.0017457446406646657","-0.0014947354593874112","0.010645957568340525","-0.006284640378718002","-0.7077636954264412","-0.5030545566467965","0.7046114872136047"
"-0.0013764260267326524","-0.009139184182950708","-0.006318356691654309","-0.0121663337695976","0.00989693083788757","-0.016442829686369953","-0.7152145260068411","-0.5047897386998517","0.7055796981006058"
"0.009376237597559324","-0.030865533642828458","-0.009007234874462172","-0.009770909354429964","0.006512966464654939","-0.023787501325925334","-0.7132387466516553","-0.5070759582967825","0.7057059864771711"
"0.007717354706604209","-0.02868048179705288","-0.01215375404742307","0.0016159117048133306","0.03669760905505902","-0.0617154714318912","-0.7132149420811107","-0.5061849188641326","0.710126079656959"
"0.009371488886993596","-0.034245510520131486","-0.006464573937470839","-0.001643838407678458","0.040256564738265194","-0.0743955967812487","-0.7198802218335453","-0.5013428229998638","0.7186505450751213"
"0.007734766645345166","-0.02596005193445259","0.005160646567578418","-0.0021247565236827766","0.027283236387898004","-0.08174945691743406","-0.7155239854239185","-0.4993379842764013","0.7226075808741694"
"0.022607728137152543","-0.05910994919910833","-0.01109795159711151","0.016417260117368104","0.03449064102699088","-0.14010253618215845","-0.7130483100873","-0.49399174768050164","0.7313846230454625"
"0.04724403855206206","-0.07295237358592571","-0.0136216232813994","0.036852569933206","0.06470580721575564","-0.29495626988702944","-0.7012888522383618","-0.47285300956118764","0.7546216843334903"
"0.05720050170483648","-0.08122976924966448","-0.0003956087734496967","0.008156886944597609","0.024397078343950832","-0.4546002731683243","-0.6713665070640399","-0.4451487177276108","0.7712286058518361"
"0.04973236288849472","-0.017652017167341313","0.02022444095216756","-0.04151988550429576","0.09036640506274332","-0.710928700822365","-0.6256379270482304","-0.41839408634198993","0.7769115827972777"
"0.009032747533306202","0.054583700494294826","-0.02264531616607664","0.024505309390884192","0.14169878741580372","-0.5177558733383125","-0.5988577851857705","-0.3809118091553859","0.8003170285873923"
"-0.01772781940799812","0.059044108911575445","0.019100656977177666","-0.035423076424291836","-0.015440212752126165","-0.17825623702200058","-0.5971200515360284","-0.3691172608758353","0.8099570413318822"
"-0.08512785137065859","-0.06874191574878916","-0.08367297650440937","0.07321518239289722","-0.01646475091490276","0.035878614107221665","-0.5848845022762021","-0.36076962829627257","0.8080837637461626"
"-0.11529799249814354","-0.13223097568977088","-0.032992559964184015","0.05451446015466065","0.12608221133305078","-0.03384063548877464","-0.6068561208886917","-0.3325377473249425","0.8562627794058504"
"-0.20367149612602836","0.05445469374325272","-0.003692143042767817","-0.06331527959084472","-0.03210833478887533","0.2140037469435946","-0.6281850160964821","-0.35502476879629263","0.8500115047658646"
"-0.1547439482639843","-0.03508405440190514","-0.02908647068308531","0.016556062042299466","-0.16163866033486093","0.4642187615064959","-0.6117122532797512","-0.3805366346574281","0.8049265543320283"
"-0.12150297430400613","-0.08538378663322012","-0.01864238169619036","-0.022465611193120835","-0.10660349382464351","0.5157049709564233","-0.6133785732178598","-0.41262577843588755","0.7706603081572919"
"0.03073752062565005","-0.09787002754970742","0.006818408328589197","0.021827916285447186","-0.14873085384484913","0.45999205305671004","-0.599952795430813","-0.44276870450619055","0.7292587687066122"
"0.16054906410169142","0.046025715147039487","-0.020734997344110037","-0.061265550535883506","-0.08219739988933832","0.23205607998927408","-0.5782192225237678","-0.4612812211397994","0.7043799585232349"
"0.20268358149948565","-0.011833812695342586","0.006036051117207251","-0.2008810817190432","-0.18891812756087323","0.10275555541234752","-0.547368499098214","-0.495738653936618","0.6169252577517175"
"0.1506223595351288","-0.09303872472318075","0.013234876817083388","-0.03207524383239392","-0.005087599006559076","0.0022251326335174736","-0.531538459686182","-0.5236188088161126","0.5519077918833141"
"0.14742568587264426","-0.01748914614415066","0.011140172351366329","0.10024052825469008","0.019832921437243682","0.02464322671131633","-0.5431312855413089","-0.5121408140192137","0.5831431170204816"
"0.1654574896327627","-0.02040147354892608","0.03022152293042341","0.09527333987192631","0.04896777597722202","-0.027727222397635126","-0.5627700562404464","-0.5005338529886421","0.6083166000825115"
"0.1096500099031163","-0.04940219118319027","-0.012423401435811998","0.10650843907863457","0.060402139656315045","-0.1080714369300858","-0.5867650633492106","-0.4795592537121846","0.6636309090181428"
"-0.1677079281083758","-0.12669658607006476","-0.1899425314087007","0.32547502291846625","0.3710860262375584","-0.4210010038247369","-0.6570599601668502","-0.41500579165730783","0.809241407198012"
"-0.02971039906880929","0.09359856717820206","-0.07749577259997859","-0.033201372657308735","0.268999771615551","-0.40063316962830514","-0.714333756896698","-0.35878823797893256","0.9113245115883509"
"-0.29913640753204185","-0.06600213487353254","0.06747387931393439","0.0802251160859716","-0.1166171517999331","0.11178478476739723","-0.7831765749111287","-0.3618951517901462","0.9461801035203922"
"-0.04208870461009637","0.07276881463806689","0.060639647265964415","-0.15708427307875159","-0.0635364544412923","-0.16985488826999873","-0.7054308475130892","-0.3857539050196548","0.873311710242175"
"-0.05505268445448787","0.034894045116494236","-0.0640096053299917","0.02924901794482768","-0.07673351597336082","0.2506780998260117","-0.7166189956689614","-0.39562568399717135","0.871922538099956"
"0.00837425966819427","-0.04350335749179022","-0.05134187485152328","-0.02242196278905437","-0.11968868876586136","0.3556413596623598","-0.6897198309537793","-0.4146423413624112","0.8294264993857097"
"0.06685146447788345","-0.006635001886784737","0.05522011454440111","-0.12245362929241772","-0.156945057801598","0.3042500980109421","-0.6807455078585372","-0.46005017981837515","0.7633987265047834"
"0.08124797200959782","-0.025226326037900638","0.004951764787840517","-0.03405426247276747","-0.0641085721487857","0.19845068498126675","-0.6910290823337217","-0.4900289670458216","0.7285431345727418"
"0.037311318952116215","-0.04330500961206299","-0.043092943477146615","-0.06538945175208317","-0.01809496676242796","0.14096745006417943","-0.731211197412684","-0.4945662336304996","0.7361625332921858"
"-0.0628089117118161","-0.08580950891165905","-0.010076329801666152","-0.07406413557625256","-0.0875717905326353","-0.02875265862153969","-0.7277357301132004","-0.5219539719814246","0.6857734710426039"
"0.012181142638372706","-0.05060356655226983","-0.01936777114946197","0.11314299649673736","0.033402338907429406","-0.09211101828382931","-0.6984799129141218","-0.5104642529814646","0.6889938246450208"
"0.013950828775861077","0.012483798617654553","-0.010761841824260526","0.014236585850207479","0.03153416684022329","-0.06862522089762804","-0.703621700151714","-0.49253794650091487","0.7241019933301932"
"-0.0052703686906158155","0.0005145522559684712","-0.0057999500928502526","-0.017147489641662662","-0.02714145815510578","-0.04953765056497202","-0.6968373975465574","-0.4900055186396992","0.7153249511589"
"0.00393579819277623","-0.03356177473960835","0.01513190316215758","0.01790305179179059","-0.004645885782114448","-0.00028975889410509664","-0.6954091233138929","-0.4775075181764775","0.7366255906729254"
"-0.001036101769523358","-0.02144804081675512","0.00031648820292950216","0.027544984250072856","0.02747500768649915","-0.031512883009182445","-0.7018601619314279","-0.46564262467855977","0.7538218579485761"
"0.004279288257029324","-0.026724416934377028","-0.01619086917217556","0.02496449060166341","0.011917561087481593","-0.03782844302618127","-0.6970754432520014","-0.469300576033649","0.7535271850699239"
"0.0029132425176264186","-0.0031806848691936945","0.00854016387121059","0.025742305162127825","0.009126489645757485","-0.003521046875644265","-0.7003366694165855","-0.4601439734428646","0.7625778520571085"
"-6.419900707448842e-05","-0.011117825227058929","0.009022111104824032","0.016021805576525924","0.007135583947446645","0.003218102835996145","-0.7021696213485051","-0.45591153613777735","0.7759854680357984"
"0.0014585541809969142","-0.016745744741270562","-0.004867577785111083","-0.0010911623153888699","-0.002095806938965777","0.007668091753890229","-0.7115724267135467","-0.44376526176639114","0.7956022625289522"
"0.00630382186154419","-0.026043906322629953","-0.005224575735935858","0.022683425005149915","0.007036821728667056","0.01751754757477521","-0.7130959192283887","-0.4422645637745597","0.8005064611522407"
"-0.004216154945027947","-0.010116410322094623","0.002557220021936058","0.025588662779813868","-0.0013434242107873003","0.03325682973547045","-0.7139528837679876","-0.4444218171378175","0.8011168549723064"
"0.0019460884657432492","-0.009893873676546998","-0.0008627443899544562","0.0009012127366290219","-0.010645291049435639","0.037728564762055466","-0.7177616150550931","-0.4432259484255767","0.8048634101437456"
"0.009502869879311608","-0.021441590479203017","-0.018336654727664884","-0.006230238113366403","-0.012185054767787301","0.033278269560940384","-0.7178092241961818","-0.4478218360255607","0.8027796519304172"
"0.007703108574907081","-0.0337181954252469","-0.018980390394311684","-0.012760825032982865","-0.012174986774610739","0.010919288144794332","-0.7180948790427147","-0.44646182847046334","0.8074523218633358"
"0.009346162430643139","-0.04287283699607196","-0.022096526762947075","-0.01975504530059332","0.003201715375475239","-0.006284334095497003","-0.7238555851144616","-0.4499790893888184","0.7974123959263892"
"0.02658398178417468","-0.08219409471370419","-0.03222729308023518","-0.01694757995103825","0.008628843125887527","-0.07284886651520389","-0.7175473739201932","-0.4584791366081765","0.7834154341903942"
"0.05426263276818317","-0.11298478101867751","-0.05219259337263764","-0.012364497524059355","0.014671077316562973","-0.22844686844710232","-0.7042168144153241","-0.45547774062451357","0.7781323704374096"
"0.08002597049068814","-0.11263485020647582","-0.00811853784794093","-0.024925635246306845","0.03198003510947095","-0.46878118630057675","-0.6685099585987109","-0.4403886912847703","0.7731018834375558"
"0.03937225933763485","0.0013834127242370185","0.07639313130874269","-0.05266070415822046","0.12150846586141359","-0.5225338915858966","-0.6399682785159646","-0.41511130948485847","0.7836048667552421"
"-0.010620582594650383","0.05567058237182452","0.007743374827774022","-0.007944660128289042","0.060975855457963454","-0.3615208023067363","-0.6164969719591773","-0.4080767876481483","0.7801529844624554"
"-0.008816072579680184","0.01816654600105908","-0.02198638909726709","0.04453818092122927","0.02418133563302455","-0.24719752723665947","-0.5992624628850253","-0.38928289014107104","0.7850150869602222"
"-0.05440369401050736","-0.007576428652514464","-0.042001061446698504","0.02141674831914108","0.013589167573621538","-0.13756957394449695","-0.5944539396350548","-0.37153244670643915","0.803179565122874"
"-0.19143565190171255","-0.01299003570155741","0.013365332983156059","-0.05146997569528728","0.0499394172234678","-0.04661570863664182","-0.6127834589542496","-0.3698558856686899","0.8181657858086311"
"-0.19028013233072288","-0.017595576713760396","-0.019821614289074307","-0.032919403967039365","-0.06517929523264207","0.2115902351621227","-0.6172111090755096","-0.39310498033901686","0.7954759741523866"
"-0.16661572467826222","-0.0497359961515117","-0.024549938212232208","-0.007072215827808526","-0.1616834069712012","0.3778162648626855","-0.5980484297872604","-0.41645959283689465","0.7531693680029884"
"-0.06853902246110759","-0.09787809047164754","-0.033780613951377","0.05432153420868687","-0.1466773028556619","0.49579656159149005","-0.5840513423071478","-0.4320879555174523","0.7268592895518702"
"0.06740548071054976","-0.005637134667474089","0.0021793338931374944","0.0899395048950042","-0.06689564835512228","0.36476859964812924","-0.5742676638133959","-0.438137644297023","0.7176191899998374"
"0.1612333532942104","0.01630320474069474","0.008406479532178334","-0.050240836636775595","-0.13368639546958963","0.3673413787045206","-0.5735297221265191","-0.45126875172554864","0.7033486034479508"
"0.19093210575287242","-0.09952453913182235","0.023677636556289103","-0.08450570679703248","-0.12996123799426249","0.10157330217929146","-0.5537005148630265","-0.4828185821631937","0.6396571655334837"
"0.14786525818067692","-0.020141847462453854","-0.029147236291736336","-0.043222173262887915","-0.0001250372270080525","-0.11899349659090921","-0.5328477110661243","-0.48674619018869025","0.6128840297016257"
"0.16004427616855632","0.008319944469331956","0.021407851180646274","-0.06818033070809298","-0.01472011152587888","-0.042070465637017045","-0.52839625637432","-0.49447244000601015","0.5954772817983658"
"0.15260784290975832","-0.03641121135325075","0.006362666263706508","-0.043044960742378076","0.026159776196926325","-0.12228297838443819","-0.5387988537022267","-0.5088345887559601","0.567883271518833"
"0.06592388301404789","-0.08095401731931198","-0.06703269436038019","0.10799248481689441","0.1229387601301471","-0.1279430923084992","-0.5616512414248592","-0.4913186293825518","0.609432147408839"
"-0.21707868895655286","0.09120065419320701","0.05658544181377882","0.0602393848320183","0.20927899304284575","-0.1146412120205138","-0.6551079853822086","-0.4610232886724534","0.7341419192671398"
"-0.29532161004425383","-0.4316846713774706","-0.3552059976867857","0.5906827260263116","0.2321317394594817","-0.3151801509695916","-0.6792458199142393","-0.39227256192167287","0.848980149690581"
"-0.17415034544252392","0.2916884334033474","0.25896340250074784","-0.16080311710521444","0.2880170920601642","-0.3565590141265529","-0.7253790776293039","-0.39875604621450744","0.8753954684555036"
"-0.020687848993958098","0.12843361512834522","0.02238180995180599","-0.03477096926753884","-0.34433278413554785","0.2435723290988355","-0.6905767954933778","-0.4190858143225997","0.8251116465197262"
"-0.07078674546221089","-0.1331856256474824","-0.1074190370100678","0.05883303325299677","-0.031135095448474537","0.33769316291182","-0.6706523699477076","-0.419038917510355","0.8034321418760048"
"0.06931921106853137","-0.005711152290884494","0.02406387795627718","-0.0323755448523712","-0.0926665146988056","0.4183987916450495","-0.6821737820912016","-0.4470597628265837","0.7732071237513602"
"0.07648026660162381","-0.003752346034749002","0.08322736335671269","0.021449048138150267","-0.13285219032067466","0.38081784042847544","-0.6915289783151541","-0.47183300389486466","0.743487259132977"
"0.031907286328336906","-0.03777545774552096","0.010152921103314205","0.04227719359058635","-0.02700881634023999","0.1507838272971965","-0.7004080831282188","-0.4723840414387403","0.754074434701707"
"-0.022967230065499434","-0.06538935280608257","-0.054315591824882825","0.009461450445336136","0.006174969550870429","0.19020860350418434","-0.7260456056045472","-0.4741192234917954","0.7709128849104226"
"0.019731592437853464","-0.05679750318667867","-0.05498401352004411","0.013896128298489045","-0.059416567709677785","0.07758520031065187","-0.7331631721973255","-0.48028615430197796","0.7667664165465263"
"0.012329935569431674","-0.04042170872627204","-0.0004658690084524453","0.00907498747573165","-0.00812557599523215","-0.11834417616239139","-0.7116676449957242","-0.4672722889040642","0.7641564567641757"
"-0.004168667839370834","0.012004377279094347","0.01752378943268356","-0.0035653284514924094","0.0025525695297103777","-0.092503060806708","-0.7059545480650661","-0.4571074048500181","0.7642616970779801"
"0.0066267341800125565","0.012173053606081893","0.024552281535809798","-0.04545086077452166","0.004302163010614786","-0.059522483569538556","-0.6993606820242649","-0.46350881972142427","0.7618832659859989"
"-0.0031682728135276794","-0.01732143736779593","-0.00638102122557568","-0.024696044640917233","0.007657361689057247","-0.05789611966603401","-0.6987655677606546","-0.469300576033649","0.752074868739422"
