"AccX","AccY","AccZ","GyroX","GyroY","GyroZ","MagX","MagY","MagZ"
"0.19344259073861172","0.07253660248619112","-0.006071496406509521","0.07131734978408728","-0.1587429137259837","-0.16204160330231493","-0.5482730727789014","0.1253627274326435","-1.323537744300681"
"0.1651314115072505","0.05337426220327513","-0.023256770103127582","-0.010430000255833596","-0.012911708180070123","0.02629868752081578","-0.5739105952552298","0.11339231610717508","-1.3474272955342963"
"0.15155912183939144","0.011626710015418597","0.0018299316433941","-0.08611545993900373","0.058498809517698716","-0.01722201420059134","-0.5687211988765486","0.13147103722752018","-1.3362507742082612"
"0.15317078671828815","0.03471666083381135","0.040591743724301965","-0.031052125241075968","0.013943944476033648","0.02988097607361977","-0.5770766031376362","0.14924492906827447","-1.3278525971666644"
"0.062055266806515186","0.027777710212134366","-0.01658964347894791","0.002001676299952754","0.035174625325334954","0.2371801982765869","-0.5966677646956846","0.1466656043948141","-1.328105173919795"
"-0.22342613207938677","0.0006827448076396105","0.0004987850288825787","-0.0041014181502367405","0.2233741834900296","0.16600610338084548","-0.5521532177776399","0.13232690405098657","-1.2892504500631834"
"-0.200553176187878","0.04637242079046512","-0.03434269583139899","0.01924305779663109","0.09099125987735203","0.21869906872150885","-0.4851671562656732","0.12726204832855526","-1.2260641656549778"
"-0.15028016033221575","-0.07166553124428077","0.15964581301118788","0.20393167695498593","-0.0852721330435766","-0.0385328944344789","-0.5014018733769602","0.08800707163910038","-1.256352327967905"
"-0.0635687054023299","-0.06905314453567822","0.06713017384000204","-0.055946556016344","-0.14145473115709084","-0.24486671192485732","-0.5047821223942662","0.08139344869228672","-1.2696967997583124"
"0.03346961210445588","0.02126222425075308","-0.019265229184863366","-0.17643797544182246","-0.12583815507433793","-0.4622879820153985","-0.5556524896476682","0.1419407505611571","-1.2875034608540292"
"0.05871692327882024","-0.019080766935132578","0.029408213237134846","-0.07474679661585208","-0.1492774020458624","-0.5221663517206978","-0.6114980121448514","0.2095190570058193","-1.2947860905692987"
"0.06984631794132531","0.05790401174924088","0.057645042114631076","-0.03883638162228945","-0.15735896418774548","-0.35603833265085466","-0.7065258577581317","0.2548799986495386","-1.3350510346308904"
"0.01910634554670149","0.1045093131475877","-0.012594304710143004","-0.01952108985479707","-0.06030191187155306","-0.0697094634999644","-0.7558489279261472","0.2711414682954002","-1.3493005731200158"
"-0.05339063575648898","0.04427606108603099","-0.06014149455429987","-0.002330602397260229","0.03004474308775443","0.026412012312585397","-0.750659531547466","0.2732049280341685","-1.3344827369363461"
"-0.011776102165640106","-0.011916054499131924","-0.025442433089294142","0.04539019776860668","0.06210890421386519","0.10095767290508352","-0.7270692021379567","0.26534971198317553","-1.3260214157064663"
"-0.009702498551946255","-0.013665708560140412","0.06123401087558225","0.0887784573468362","-0.04514558690544288","0.15067356533763687","-0.715024089442486","0.23432747068328377","-1.3413865015219195"
"0.03071061126577768","0.003483158855886006","0.04338487290445174","0.04961449031415922","-0.04078438795642194","0.10862087909447785","-0.7147146300254086","0.19814658003647123","-1.3632764867932499"
"0.0033342948544528117","-0.009304151565845794","0.037042462501500985","-0.018530271082488295","0.011518037548729217","-0.0026236370381172735","-0.7129292872345779","0.1903734334069065","-1.365654917885231"
"-0.015226831843390248","0.010842187710643825","0.03030032832914271","-0.03946491864084656","0.013625923739186753","-0.008461395230357705","-0.7149288711603082","0.20226177531094666","-1.3583512401072004"
"-0.0036748019405368707","0.026744043619409536","-0.00719755909182383","-0.011962932206647871","-0.0011126594148039278","0.06434457666686626","-0.7081207639846074","0.207139043784399","-1.3492584769944942"
"0.0024272911364019837","-0.0054495911031466355","0.0062411350464044585","0.02083185970465044","-0.00402598505938626","0.08608455969337338","-0.7025981036183043","0.19896727425075408","-1.3489848521786025"
"-0.00044251294880946795","0.00897658883213625","0.027524650272227395","0.052002930984676225","-0.018143548824740247","0.07976287401195457","-0.6938142170874175","0.18619961711712515","-1.3518894848396061"
"0.0011483050907037768","0.024230024558476605","0.02782274356116608","0.04067442419326574","-0.010236498564584206","0.05286508154382473","-0.6941950902161281","0.16724158076719128","-1.3609191037640296"
"-0.0028706869514097703","0.019420491621188297","0.015479216594103597","-0.004627730606470184","0.014639115433462782","0.045324388642830005","-0.6952662958906266","0.1539346102927479","-1.3644972744333819"
"-0.0031809360417029077","0.010471454559836588","0.014913336863540924","-0.018410674455346176","0.009047064366253516","0.05413003124655049","-0.6846970665689088","0.15443875102437882","-1.362666092973184"
"0.0007193382362678556","0.011689762064990426","0.016858026232900763","-0.006085412708673871","0.0033775057325262843","0.06730327258171634","-0.6812930129810583","0.15375874724683017","-1.3603297580067246"
"0.0011340589590066483","0.023057675708381516","0.017565755681158174","0.018711420235101535","0.0021952356766502513","0.07031097381192625","-0.6689146362979657","0.15090976590296254","-1.34986887081456"
"-0.001031353058957658","0.025837771193338778","0.012671655581899198","0.03349251578816947","0.01143653474682373","0.065615652034012","-0.6667960295195134","0.1373096903519896","-1.3530260802286944"
"0.0010485821688238498","0.03180594601342395","0.00331109335426284","0.02578857247043828","0.018621566067746474","0.08356078595234183","-0.6592975897980247","0.12068477041123127","-1.3581618075423527"
"0.0016421709895377398","0.032763821139911546","0.0064576125272237375","0.0013947888898126154","0.012066183843897476","0.08563432335850489","-0.6450862611830125","0.11030885070208381","-1.3555939438855233"
"0.003576479093304079","0.028138929115052246","0.016911386032997446","-0.006250316379236978","0.018541661359996","0.06678871677043806","-0.6350169278427275","0.10687365920515701","-1.35268931122452"
"-0.003161941199440051","0.03194624085518224","0.027002274919608316","0.006471883954015769","0.016438569452003487","0.0640903615934371","-0.6248761807908091","0.10429433453169663","-1.3478482567895143"
"0.0022642520736458867","0.02959348023305193","0.014740914448993642","0.02159483380773226","0.007499150367711307","0.02989843421721671","-0.6206627718044488","0.0980605757640653","-1.3457013543879028"
"0.006872084225907624","0.05167459825829546","0.002849654513569114","0.03505338271758628","0.00886967591504746","0.03563665036263248","-0.6153305480025014","0.0865907879093094","-1.3468169017142304"
"0.01841461670762957","0.05779274342646707","-0.00400356678710432","0.031218433936306612","0.013758565554052546","0.07949334477747548","-0.6069751437414137","0.07445389290037216","-1.3513843313333442"
"0.021670649252185533","0.0642559816536763","-0.01533065602470948","-0.0013230226377899355","0.02268711759809066","0.11123960063401907","-0.5996433360137357","0.06574749970713722","-1.3471957668439265"
"0.037857420667172986","0.05370161683404446","0.012285224289384085","-0.06714673649979909","0.04643000245906692","0.2017769207613156","-0.5834562280435377","0.06500301281275207","-1.3382503401705463"
"0.06637342761426854","0.07508126065049656","0.018359126659108122","-0.06441783827756364","0.0812029331779188","0.28717480844024934","-0.563269952221879","0.07204808643221729","-1.3220012357191357"
"0.08015576857948425","0.10060685892856415","-0.002000200626890831","-0.05390468367411473","0.17204339923112424","0.4836064893957309","-0.5235401239832604","0.06627626126519662","-1.2957753495190607"
"0.03289660102952673","-0.04115865979160004","0.015569795329499031","0.07804094994648565","0.17768467159830778","0.4345705457137953","-0.48185832096000064","0.028608741670226","-1.2613196707794763"
"-0.1038377709995606","0.0005106820534372078","-0.022257935410926355","0.04952370163370098","0.11686440424695595","0.19020860350418434","-0.442723606984992","-0.008171255753013026","-1.2264430307846739"
"-0.2286972008073262","0.014386003161770326","0.015462506051724565","-0.011150198922930279","0.0033119838721708964","-0.11925996299317833","-0.4244655013774305","-0.0054207577148593575","-1.2055633525258664"
"-0.22086182837390278","-0.006662093304503577","0.09403794492078413","0.023127765758546533","-0.14877080619872438","-0.32966734732284303","-0.4473178891000629","0.009065667587539078","-1.2294739518222426"
"-0.22200151890967343","0.0039811249149085135","0.024185599066106265","-0.05091127612323651","-0.19147507820888846","-0.6494576583678712","-0.4775020845503735","0.0487134050795436","-1.2532372146792927"
"-0.09131700414130214","0.12792081329295288","-0.058591971533698724","-0.08353322035443163","-0.3187632776553957","-0.5508344612062017","-0.5355852366787315","0.11509232555104669","-1.2881980469251388"
"0.12803226850298424","-0.0017103304241913538","-0.08690684623980612","0.1130556996886044","-0.13977193801186585","-0.29745247813817105","-0.589693025526173","0.1277427406540638","-1.3437228364883789"
"0.18220080992605148","0.161523846770644","-0.014145726656014494","0.01773107707976872","-0.1951666757069604","-0.2318894918511308","-0.6049755598156834","0.1380131425356606","-1.3697803381863665"
"0.14369905611102632","0.0006643613456161106","0.011917972142099451","0.02377114323448624","0.11623635324403721","0.030065664855882156","-0.5925733785620463","0.13959590994892038","-1.3698224343118883"
"0.12042483417671493","-0.03248295578401879","0.05627971484525335","0.044690077367380565","-0.0038800790630338917","-0.16268786089862275","-0.5633175613629677","0.1315179340397649","-1.352289398032063"
"0.17332230407169352","0.057866922308316276","0.012558669528313698","0.08296274398902032","-0.04243521921854677","0.018433334405562146","-0.5902643352192387","0.1167337139796124","-1.370453876194715"
"0.16670829999577103","0.0831796594471644","-0.039494480089843714","0.05900500796501865","0.055860356067778026","0.12520305267936227","-0.6106172430347083","0.09003418634837901","-1.3819461184621635"
"0.10170225131963771","0.07868377417334721","-0.0393444649934865","-0.07235922891341641","0.17661394851445142","0.1430256733092925","-0.5964297189902406","0.08368670281105424","-1.3562253857683502"
"-0.2395400899323667","0.0868095869046115","-0.025355082526858298","-0.09520829547412984","0.21669414992208985","0.40084876308180833","-0.5676737977725947","0.10371984858169861","-1.309330301937077"
"-0.06504080567770036","-0.21051872255966958","-0.08659162464492892","0.052043087516417376","0.19651022074431976","0.21118900414261402","-0.5396558182418252","0.07692301006505743","-1.2810206575236736"
"-0.2750446159286672","0.38845962252880295","0.20349959320452463","-0.2052197330832499","0.2996512175086334","0.28843363247855514","-0.48190593010108923","0.09700070780733432","-1.2238330710023229"
"-0.135068457486721","-0.3992878510220231","0.13635929242095282","0.2076330616198222","0.04562775919325214","-0.17074923527531574","-0.4890473012644119","0.006263583055916201","-1.2549210597001643"
"-0.002441720096973877","0.10707816007771352","-0.013967227680602101","-0.16332599486025617","-0.15758589355775682","-0.33747756945831686","-0.5268489592889333","0.025524103844828595","-1.2866194422180717"
"0.024537287530353155","0.07877407889907669","-0.016414942354076215","-0.22492262267885252","-0.04559305326884555","-0.2904385923772945","-0.5473446945276694","0.11100057868269361","-1.2828728870466324"
"0.05311977642536868","-0.023163830605615058","-0.05691332159471415","-0.08088987300416646","-0.003621507428753354","-0.30028866076462146","-0.5744342958072067","0.16658502539576503","-1.278726418682736"
"0.024773140155116825","0.0006569434574311896","0.08342295265955817","-0.02181263106828651","-0.058988278476135234","-0.29970978547693344","-0.5881219238702419","0.19955348440381326","-1.2689390694989202"
"-0.0024591320357148054","0.042024893280346344","0.05079941651503902","0.040781799267269235","-0.08765329333454076","-0.13831077933931446","-0.6194963478477729","0.20860456916704698","-1.2890399694355745"
"0.010017313523930328","0.04574835063229896","-0.030400526970163728","0.041449619849486155","-0.04835136378039196","-0.12189706152597947","-0.6389208774120104","0.20743214886092862","-1.298953606995956"
"-0.015511754477332901","0.022756122427820602","-0.0215819180146837","-0.07209821145709895","-0.018695850164711536","-0.09916472086343567","-0.6502994621322379","0.2205163594772095","-1.295333340201082"
"0.011794914179028199","0.015722674361005287","0.01484573512391666","-0.11728565825094818","-0.03331169968759749","-0.004254901473157806","-0.6733660909897704","0.24251096441998993","-1.2972066177868016"
"0.008026020893375447","0.009210574826838859","0.005217614325688752","-0.022502275852536672","0.008984738694208143","0.06495101744444422","-0.672532931020716","0.25636897243830886","-1.2842831072516123"
"-0.008056278889166369","0.006387487842096814","-0.001434320896328162","0.043145796831509015","0.014250778553795475","0.05638427575310293","-0.664558399888339","0.24514891010875622","-1.2822414451638056"
"0.0006338614460850569","0.019717045890146324","0.001178600275665924","0.03619347903180237","0.006920800093013365","0.0838976974954407","-0.6462526851396885","0.24297993254243724","-1.2707071067708355"
"-5.94502965087602e-05","0.021361720707494303","0.014125472768874978","0.0036389279364858816","0.007009973746862896","0.09931293200831905","-0.6365404203575695","0.23199435427410822","-1.2732960184904252"
"0.0005610478840774867","-0.0019083557870409773","0.028702572606674814","-0.008771360901307902","0.020534484771292858","0.07752088083424209","-0.632422229653387","0.21438460127621048","-1.2813363784650873"
"-0.004216154945027947","0.0063059878271259666","0.026012403154683117","-0.006586583684165029","0.01153401849027931","0.022570914438037274","-0.6233050791348783","0.2128721790813178","-1.2765374201556032"
"0.0020869668791926896","0.015707032292441435","0.00820044614034595","0.00011728739959529857","-0.014411519544546546","-0.009916853096544827","-0.6278755566794048","0.21289562748744018","-1.2758849302100153"
"0.0023956330659638987","0.022142372809737812","0.0013608971016189964","0.007047780997268717","-0.020336293814828793","-0.002137565566391903","-0.627589901832872","0.22120808745781934","-1.2712333083398577"
"0.001322424478113174","0.025987741541425222","0.007029189033597443","0.007404824942532406","-0.00625660488094853","0.015637887447504516","-0.6308511279974559","0.2173742730568123","-1.2738222200594478"
"-0.0024163936406234204","0.01858323780692506","0.010510298839193048","0.029437579050394812","-0.006148413906654387","0.017783401410602324","-0.6341123541620399","0.2056617941986899","-1.2879875662975298"
"-0.0005169094143389382","0.016539287095101784","0.0092765670910502","0.030600372534725456","-0.011369866939316952","0.0052717318327942615","-0.634755077566739","0.19706795335484234","-1.2934811106781234"
"0.0024114621011829553","0.022591638820241927","0.011334052621468508","0.007364319223558726","-0.016262751813709557","-0.029911021763357807","-0.6371117300506355","0.19206171864771696","-1.2982590209248464"
"0.0007240869468335837","0.025999029632141405","0.00331109335426284","-0.0011925139096312033","-0.009060940504159214","-0.024402824316912274","-0.6389208774120104","0.1983810640976949","-1.2977959635441068"
"0.005273351668784879","0.033560437827596525","-0.009126867166493881","0.02043815109997092","0.0011377767742804608","-0.005596421981133309","-0.6396588190988872","0.19753692147728968","-1.3003006830126531"
"0.008982094620605289","0.04425348490459863","-0.01930890446608129","0.042294652952212936","0.017542852513115055","0.05168589114297868","-0.6367070523513806","0.1863989285691653","-1.3078569375438145"
"0.022248409037680394","0.08028023271749321","-0.0344243496180238","0.04535527904535351","0.031289658434506845","0.1565787058384971","-0.6215673454851364","0.16891814180494055","-1.310740522142057"
"0.05342211099805229","0.12308628529765016","-0.06507110455611428","-0.03496738708583794","0.11031062011726198","0.3931304259126342","-0.5839561240249703","0.14855320108766468","-1.2980695883599984"
"0.08800063843403909","0.07230116516553928","0.07431190921244508","-0.025709560583340566","0.16184755852216356","0.579656907501009","-0.5156132019919721","0.12788343109079797","-1.2515744177211818"
"0.055981665992970615","-0.07835936903897775","-0.006337345944357756","0.031191371925785402","0.1526601152250139","0.5405445401794401","-0.46424293875713785","0.07940619627341611","-1.2221913221069733"
"-0.004029372329443294","0.040496163280497446","-0.031872194054680746","-0.01592009651931365","0.1559505910901785","0.30646758853097467","-0.41803826733044","0.05376653659891372","-1.19011407445937"
"-0.08303841872174568","0.0034976721153782424","-0.022330094571199447","0.024896399091319722","0.06616486717927933","0.1476321729531171","-0.39309107739989935","0.03965176853355481","-1.170265751275846"
"-0.16659989564304317","0.07527315819267168","0.003202854613853201","-0.12620739204213377","0.0778245621342287","-0.16026516062052087","-0.3718812050448313","0.06655412487774666","-1.1474286031802754"
"-0.28284833029165246","-0.09114877582041397","0.042644861726598475","-0.1209346648309047","-0.08458974683938755","-0.3580904302315478","-0.37890355335543197","0.11499853192655722","-1.1390935703269611"
"-0.24117048055992754","-0.09421752391082795","0.0003411742314439826","0.12113938412171385","-0.31559905122847687","-0.6552464112447517","-0.43610593637364636","0.14924492906827447","-1.1909980930953272"
"-0.09666721804533673","0.1645893696922819","-0.036970808405555826","0.021692606232841142","-0.2677041694028419","-0.818342226426705","-0.5167558213781038","0.1854961649334541","-1.2590254319385388"
"0.13434963645890197","0.08837218117660894","-0.005517010227568914","-0.049382709012828895","-0.19582189431051428","-0.4202659240943393","-0.5709350239371788","0.23333091342308315","-1.2929128129835792"
"0.20822057801910487","0.11994013315661094","-0.05877236943438145","0.13803131649543607","-0.21947368780465498","-0.11753558845895411","-0.6049755598156834","0.24404683502100494","-1.3272001072210766"
"0.1605297526787242","0.030778729758251227","-0.07148947196987882","0.10058098580640852","0.05342486057554353","0.2608987709107474","-0.6184727513143632","0.19003343151813218","-1.3860083945750161"
"0.1443634007191693","-0.01600073075400243","0.0056866488674638515","0.0031319953716579495","0.1265424624496935","0.02391212866279178","-0.5697447954099583","0.1678160667171893","-1.3604349983205293"
"0.13626811552744927","0.01941162240705415","0.0715546697199048","-0.009275936452316245","0.025365523401886598","0.04518349836117048","-0.5328001019250357","0.16926986789677606","-1.3335355741121058"
"0.1540823650275173","0.03474891252157187","0.02979141635669037","-0.005086475333208738","0.016700656893425047","0.12508053939096267","-0.5493680830239442","0.16782779092025046","-1.3383555804843508"
"0.10284985637301791","0.10518337342178267","-0.11001866570516947","-0.04569441886921254","0.09144671671152972","0.20626396994895052","-0.5573426141563211","0.16035947357027652","-1.331493912024299"
"-0.02336295594597537","-0.06789208377629932","-0.04730096187623011","0.10993047395744548","0.1389932140113726","0.3107096111418105","-0.5474399128098472","0.1363952025132173","-1.317749527041435"
"-0.20390893165431387","-0.059188965834121615","-0.08101258220065667","-0.030243756797765017","0.17332187455513182","0.07424671320176306","-0.5156608111330613","0.12953654372242487","-1.2871456437870938"
"-0.2760576741826855","0.5013566555345211","0.28552936703286796","-0.16678294846232025","0.11926154547947021","0.221942608031888","-0.4558161207844171","0.13604347642138176","-1.2433235771189113"
"-0.21130109110160425","-0.20909964829820643","0.09880234842407858","0.04782490574743413","0.08142027398300009","0.27962186421041463","-0.4479844170753065","0.07505886177832923","-1.2565417605327533"
"-0.06567396708646184","-0.05792308708952101","-0.007584939846974115","0.033934237637322104","-0.09103326247238587","-0.1749667552284716","-0.46698046436974483","0.07279374574690856","-1.2716542695950757"
"-0.01780696458409332","0.02548461521236103","-0.04329802740634383","0.009073590726801521","-0.21362466319732018","-0.27796367678600636","-0.5149466740167288","0.09968672272865146","-1.305752131267725"
"0.06429824109705276","0.04978142418675263","-0.014563490215490287","-0.014604533620750374","-0.1022822472294978","-0.33263829456653304","-0.5541289971328258","0.12611307642855926","-1.3342512082459763"
"0.08274223293427493","0.020190500666470833","0.029515312622382276","-0.03986211911785139","-0.020689312813670393","-0.2532649978446491","-0.5757435471871493","0.13544554206526138","-1.3492584769944942"
"0.07552894158495967","0.039307688586522095","0.018916271333427208","-0.08294222096337167","-0.03008834377694331","-0.15495420956839867","-0.5891693249741958","0.16991469906514114","-1.3397447526265698"
"0.05086572181017777","0.020911003371040963","-0.005448648917836509","0.041062894989457276","-0.0001886413743774302","-0.226756185067188","-0.6067132934654254","0.1874541068446718","-1.338902830116134"
"-0.019120774507273383","0.008983200428127155","-0.02991440210095553","0.03995422552616905","0.02801516351089236","-0.17262062575561946","-0.6078797174221013","0.1948169063670951","-1.3306940856393852"
"-0.02380616893210839","0.07581014879388441","-0.020140633734492198","0.010788361928956691","0.027188948832752444","-0.004265315102671771","-0.6071179711646802","0.1962472591405595","-1.3273684917231636"
"-0.052694158206851305","0.05206323109580978","0.027350025104366512","-0.02853710419876621","0.020732648446514033","0.1493810501450212","-0.6046899049691506","0.18371408606815423","-1.333282997358975"
"-0.015717531935180384","-0.05065516925268666","0.046323649652836946","-0.013422534838630481","0.019500517853001706","0.08382725235461094","-0.5880267055880644","0.18378443128652133","-1.3198964294430462"
"0.015654032965429478","-0.03958639001327444","0.030254374337600372","-0.006669515651891314","-0.006874268271859705","-0.03272576456433838","-0.582480240651217","0.18376098288039897","-1.3136030586775387"
"0.01768489818403197","-0.026700228168556633","0.013902349049609493","-0.0022768275634503436","-0.03055818345851611","-0.11894755410775937","-0.5831705731970047","0.19608312029770292","-1.3059626118953338"
"0.013135633462080647","-0.014875146851160103","0.016199668841672312","-0.0046174295831104975","-0.0423569126049513","-0.15986699243322222","-0.6051898009505831","0.20247281096604797","-1.3168234122799556"
"-0.05245672267856576","0.05615597027262042","0.033191631945769295","-0.025129036809256575","-0.048410493264127316","-0.06448733458193191","-0.6338028947449625","0.21071492571806","-1.3277052607273379"
"0.007114268464758891","0.00039683359564255495","-6.519577640974993e-05","-0.05891813936518898","-0.013752465515020625","-0.045666230651544994","-0.6516563226532692","0.2264605304292296","-1.3274105878486855"
"0.010659972353823231","-0.0035394848955295362","-0.01151381623131696","-0.0004535464287859395","-0.027264511405041512","-0.011265724401824304","-0.6555126630814637","0.23313160197104305","-1.321538178338396"
"0.0038534872096372312","0.016325780922127105","0.0062468318222154914","0.005341564882310574","-0.02594927991546869","0.04722640744523363","-0.6587738892460476","0.23388195096695877","-1.3205699674513949"
"0.0025681695498514243","0.016531385431600452","0.015049869590478696","0.017734568952094035","-0.016406580287660413","0.038175738264713974","-0.659083348663125","0.2258743202761704","-1.3257898870160965"
"-0.002501870430806219","0.013611640138640116","0.014076480496900088","0.01749886757013512","-0.003439484504497771","0.04158160768222255","-0.6626778388153306","0.2156508152068183","-1.3319569694050388"
"0.004923529990444156","0.0165587993661969","0.00997746040833437","0.006476336091230548","-0.0012000751650829476","0.04269341577444883","-0.6608924960245","0.20875698380684238","-1.3337881508652365"
"-0.0024306397723205487","0.015613986173252319","-0.00487327456092212","-0.008084684208534264","0.005898019833807279","0.04277611224411855","-0.6606782548896003","0.20599007188440302","-1.3310098065807985"
"-0.006014333345910575","0.021412194598839526","-0.006962092358301108","-0.013562209731643174","0.008454810672406991","0.024453637397517963","-0.6524656780517794","0.2082997398874562","-1.3218538992798095"
"0.0010327531336047932","0.030396547258289004","-0.008655933699448434","0.020353473196081977","0.026359537966302513","0.0631071924540304","-0.6418488395889728","0.20357488605379923","-1.3222117163467446"
"0.009213198534803227","0.041149259957648086","-0.030413819447056133","0.028811660936081694","0.05120670588839033","0.10751519666667156","-0.6305416685803785","0.19127619704261764","-1.3197701410664808"
"0.020978920413113614","0.053282344893157634","-0.02815030052480545","-0.0007428480509384738","0.052355735585842174","0.13999346942140267","-0.6061657883429039","0.1855782343548824","-1.306867678594052"
