"AccX","AccY","AccZ","GyroX","GyroY","GyroZ","MagX","MagY","MagZ"
"0.05647171503177265","0.09454691889157109","0.051815881938436475","0.0013999160864201462","-0.004036459200843268","-0.00036020790139265315","-0.6468078066676433","-1.0660768227638524","-1.0761407384004393"
"0.05719286671228459","0.09400574712176242","0.05153707289591685","-0.008194653871577862","-0.008649299944778139","0.0004588653147726261","-0.6502350571874246","-1.0652324922273735","-1.0809457117700607"
"0.057196717989617105","0.09399743738249475","0.055256592048345286","-0.006670524980720464","-0.008862064052973536","0.0017443855595215103","-0.6499006912830556","-1.0627126932825695","-1.0860612106295553"
"0.05691653756367721","0.0935196273746023","0.05989514841500507","-0.004864117907310235","-0.004017791483813751","0.0004947831921037259","-0.6477830405553858","-1.0613274634961587","-1.0879243635687963"
"0.05684721457169209","0.09312906962902062","0.059891017910671446","-0.0010474896702904778","-0.006560669604821741","-0.00552024781905374","-0.6449966580189782","-1.0577258660514908","-1.0904249109346196"
"0.056772114663708205","0.09336589719814993","0.05833794828122881","0.004324267994688318","-0.006154766424282488","-0.002946537757592174","-0.6485910914909441","-1.0591374811671663","-1.0875321208447455"
"0.05691364910567783","0.09321632189133144","0.055556053612533025","0.005663356412535299","-0.005527722595855107","0.001124559487199696","-0.6467799428422791","-1.0604303623011497","-1.0840673101156308"
"0.05676441210904319","0.09415324499376404","0.054618429128800376","0.0046390871137018804","-0.002784286181632558","0.0009338064359683155","-0.6536065800564779","-1.0620662527155778","-1.0842470880308208"
"0.05733825243158673","0.09415843858080633","0.0534019956025481","-0.0006277308449390628","-0.006569764133630993","-0.0038063826182954574","-0.6519626143599974","-1.0616308947827058","-1.0822858744105672"
"0.057194792350950846","0.09431009132244178","0.05463701639830169","-0.003391784944902165","-0.008031829304571022","-0.0012460204166528808","-0.6497892359815993","-1.0616045094534408","-1.083920219094112"
"0.05705518354764747","0.09383955233640855","0.055869971941888454","-0.004426548214369368","-0.007815235921087517","-0.00038933050463408535","-0.6495941892040508","-1.0593617564659188","-1.0856362810118338"
"0.05713028345563136","0.09352482096164459","0.057734894648519705","-0.0013633678138634119","-0.0019248532091582342","0.0020079451188564717","-0.65006787423524","-1.0621454087033726","-1.0882022021649989"
"0.05677115184437508","0.09352274352682768","0.058028160456207005","0.0015688786411200853","-0.0036166748973846317","-0.0007868540388796341","-0.6483124532373034","-1.0607469862523295","-1.0898692337422144"
"0.05691268628634471","0.09352689839646151","0.05648541708759843","0.0022302876159283926","-0.003198326572159035","0.002213259471708568","-0.6497056445055072","-1.0601401236792352","-1.0875648077384166"
"0.05705422072831434","0.09391849485945165","0.055560184116866654","0.0015692637409598568","-0.0065704821227475126","-0.000807725237869327","-0.649649916854779","-1.0604963256243123","-1.0871235346738595"
"0.05705422072831434","0.09391849485945165","0.05540529020435575","0.0007212738937820443","-0.006147107873706276","-0.0016615028895639796","-0.6487582744431286","-1.0608921055632867","-1.0853911293093021"
"0.057126432178298846","0.09384059105381701","0.055564314621200275","0.0010506305317469964","-0.006358675333374141","-0.00016411570623367652","-0.6502907848381527","-1.0608789128986542","-1.0854401596498082"
"0.05691076064767846","0.09383955233640855","0.05586377618538803","-0.0001314334264329746","-0.0010864812507684943","-0.001625827700593225","-0.6494548700772304","-1.0619079407399878","-1.0849825431384161"
"0.0570561463669806","0.09383851361900009","0.05680140066912068","-0.00011622198276198296","-0.003827763697641484","-0.0037862394843868","-0.6494270062518664","-1.0625939593008769","-1.084770078329555"
"0.05691268628634471","0.0936037634846877","0.05679520491262024","0.0007209850689022153","-0.004880814401870674","-0.0016530087969518952","-0.6442164709087841","-1.0617232434351331","-1.0865515140346187"
"0.05676730056704257","0.09391537870722627","0.056322262166420285","0.0008844599508854041","-0.005300598705329311","-0.0007980177034555162","-0.6447458835907016","-1.0624884179838172","-1.0835770067105674"
"0.05690979782834533","0.09399535994767783","0.05555398836036622","0.001680653869613891","-0.006360350641312688","-0.00380371304633166","-0.6523248440897302","-1.062646729959407","-1.0822858744105672"
"0.05705325790898121","0.09392057229426856","0.05463082064180125","0.00034416487568537165","-0.004879857083048647","0.002629955386421393","-0.6497892359815993","-1.0605886742767394","-1.0837240977320863"
"0.05705422072831434","0.09384162977122547","0.05509550237933395","-0.001538973340799417","-0.0044521748993082925","0.0026323822700248458","-0.6480616788090265","-1.0620266747216802","-1.0813216110472759"
"0.0570561463669806","0.09352793711386997","0.05618182501907707","-0.0026976424837132427","-0.004872437862177942","-0.0020828098831233654","-0.6521019334868177","-1.0607469862523295","-1.0837731280725929"
"0.056768263386375695","0.09391433998981781","0.057096731728974795","-0.00034371971310725687","-0.004451696239897279","0.0026343237769076077","-0.6507087422186139","-1.060192894337765","-1.0854565030966439"
"0.05705710918631372","0.09352689839646151","0.05680140066912068","0.00035754709511744663","-0.00382656704911395","0.0009236135248338142","-0.6487861382684926","-1.0588736278745168","-1.0849825431384161"
"0.057198643628283356","0.09399535994767783","0.05618595552341069","0.002246172984318985","-0.0057309135158302394","5.551725987879084e-05","-0.6499006912830556","-1.0612219221790986","-1.085423816202973"
"0.05705422072831434","0.09391745614204319","0.055869971941888454","0.0031053307268501845","-0.004468209989577237","-0.0001497970929733057","-0.6503186486635169","-1.0610240322096114","-1.086077554076391"
"0.05705325790898121","0.0939195335768601","0.054940608466823054","0.0015885187329484542","-0.0015160780721529031","-0.0024854298729361647","-0.6447737474160655","-1.0618155920875605","-1.0833645419017066"
"0.05647075221243953","0.09391018512018394","0.05554159684736535","0.0005239102258989249","-0.008691182643241799","0.0004882306063744035","-0.6467520790169149","-1.0615781241241757","-1.0815340758561367"
"0.056544889301090286","0.0935196273746023","0.05616530300174257","0.0003837338842219386","-0.0015306771841888075","-0.002460675660180947","-0.6482288617612111","-1.060931683557184","-1.0858487458206947"
"0.05675959801237755","0.09359856989764541","0.05586377618538803","-0.0006497778107660065","-0.005743119330811078","-0.0020624240608543625","-0.6490369126967693","-1.0620662527155778","-1.0815994496434784"
"0.05704651817364932","0.0939112238375924","0.05587616769838889","0.0003562955206381878","-0.008276424263598802","6.255522232880371e-05","-0.6499842827591479","-1.0638076844470654","-1.0850315734789222"
"0.0570455553543162","0.0939901663606355","0.055256592048345286","-0.00038550304572251224","-0.002798645963962956","-0.0026827355098968672","-0.6454703430501675","-1.0621454087033726","-1.0853420989687956"
"0.05718901543495209","0.0939901663606355","0.05557257562986753","-0.000987799195125827","-0.004062067479332478","-0.0024774211570447705","-0.6516561122809925","-1.0624092619960221","-1.0863553926725935"
"0.05691172346701158","0.09383851361900009","0.056328457922920724","0.0017334125476626467","-0.004883207698925741","6.109909216673191e-05","-0.6454424792248034","-1.0623432986728598","-1.082531026113099"
"0.056840474836360205","0.09368062857291388","0.05694596832079752","0.0016378115124392623","-0.002774473663706786","0.0013604525734552963","-0.647086444921284","-1.0619607113985177","-1.08385484530677"
"0.05606251681519378","0.09288185488580669","0.0648166443285181","0.0051688882182681275","-0.000246673314145715","-0.0020459212523508837","-0.6481174064597548","-1.0616704727766033","-1.0819590054738584"
"0.05691268628634471","0.09391330127240935","0.057724568387685644","0.003980758937611748","-0.0044698852975157835","-0.002718410698867622","-0.6472814916988324","-1.063359133849561","-1.0819263185801873"
"0.05560421481262545","0.09632624181226623","0.055801818620383664","0.008964624788980257","-0.026381955814881192","-0.007357884083588108","-0.6405941736114541","-1.0673037405746733","-1.0755523743143631"
"0.055089106469402634","0.09786769844642362","0.05981253832833259","0.007517227041197418","0.015324595985526927","0.0036800679216353674","-0.6364145998068426","-1.0683063830867419","-1.0733296655447426"
"0.059494967737790665","0.09075144548105143","0.04467837044993416","-0.007429556764910959","-0.049994463889871235","0.008736479909429025","-0.6431855093703133","-1.0624884179838172","-1.0854891899903147"
"0.056747081361046905","0.09732860411143192","0.06034950389170371","0.0009602283443605334","-0.010385158298817757","-0.012353381292935102","-0.643519875274682","-1.0606678302645345","-1.08421440113715"
"0.05603844633186562","0.09475673980808037","0.059240463478125664","-0.010124581718594941","0.005256473934273833","0.0050886311650793015","-0.6413186330709202","-1.0571585814722941","-1.0892972131029737"
"0.0582115295667327","0.09072340011102296","0.05562420693403783","-0.00533288068727263","0.0020468232537243624","-0.0033081434145066225","-0.6412071777694639","-1.0552060671066867","-1.0925005286827214"
"0.05626663451381666","0.09226589546258884","0.05894513241827155","0.00039730865357389945","-0.012482643837877899","-0.005112045996952999","-0.642043092530386","-1.0535042133690964","-1.0925332155763923"
"0.05661613793174167","0.09367439626846312","0.056479221331098","0.0030160838389830377","-0.014178773460803417","-0.0012639793553184306","-0.6427954158152162","-1.0551664891127892","-1.09318695344981"
"0.05827122436538656","0.09321632189133144","0.0553102886046824","0.0027861792346391885","-0.006194734485102096","-0.003353283449530843","-0.6419316372289299","-1.0550609477957293","-1.0916670128941135"
"0.056832772281695185","0.09367335755105463","0.057416845814830655","0.007726721354033355","0.008135370961813137","0.00018001638873591338","-0.6365817827590271","-1.0574092421003112","-1.0872379388017075"
"0.05676056083171068","0.0932879933925153","0.05524626578751123","0.006853411192390538","0.008982119459895611","0.002752513008395753","-0.6344084043806293","-1.0570398474906018","-1.0833318550080357"
"0.05647171503177265","0.0939849727735932","0.05693564205996346","0.007229364910967893","0.0077189372742315935","-0.0017488706992882762","-0.6408728118650949","-1.063662565136108","-1.0805044387055036"
"0.056542000843090905","0.09383332003195775","0.05508104561416627","0.006524150829385528","-0.002180935994050333","0.00010648181555129714","-0.636553918933663","-1.0647443636359715","-1.0793277105333514"
"0.05689631835768156","0.09461755167534647","0.053079816264525424","0.003442678186490404","-0.009128438015202418","-0.0003691873707254278","-0.6318449324471341","-1.067158621263716","-1.073198917970059"
"0.057037852799651186","0.09462170654498031","0.05153500764375005","0.00026839648221024245","-0.012491020377570633","0.0004620202634571147","-0.6372783783931291","-1.069071557635426","-1.0754870005270214"
"0.05711295270763508","0.09415220627635558","0.05247056687531588","-0.00452657789775013","-0.00489182356832398","0.0013696747311484167","-0.6358573232995611","-1.0667100706662116","-1.0756667784422116"
"0.056686423743059926","0.09367855113809696","0.054622559633134","-0.0047726566953644","-0.0027792602578169184","9.895847638059388e-05","-0.6371111954409446","-1.0643353910323647","-1.081468702068795"
"0.056258931959151645","0.09351443378755997","0.05770185061385072","-0.0030446174393477608","-0.005307539266789003","-0.0024868860030982363","-0.6350214085386388","-1.061089995532774","-1.0831357336460106"
"0.05676344928971007","0.09320697343465527","0.05695009882513114","-0.0003048246292902907","-0.006586756542721964","-0.0024978069793137733","-0.6377520634243183","-1.0597179584109957","-1.0834299156890486"
"0.05676056083171068","0.09367543498587158","0.05648335183543163","0.002719268137478814","-0.008277860241831842","0.0039171744496926935","-0.6324300727797798","-1.060403976971885","-1.0841326839029728"
"0.0567576723737113","0.09398808892581857","0.05570888227287712","0.0039466776017919305","-0.009126762707263873","0.00048604641113129623","-0.6387830249627892","-1.062105830709475","-1.0825963999004407"
"0.05682892100436268","0.093991205078044","0.05447179622495672","0.003983069536650379","-0.007024011914682584","-0.0033544968913325696","-0.6366653742351194","-1.0633723265141934","-1.0801775697687948"
"0.05690016963501406","0.09383747490159162","0.05385635107924674","0.0017558446133293618","-0.0011190300907173967","-0.002457520711496459","-0.6394796205968911","-1.0657733914773053","-1.0779058306586677"
"0.05682795818502955","0.09399224379545246","0.05400711448742403","0.0007061587250709957","-0.0011130468480797307","0.0001127917129202741","-0.637640608122862","-1.064427739684792","-1.078281729935883"
"0.05718997825428521","0.0938353974667747","0.055262787804845726","0.0009506008483662349","-0.006173194811606499","0.000933321059247625","-0.6382257484555077","-1.0635042531605183","-1.0755196874206925"
"0.05704459253498308","0.09399224379545246","0.05463701639830169","0.0010609319524608955","-0.008280492868592414","-0.0020789268693578405","-0.6360802339024738","-1.0656150795017156","-1.0784451644042374"
"0.05675670955437818","0.09391330127240935","0.05431483706027901","-0.0014236359387877207","-0.002370245791106081","-0.0011814653128010399","-0.6405941736114541","-1.0634646751666208","-1.0762224556346165"
"0.0567576723737113","0.09367958985550542","0.05431483706027901","-0.001338625149158065","-0.004055844906989305","-0.0011943277958993384","-0.6368046933619398","-1.0641375010628775","-1.0771867189979079"
"0.056686423743059926","0.09367855113809696","0.054622559633134","-0.0016881995287110437","-0.003210532387139873","-0.0003318133632322568","-0.6410678586426435","-1.062923775916689","-1.0773174665725915"
"0.056903058093013444","0.09352378224423613","0.054940608466823054","-0.002797094517334346","-0.005737854077289931","-0.0009928964568127663","-0.6399254418027164","-1.0640847304043475","-1.0834789460295549"
"0.056832772281695185","0.09367439626846312","0.05695216407729795","0.0002852446002002648","-0.007220740932609038","-0.0016433012625380844","-0.6378635187257747","-1.0611691515205688","-1.08001413530044"
"0.056618063570407925","0.09336381976333301","0.0561694335060762","0.0032593706627589603","-0.003645155132339921","0.0013786542004811915","-0.639089527041794","-1.0621190233741076","-1.0817465406649975"
"0.05661324947374229","0.0939901663606355","0.054618429128800376","0.0027795362624031222","-0.00638500160097987","-0.002707489722652084","-0.6369997401394881","-1.0638736477702277","-1.0799814484067694"
"0.05675670955437818","0.09383643618418316","0.05400504923525721","0.0017490090911734101","-0.005330275588812134","-0.002059026423809528","-0.6392288461686143","-1.064559666331117","-1.0793930843206931"
"0.05689920681568094","0.09399432123026936","0.05339166934171404","0.0005357520459719121","-0.006380693666280751","-0.00035316993894264024","-0.6359687786010174","-1.0651665289042112","-1.0767454459333508"
"0.056970455446332315","0.09422595521235634","0.05416820415643536","0.00033386345497147233","-0.0032181909377160863","0.0033111816139105603","-0.6363867359814787","-1.065984474111425","-1.0773828403599333"
"0.056901132454347185","0.09391226255500089","0.05509550237933395","-0.001442120731096774","-0.0061624249748587","0.0005052187915985724","-0.6404269906592698","-1.064863097617664","-1.0802756304498073"
"0.05654103802375778","0.09414389653708786","0.055233874274510354","-0.0004887098027813924","-0.006372556456293526","-0.000993624521893802","-0.6396746673744397","-1.062871005258159","-1.0794094277675286"
"0.05661517511240854","0.0936775124206885","0.05492821695382218","0.0003404101522475953","-0.007427761127872277","0.002208891081222353","-0.6385601143598766","-1.0628578125935266","-1.0798016704915794"
"0.05661324947374229","0.0938353974667747","0.05430864130377857","0.0007030779263528202","-0.005323813686763454","8.269835623746088e-05","-0.6362195530292942","-1.063385519178826","-1.0795238318953768"
"0.05690016963501406","0.09422283906013096","0.055560184116866654","-0.0003245609960786027","-0.004901875415955259","-0.00012625632201981475","-0.6355229573951922","-1.0627126932825695","-1.0799324180662628"
"0.05646786375444015","0.09429970414835714","0.05523180902234354","0.001742943768697002","-0.0019547694223465634","-0.0013894492376169342","-0.6417365904513812","-1.062950161245954","-1.0815994496434784"
"0.056903058093013444","0.09352274352682768","0.05509550237933395","0.0010346488883964608","-0.004484484409551688","0.0013723443031122145","-0.6417923181021095","-1.0639396110933903","-1.0826617736877826"
"0.056902095273680314","0.0941428578196794","0.05648954759193207","0.004804006120084214","-0.004917431846813189","0.0005171105212554906","-0.6345755873328136","-1.0649554462700914","-1.0784124775105663"
"0.05646786375444015","0.09383747490159162","0.05306329424719093","-0.0004916943265396248","-0.008268526383317083","-0.0003672458638426658","-0.6376963357735902","-1.0647311709713392","-1.0793440539801868"
"0.05704651817364932","0.09337109078519223","0.05370765292323628","0.0001851186418595603","-0.004063264127860012","0.000945212788904543","-0.6391173908671581","-1.067105850605186","-1.0789518112561363"
"0.0567576723737113","0.0939901663606355","0.05508930662283352","-0.001331982176921999","-0.0023704851208115867","-0.0020371844713784545","-0.6391452546925221","-1.0649290609408264","-1.078101952020693"
"0.056901132454347185","0.09414493525449633","0.055560184116866654","0.0003537923716796702","-0.001111610869846691","0.0009709377551011415","-0.6407613565636385","-1.065219299562741","-1.0794257712143642"
"0.05704651817364932","0.09367855113809696","0.05556637987336709","0.0008963017709583912","-0.006173434141312007","-0.002707489722652084","-0.6400368971041726","-1.0650477949225188","-1.0798343573852502"
"0.0567576723737113","0.0939901663606355","0.05508930662283352","0.0012123724644512114","-0.00659058581801007","0.0002889834625309386","-0.6426560966883957","-1.065219299562741","-1.0792786801928451"
"0.05661324947374229","0.0938353974667747","0.05415374739126767","0.0016748773720173117","-0.007014438726462319","-0.003569761466958821","-0.6345755873328136","-1.064942253605459","-1.0786249423194272"
"0.05661324947374229","0.0938353974667747","0.05430864130377857","6.143491325551062e-06","-0.007006062186769587","0.0013555988062483911","-0.6390616632164299","-1.0652984555505358","-1.077039627976389"
"0.05682795818502955","0.09414701268931325","0.054626690137467626","-0.0006613308059591647","-0.007007498165002626","-0.0007846698436365266","-0.6391731185178863","-1.0649158682761939","-1.07854322508525"
"0.05683084664302893","0.09383124259714083","0.05633258842725435","0.0009745733133920382","-0.006591543136832096","-0.0020667924513405773","-0.6386437058359687","-1.0653116482151683","-1.0768108197206927"
"0.05718901543495209","0.0939901663606355","0.05557257562986753","0.0007301311900967989","-0.00048648167906336156","-0.0028800411468575702","-0.6396468035490754","-1.0642166570506724","-1.0794094277675286"
"0.05683084664302893","0.09367855113809696","0.05493854321465624","0.0013133648974314027","-0.004486159717490234","-0.0011967546795027915","-0.6395910758983474","-1.0639000330994928","-1.0787720333409463"
"0.0564697893931064","0.0939112238375924","0.05461223337229994","4.8311923780578534e-05","-0.003847149403787521","-0.0033326549389014947","-0.6372783783931291","-1.0659185107882625","-1.0793277105333514"
"0.056614212293075415","0.09367855113809696","0.054618429128800376","0.0002604056605349747","-0.0053211810600028815","0.0017951074268336713","-0.6380864293286873","-1.0642298497153049","-1.0793603974270223"
"0.05654103802375778","0.09414389653708786","0.055543662099532154","0.00016595992483090633","-0.006582927267433858","0.0024314363076589638","-0.6391173908671581","-1.0616045094534408","-1.0819590054738584"
"0.056902095273680314","0.09383332003195775","0.05571507802937756","0.0008783946284089961","-0.001956684059990617","-0.00032113507537706506","-0.635829459474197","-1.0627390786118343","-1.0788864374687943"
"0.056903058093013444","0.09360064733246232","0.055250396291844854","0.0017521861648515289","-0.0070170713532228925","-0.002713799620021061","-0.6358573232995611","-1.0637285284592704","-1.0797362967042377"
"0.05675670955437818","0.09391330127240935","0.054624624885300815","0.0015463503004934265","-0.004063024798154505","0.0015912492041436463","-0.6372505145677649","-1.0649290609408264","-1.0784778512979083"
"0.056901132454347185","0.09383643618418316","0.05432103281677944","3.136753083061316e-05","-0.007854007333379593","-0.0016486404064656806","-0.6380585655033232","-1.0640847304043475","-1.0785105381915792"
"0.05675863519304443","0.09367855113809696","0.054934412710322615","0.0007157862210652942","-0.004904747372421338","-0.0014139607620118062","-0.6407056289129105","-1.0642430423799372","-1.07836344717006"
"0.05676056083171068","0.0932879933925153","0.05524626578751123","9.048035623560593e-05","-0.0036370179223526966","0.0018055430263285179","-0.6345755873328136","-1.0624488399899197","-1.0773501534662622"
"0.05704651817364932","0.09367958985550542","0.05510169813583439","0.0002639678340528651","-0.004483766420435168","0.0013728296798329051","-0.6361359615532018","-1.0649158682761939","-1.0790989022776551"
"0.05690016963501406","0.09414701268931325","0.05463082064180125","0.0007328268889752025","-0.003222498872415205","-0.003327315794973899","-0.6427396881644881","-1.0659976667760573","-1.0809783986637316"
"0.056611323835076034","0.09414701268931325","0.05399678822658996","-0.0004521253180030579","-0.0013203063730484756","-0.004599002803183103","-0.6373062422184932","-1.0654171895322284","-1.0793440539801868"
"0.0567576723737113","0.09368062857291388","0.05400504923525721","-0.0004892874525410502","-0.008693097280885853","-0.0007989884568968974","-0.642377458434755","-1.0630029319044838","-1.0799160746194274"
"0.05661517511240854","0.0936775124206885","0.055238004778843976","-0.0011000557984193477","-0.001946392882653831","0.0009626863508494023","-0.6369718763141242","-1.0642298497153049","-1.0795401753422122"
"0.05675863519304443","0.09383228131454929","0.05570888227287712","-0.0006750018502710686","-0.004477304518386489","0.0009456981656252336","-0.6377520634243183","-1.0635438311544159","-1.0795728622358831"
"0.05697526954299795","0.0936775124206885","0.05587410244622208","0.0017409219945381993","-0.003224892169470272","-0.0011872898334493263","-0.6402040800563571","-1.0632931705263984","-1.0817792275586684"
"0.056902095273680314","0.0939112238375924","0.055560184116866654","0.00157484768863655","-0.006173194811606499","-0.002063880191016434","-0.6422381393079346","-1.0642298497153049","-1.0784124775105663"
"0.05683084664302893","0.09367855113809696","0.05493854321465624","0.0024496982496384555","-0.0021739954325906406","-0.0037498362303350105","-0.6417087266260172","-1.064810326959134","-1.0762551425282874"
"0.05682892100436268","0.09391433998981781","0.05431690231244582","0.0008830158264862592","-0.008276902923009815","-0.0012229650224200807","-0.6444115176863326","-1.065272070221271","-1.0769742541890472"
"0.05675574673504504","0.09399224379545246","0.05400504923525721","0.0004030851511704786","-0.008066292782163977","-0.005075885431261554","-0.6391452546925221","-1.0647575563006042","-1.0783307602763892"
"0.05675670955437818","0.09391330127240935","0.05431483706027901","-0.0013619236894642673","-0.004896849492139619","0.0013704027962294523","-0.6414022245470123","-1.065931703452895","-1.0781673258080346"
"0.05682988382369581","0.0939112238375924","0.05555811886469984","-0.001872758626921746","-0.0038423628096773883","0.0009500665561114484","-0.6399254418027164","-1.0677522911721777","-1.0796218925763894"
"0.056903058093013444","0.0936775124206885","0.055560184116866654","-0.00016898066081073886","-0.0055334665087872666","0.0017938939850319449","-0.6400368971041726","-1.064533281001852","-1.0798507008320857"
"0.056903058093013444","0.09360064733246232","0.05540529020435575","0.0005355594960520261","-0.004062546138743492","-0.00033739519552019806","-0.6430183264181288","-1.0639000330994928","-1.078216356148541"
"0.056614212293075415","0.09383228131454929","0.05554779260386578","0.0012431804516329665","-0.007012284759112759","-0.003354739579692914","-0.6430183264181288","-1.065219299562741","-1.0788537505751237"
"0.05661517511240854","0.0936775124206885","0.05508311086633308","0.0017330274478228748","-0.005537535113780879","-0.0003473454182943539","-0.6383929314076919","-1.065601886837083","-1.0785105381915792"
"0.05675863519304443","0.09367855113809696","0.054934412710322615","0.0020904000991312354","-0.005330993577928653","-0.002059026423809528","-0.639507484422255","-1.065601886837083","-1.0781182954675284"
"0.05689920681568094","0.09422595521235634","0.05416407365210174","-0.0008015071476361507","-0.0002686916470523241","-0.0037347895519936032","-0.6388666164388814","-1.0650477949225188","-1.074261242014363"
"0.056611323835076034","0.09414701268931325","0.05399678822658996","-0.0003899316938798897","-0.0032148403218389926","-0.0020427663036663955","-0.6358573232995611","-1.0667100706662116","-1.0758792432510722"
