"AccX","AccY","AccZ","GyroX","GyroY","GyroZ","MagX","MagY","MagZ"
"0.0570455553543162","0.09383643618418316","0.05463701639830169","-0.0027912217447778236","-0.009953646839789295","-0.00209227472917683","-0.6382536122808716","-1.065984474111425","-1.0767944762738573"
"0.056974306723664825","0.09367855113809696","0.05525452679617848","-0.0008421351807320904","-0.010589545867320423","4.459628366325381e-05","-0.6361359615532018","-1.0642694277092022","-1.0784615078510726"
"0.05704844381231558","0.09352170480941922","0.055878232950555703","-0.001093124001303453","-0.007008216154119147","-0.00035875177123058155","-0.6424889137362113","-1.062791849270364","-1.0811908634725924"
"0.05676056083171068","0.09359856989764541","0.05617562926257664","0.001744002793256375","-0.003643719154106882","-0.0016185470497828672","-0.6411793139440997","-1.0635306384897831","-1.079458458108035"
"0.056614212293075415","0.09383332003195775","0.055238004778843976","0.0020821204525761383","-0.0002722815926349247","-0.0007373456133691992","-0.6347706341103622","-1.064533281001852","-1.0809783986637316"
"0.05697141826566544","0.09414701268931325","0.054632885893968065","0.0019199934200321517","-0.003226328147703311","-0.0020422809269457047","-0.6362474168546582","-1.0642034643860399","-1.08037369113082"
"0.057042666896316825","0.09414909012413016","0.05401537549609127","0.0008999602194362245","-0.004910012625942484","-0.002911347945342109","-0.6426839605137599","-1.0642034643860399","-1.079066215383984"
"0.05704459253498308","0.09383747490159162","0.05401744074825808","-0.000497278274216318","-0.003850260689959107","0.0005207508466606695","-0.6427118243391238","-1.0641902717214073","-1.0794911450017057"
"0.05690402091234657","0.09352274352682768","0.055250396291844854","-0.0006528586094841821","-0.0038488247117260672","-0.0014074081762824838","-0.6419037734035657","-1.0645464736664842","-1.0790335284903134"
"0.056617100751074796","0.0935196273746023","0.056324327418587096","0.0006335674052739849","-0.005745273298160638","-0.002062181372494017","-0.6415415436738326","-1.0647047856420742","-1.0796709229168957"
"0.05697526954299795","0.0936775124206885","0.05587410244622208","0.001717334629352168","-0.005329796929401121","0.0013674905359053093","-0.6399533056280804","-1.063741721123903","-1.0783471037232246"
"0.05718805261561897","0.09399328251286092","0.05448831824229122","0.0035999914710372416","-0.007234861385233929","0.0013548707411673553","-0.6414300883723764","-1.0644145470201596","-1.077954860999174"
"0.05689920681568094","0.09414909012413016","0.05369939191456904","0.0024311171823694594","-0.0006990064575532528","-0.0013824112751669214","-0.6400368971041726","-1.0665253733613569","-1.075356252952338"
"0.05661228665440916","0.09399224379545246","0.05368906565373497","0.00039047313141794756","-0.0004795411176036689","-0.002880769211938606","-0.6362474168546582","-1.067699520513648","-1.07653298112449"
"0.05646882657377327","0.0938353974667747","0.05399265772225634","0.0003639012424736836","-0.001529001876250261","0.00010939407587544032","-0.6393681652954347","-1.067158621263716","-1.077039627976389"
"0.0567576723737113","0.0938353974667747","0.054624624885300815","-0.002473610651925916","-0.003207899760379301","0.0013820518375260253","-0.6361916892039301","-1.0687285483549815","-1.076091708059933"
"0.05675863519304443","0.09383332003195775","0.055244200535344415","-0.0007525994679851146","-0.004477783177797502","8.876556524609253e-05","-0.6380585655033232","-1.0655755015078179","-1.0795728622358831"
"0.05675670955437818","0.09383643618418316","0.05400504923525721","-0.0006406316895714228","-0.006165775590735794","-0.002921783544836956","-0.6405941736114541","-1.0652852628859035","-1.0770723148700598"
"0.056903058093013444","0.09383332003195775","0.055869971941888454","-0.00047734935750812","-0.0032172336188940587","-0.0020434943687474313","-0.6393681652954347","-1.0630029319044838","-1.0804717518118327"
"0.05704651817364932","0.09383332003195775","0.05587616769838889","0.0015957393549441779","-0.00491240592299755","-0.004410676635555174","-0.6383929314076919","-1.0657601988126728","-1.0787230030004398"
"0.056614212293075415","0.09383332003195775","0.05508311086633308","0.0020170385796546807","-0.0028015179204290354","-0.0033251315997307913","-0.6375848804721339","-1.065113758245681","-1.0778568003181612"
"0.05675863519304443","0.09352378224423613","0.05446973097278991","0.0017576738375682788","-0.008912323291129929","-0.003370271634755011","-0.6358573232995611","-1.0658789327943652","-1.0754543136333505"
"0.0567576723737113","0.0938353974667747","0.054624624885300815","0.002776070363845175","0.0011976814585868236","-0.001583842614253494","-0.6360245062517456","-1.0646388223189118","-1.0771703755510724"
"0.05690016963501406","0.093991205078044","0.05463082064180125","0.0016569702294679165","-0.0021708841464190545","-0.0011790384291975869","-0.6397303950251677","-1.066670492672314","-1.076418576996642"
"0.05675478391571192","0.0941480514067217","0.0536931961580686","0.0012159346379691017","-0.006380693666280751","7.638845886848392e-05","-0.6357180041727407","-1.0662747127333396","-1.0737382517156286"
"0.05675574673504504","0.09399224379545246","0.05400504923525721","-0.0010086908614334548","-0.005530833882026693","8.124222607538929e-05","-0.6412071777694639","-1.0671718139283484","-1.0760263342725913"
"0.05675574673504504","0.09399224379545246","0.05400504923525721","-0.0010106163606323144","-0.010797523381405688","-0.00016994022688196308","-0.6410399948172792","-1.0657601988126728","-1.0781509823611992"
"0.0567576723737113","0.0938353974667747","0.054624624885300815","-0.0006786602987489019","-0.00658412391596139","0.0013585110665725343","-0.6405941736114541","-1.0654567675261257","-1.077301123125756"
"0.05704651817364932","0.09367958985550542","0.05510169813583439","-0.0008222062640238926","-0.0036394112194077623","-0.0016195178032242484","-0.6397025311998037","-1.0648499049530316","-1.0751274446966417"
"0.05683084664302893","0.09391018512018394","0.05586790668972165","0.0012962279545615514","-0.007855203981907125","0.00028000399319816376","-0.6383093399315998","-1.063794491782433","-1.0768108197206927"
"0.05661517511240854","0.09352378224423613","0.05430864130377857","0.0019264438423483318","-0.002169208838480508","-0.0024660148041085427","-0.6368325571873038","-1.0636229871422107","-1.0771867189979079"
"0.05661228665440916","0.09414597397190479","0.054618429128800376","0.0005439354175670657","-0.0049025934050717776","-0.0014117765667686988","-0.6381700208047795","-1.0663538687211345","-1.0759446170384142"
"0.05675574673504504","0.0941480514067217","0.0540029839830904","0.00190574472596059","-0.0038548079543637335","-0.0003337548701150188","-0.6396746673744397","-1.066696878001579","-1.0755523743143631"
"0.05682892100436268","0.09383643618418316","0.05431690231244582","-0.002384652588938598","-0.009529554601631539","0.000480464578843355","-0.6363310083307504","-1.0661691714162798","-1.0767454459333508"
"0.05704459253498308","0.093991205078044","0.05494680422332348","-0.0030664718552548182","-0.00889796350879953","5.745876676155303e-05","-0.6386715696613329","-1.0656414648309804","-1.0772357493384144"
"0.056322478035138006","0.09461131937089572","0.054913760188654494","0.0008560588377022235","-0.003633667306475603","0.0020263894342427116","-0.635773731823469","-1.0649158682761939","-1.0792950236396806"
"0.05690016963501406","0.09414701268931325","0.054940608466823054","-0.0023785872664621897","-0.006370402488943967","-0.00013790536331638768","-0.6427118243391238","-1.065522730849288","-1.080341004237149"
"0.05712161808163321","0.09290159051656749","0.05448625299012441","-0.0018469569376570259","-0.007008455483824653","-0.0018617207868488255","-0.6398418503266242","-1.0628050419349966","-1.0815504193029721"
"0.056614212293075415","0.09383332003195775","0.055238004778843976","0.00034647547472400333","-0.008060070209820804","0.0013485608437983783","-0.644160743258056","-1.0637285284592704","-1.083593350157403"
"0.05683373510102832","0.09328695467510684","0.05586790668972165","0.000381134460303478","-0.006590346488304563","-0.002498049667674118","-0.640176216230993","-1.0629897392398515","-1.0809130248763896"
"0.056902095273680314","0.09367958985550542","0.054940608466823054","0.0020768253297792747","-0.0036463517808674544","-0.0003339975584753643","-0.6397582588505318","-1.0633195558556636","-1.0809130248763896"
"0.056902095273680314","0.09367958985550542","0.05447592672929035","0.00038479290878131145","-0.002799603282784983","-0.002470140506234412","-0.6377520634243183","-1.0635438311544159","-1.0795728622358831"
"0.056902095273680314","0.09391226255500089","0.055250396291844854","0.00037227716398872333","-0.0025877964934116113","-0.0011821933778820752","-0.6386158420106046","-1.0636757578007405","-1.0808803379827188"
"0.056903058093013444","0.0936775124206885","0.055560184116866654","0.0008912954730413559","-0.005328600280873588","-0.002059026423809528","-0.6442443347341481","-1.0641770790567748","-1.079752640151073"
"0.05682892100436268","0.0939901663606355","0.05509137187500033","0.0003511929477612096","-0.006377582380109165","0.0009328356825269344","-0.6399533056280804","-1.0632403998678686","-1.0781346389143638"
"0.05690016963501406","0.09414597397190479","0.05509550237933395","0.00018945101505699462","-0.005535859805842333","-0.00013135277758706543","-0.6410678586426435","-1.063253592532501","-1.0775299313814524"
"0.05683084664302893","0.09367855113809696","0.05493854321465624","0.001551067773530633","-0.005328360951168081","0.0009389028915355661","-0.6373619698692212","-1.0645464736664842","-1.0799814484067694"
"0.05654103802375778","0.09391226255500089","0.054614298624466755","0.0015651239176823087","-0.006168647547201873","-0.0007790880113485853","-0.6391731185178863","-1.0645860516603818","-1.0783307602763892"
"0.05675670955437818","0.093991205078044","0.054624624885300815","0.001382008943870751","-0.004484245079846181","0.0007318897201610526","-0.6391173908671581","-1.0637681064531679","-1.0774645575941106"
"0.056903058093013444","0.09367855113809696","0.05509550237933395","0.0004468902579445368","-0.006168886876907379","-0.00013790536331638768","-0.6407613565636385","-1.063715335794638","-1.0788047202346172"
"0.05661228665440916","0.09414597397190479","0.054618429128800376","-0.0017095725698183864","-0.0057361787693513844","0.0017941366733922903","-0.6368882848380321","-1.0647575563006042","-1.0786903161067691"
"0.05661324947374229","0.09398912764322703","0.05508311086633308","0.0005511560395627896","-0.009959151423015948","-0.002732729312127993","-0.6392567099939784","-1.06404515241045","-1.0793930843206931"
"0.05683084664302893","0.09367855113809696","0.05493854321465624","-0.0008146005421883968","-0.003637496581763709","-0.0024759650268826993","-0.6428511434659443","-1.0639659964226553","-1.0814196717282887"
"0.056903058093013444","0.0936775124206885","0.055560184116866654","0.0008606800357794867","-0.007011806099701746","0.001355356117888046","-0.6374455613453135","-1.0626863079533044","-1.0804227214713265"
"0.05690402091234657","0.09352170480941922","0.05587203719405527","0.0020169423046947376","0.002672670433624211","-0.002859412636228222","-0.640538445960726","-1.0613274634961587","-1.0800795090877822"
"0.05675863519304443","0.09383228131454929","0.05570888227287712","0.003593541048721062","-0.004068768711086664","0.002234130670698261","-0.638755161137425","-1.06409792306898","-1.0776770224029713"
"0.05675574673504504","0.09414701268931325","0.05431483706027901","0.0016585106288270041","-0.005329318269990107","-0.001628982649277714","-0.6417087266260172","-1.0664726027028268","-1.0771050017637307"
"0.056898243996347804","0.09430489773539945","0.05369939191456904","0.0005462460166056974","-0.005538492432602906","-0.0016304387794397854","-0.6401483524056288","-1.067488437879528","-1.077268436232085"
"0.05689920681568094","0.09399328251286092","0.05370145716673584","-0.0011826597140504288","-0.0048999607783112055","0.0005137128842106568","-0.6404548544846337","-1.0676863278490152","-1.0762224556346165"
"0.0567576723737113","0.0938353974667747","0.05446973097278991","-0.000987702920165884","-0.004057520214927852","-0.0022643407766616253","-0.6405663097860901","-1.064968638934724","-1.0766473852523382"
"0.05675863519304443","0.09383228131454929","0.05586377618538803","-0.0013547030674685432","-0.0023685704831675346","0.0005321571995968972","-0.6393124376447067","-1.0641902717214073","-1.0804717518118327"
"0.05668738656239305","0.09383124259714083","0.05617149875824301","0.0013807573693914923","-0.006379018358342205","0.0005047334148778818","-0.6376963357735902","-1.064071537739715","-1.0791315891713262"
"0.05704651817364932","0.09383435874936624","0.05556637987336709","0.0010365743875953204","-0.004907619328887417","0.0009425432169407451","-0.6414858160231046","-1.0633987118434585","-1.0779712044460092"
"0.05690016963501406","0.09399224379545246","0.05432103281677944","0.0013113431232726","-0.007436376997270516","-0.0012164124366907585","-0.6403991268339057","-1.0647047856420742","-1.0796382360232248"
"0.05690016963501406","0.09399224379545246","0.05432103281677944","0.0022291323164090764","-0.004488313684839794","0.0018026307660043747","-0.6383372037569639","-1.0649554462700914","-1.077448214147275"
"0.0567576723737113","0.09367958985550542","0.05431483706027901","-0.0002747868417880794","-0.004061828149626971","-0.005477291979272628","-0.6418201819274736","-1.0649158682761939","-1.0779712044460092"
"0.05675670955437818","0.09414493525449633","0.055244200535344415","0.0010384036118342374","-0.0044828091016131414","0.0007331031619627789","-0.6402319438817211","-1.0642826203738347","-1.0770723148700598"
"0.0567576723737113","0.0938353974667747","0.054624624885300815","-0.0008373214327349413","-0.009744712006882003","-0.000377196086616822","-0.6402876715324494","-1.0665913366845192","-1.078984498149807"
"0.05704459253498308","0.09391433998981781","0.05432722857327988","-0.0010079206617539113","-0.00658771386154399","-0.00014057493528018555","-0.6378913825511388","-1.064480510343322","-1.0763695466561356"
"0.05675670955437818","0.09414597397190479","0.054934412710322615","0.0008680932076950965","-0.006589389169482537","0.0005037626614365007","-0.6418480457528375","-1.0635834091483132","-1.0777587396371486"
"0.0570455553543162","0.09391330127240935","0.055256592048345286","-0.0009956937418411518","-0.005745512627866144","-0.0016331083514035834","-0.6414300883723764","-1.064427739684792","-1.0777423961903132"
"0.056902095273680314","0.09383332003195775","0.055560184116866654","0.0008900438985620972","-0.006592500455654122","-0.0020672778280612677","-0.6419037734035657","-1.0642166570506724","-1.0790335284903134"
"0.0567576723737113","0.0938353974667747","0.054624624885300815","0.001052941130785628","-0.004484245079846181","-0.0007679243467727032","-0.6405105821353619","-1.065654657495613","-1.0817792275586684"
"0.05675863519304443","0.09367958985550542","0.054624624885300815","0.0026958733222126685","-0.0021732774434741206","-0.0024650440506671623","-0.643101917894221","-1.0650214095932538","-1.0801448828751237"
"0.056614212293075415","0.09383332003195775","0.05492821695382218","0.001025984142001592","-0.01080087399728278","0.0017574907309801547","-0.6399533056280804","-1.0650741802517838","-1.0787720333409463"
"0.05697141826566544","0.09414701268931325","0.054632885893968065","0.0003640937923935696","-0.004063024798154505","-0.00033545368863743585","-0.6399533056280804","-1.064401354355527","-1.0787720333409463"
"0.05682988382369581","0.09383435874936624","0.05493854321465624","0.001749875565812897","-0.0021706448167135477","-0.0020362137179370725","-0.6406499012621822","-1.0649290609408264","-1.0777260527434775"
"0.05675670955437818","0.09391330127240935","0.054624624885300815","0.0008905252733618121","-0.004905704691243364","-0.0018410922762194777","-0.639033799391066","-1.0676467498551179","-1.0776770224029713"
"0.05682892100436268","0.093991205078044","0.054626690137467626","0.0008921619476808428","-0.004906662010065391","-0.002055143410044004","-0.6400647609295367","-1.0630293172337488","-1.0796382360232248"
"0.05682795818502955","0.09399224379545246","0.05431690231244582","3.088615603089817e-05","-0.002796970656024409","-0.0011838921964044925","-0.6415136798484687","-1.063227207203236","-1.078396134063731"
"0.056542000843090905","0.09398808892581857","0.055233874274510354","-0.00012219103027844805","-0.004057998874338865","-0.0035476768261674015","-0.6375570166467698","-1.0644673176786894","-1.0769905976358827"
"0.0567576723737113","0.0938353974667747","0.05446973097278991","-0.00029346418401701864","-0.0036389325599967487","-0.003331926873820459","-0.6400647609295367","-1.0641902717214073","-1.0800631656409465"
"0.0567576723737113","0.09414389653708786","0.05586377618538803","0.0016446470345952142","-0.006170562184845926","-0.0003492869251771159","-0.6424053222601191","-1.0629897392398515","-1.0801285394282882"
"0.05718997825428521","0.09391226255500089","0.05557257562986753","0.0015539560223289223","-0.004489749663072834","0.0005175958979761811","-0.6417923181021095","-1.0639396110933903","-1.0771213452105661"
"0.05661228665440916","0.09414493525449633","0.05492821695382218","0.002351497790496611","-0.002801996579840049","-0.002466985557549924","-0.6374455613453135","-1.066340676056502","-1.076565668018161"
"0.056749006999713164","0.09383020387973237","0.05401124499175765","0.0017240738765481772","-0.006407259263591988","0.00010065729490301078","-0.640176216230993","-1.064783941629869","-1.079017185043478"
"0.05682025563036454","0.09383020387973237","0.053858416331413556","-0.0014562731502083925","0.00013386091760983463","0.002287764798334565","-0.6399811694534445","-1.0652061068981085","-1.0764512638903128"
"0.056749006999713164","0.09398393405618474","0.05463082064180125","-0.000737002924474351","-0.006189947890991964","-0.0024667428691895793","-0.6384765228837843","-1.0665385660259892","-1.077268436232085"
"0.05689342989968217","0.0939060302505501","0.0554114859608562","-0.001176305566694192","-0.005346310679081078","-0.0011761261688734437","-0.6367768295365757","-1.0656150795017156","-1.0802102566624654"
"0.05660458409974414","0.0941376642326371","0.05539909444785531","0.0006674561911739156","-0.007874111028642149","0.0030905778943567117","-0.6417087266260172","-1.0662615200687071","-1.0799160746194274"
"0.05682314408836392","0.09367128011623771","0.05540942070868938","-7.318707566746866e-05","-0.00661260415091668","-0.00011533534580427772","-0.6393124376447067","-1.065496345520023","-1.0781509823611992"
"0.056902095273680314","0.09383435874936624","0.055250396291844854","0.0007060624501110526","-0.004484245079846181","-0.00033933670240296005","-0.6379471102018668","-1.0647971342945015","-1.0774318707004396"
"0.05675670955437818","0.09391330127240935","0.054624624885300815","0.0007248360672999347","-0.004905465361537857","-0.0024837310544137473","-0.6348820894118185","-1.0668156119832715","-1.0782000127017055"
"0.05675574673504504","0.09414701268931325","0.05446973097278991","0.0013951986133829398","-0.003853371976130693","-0.0007618571377640713","-0.640538445960726","-1.0661427860870147","-1.076859850061199"
"0.05704362971564995","0.09399328251286092","0.054172334660768984","0.0010610282274208388","-0.00912341209138678","-0.0020852367667268177","-0.638699433486697","-1.0657865841419378","-1.077660678956136"
"0.05675574673504504","0.09414701268931325","0.054624624885300815","-0.00031348937568515954","-0.004480176474852569","-0.0011948131726200295","-0.6366096465843913","-1.0667100706662116","-1.075470657080186"
"0.05682795818502955","0.09414597397190479","0.054936477962489426","0.00019099141441608243","-0.0061672115689688336","-0.0003500149902581518","-0.6421266840064782","-1.0647707489652367","-1.0771213452105661"
"0.05660554691907727","0.0939060302505501","0.054624624885300815","0.0008821493518467724","-0.0007152808775277045","-0.001143120551866487","-0.6411793139440997","-1.066670492672314","-1.0777587396371486"
"0.056749006999713164","0.09382812644491545","0.05463082064180125","-0.00041457808362529395","-0.0036614295523143725","0.00012007236373063225","-0.641235041594828","-1.064810326959134","-1.0777750830839838"
"0.05660458409974414","0.0939849727735932","0.05431483706027901","-0.0011945015341234162","-0.007027362530559677","0.0009534641931562822","-0.6382536122808716","-1.063794491782433","-1.07854322508525"
"0.05703881561898431","0.09367231883364617","0.055262787804845726","-0.00039503426675686795","-0.00661547610738276","-0.002471111259675794","-0.6407334927382744","-1.06404515241045","-1.081174520025757"
"0.05689342989968217","0.09398289533877628","0.05556637987336709","-0.0005076759698901604","-0.0066114075023891465","0.0005287595625520634","-0.6417923181021095","-1.0643881616908946","-1.0803573476839845"
"0.056749969819046286","0.09398185662136782","0.055869971941888454","0.0006293313070364936","-0.0028225789345136193","-0.0020138863887853085","-0.6415694074991968","-1.0646652076481766","-1.0824819957725926"
"0.05660458409974414","0.0941376642326371","0.05555398836036622","0.001710499107196216","-0.005771838895471874","0.0013924874370208717","-0.6368604210126678","-1.0624092619960221","-1.08001413530044"
"0.05689535553834842","0.09351651122237692","0.05494680422332348","0.0008524003892243899","-0.004508656709807858","0.002040222670782392","-0.6435477391000461","-1.0636229871422107","-1.077627992062465"
"0.057034001522318675","0.09429866543094868","0.0540215712525917","0.0017478537916540942","-0.007465575221342325","-0.0029028538527300254","-0.640538445960726","-1.0637812991178004","-1.078396134063731"
"0.056749969819046286","0.09367335755105463","0.05432103281677944","0.0008742548051314475","-0.0002952572443635605","-7.092337586109368e-05","-0.6392009823432503","-1.067211391922246","-1.0770723148700598"
"0.05645919838044201","0.09421764547308867","0.054306576051611766","0.0008475866412272407","-0.007452651417244966","0.002236800242662059","-0.6361359615532018","-1.0668947679710663","-1.0769905976358827"
"0.05689246708034905","0.0939849727735932","0.054482122485790783","-0.0011932499596441575","-0.00745241208753946","0.0007360154222869221","-0.641652998975289","-1.065628272166348","-1.0788537505751237"
"0.056749006999713164","0.0939060302505501","0.054940608466823054","-0.003567390471838169","-0.00912987399343546","-0.00205999717725091","-0.6374176975199494","-1.0636757578007405","-1.0772520927852496"
"0.05689246708034905","0.0939849727735932","0.05463701639830169","-0.0032336051857158403","-0.00597191852927542","-0.0007526349800709512","-0.6403991268339057","-1.0621981793619024","-1.080962055216896"
"0.05682314408836392","0.09367024139882925","0.05587410244622208","-0.0013276498037245643","-0.0032394912815061766","-0.003303532335660062","-0.6427396881644881","-1.0631480512154412","-1.0823022178574027"
"0.05675285827704567","0.09359129887578616","0.05648954759193207","-0.0003513254349427526","-0.001131235905698235","0.002707615661731879","-0.6390059355657018","-1.06213221603874","-1.0830540164118332"
"0.056967566988332934","0.09367024139882925","0.05649987385276612","0.0019400186117002926","-0.0011455956880286322","-0.005001137416275212","-0.6396746673744397","-1.0625016106484495","-1.0820080358143644"
"0.05689342989968217","0.09398289533877628","0.05556637987336709","0.003624926685662475","-0.0007272473628030365","-0.0017845458882590301","-0.6407056289129105","-1.0615517387949107","-1.0798997311725922"
"0.057107175791636315","0.09398705020841011","0.05402570175692532","0.003435650114414566","-0.000728683341036076","0.0005700165838107588","-0.639507484422255","-1.064071537739715","-1.0802919738966428"
"0.056749006999713164","0.09382916516232391","0.05432103281677944","-0.0010071504620743671","-0.0002892740017258953","-0.00028473182132527486","-0.6363310083307504","-1.064480510343322","-1.0784941947447435"
"0.05631766393847237","0.094058721709594","0.05554159684736535","0.0012160309129290447","0.00013098896114375466","-0.0002791499890373336","-0.6363310083307504","-1.062646729959407","-1.0778568003181612"
"0.05689150426101592","0.09398601149100166","0.05401744074825808","-0.0025574661420362564","-0.014190261286667736","-0.0003827779189047629","-0.6351328638400952","-1.0661823640809123","-1.0786739726599335"
"0.056819292811031416","0.09421868419049713","0.05432309806894626","-0.0015432094390369082","-0.009977819140045465","0.001361666015257023","-0.6360523700771097","-1.0637681064531679","-1.0799814484067694"
"0.05703688998031806","0.09382916516232391","0.054952999979823926","-0.004620349708734598","-0.004493339608655434","0.0013983119576691583","-0.6400647609295367","-1.063332748520296","-1.082236844070061"
"0.056750932638379416","0.09367024139882925","0.055869971941888454","-0.002373677243505098","-0.004076666591368384","-0.0011681174529820499","-0.6398975779773522","-1.0605754816121071","-1.084149027349808"
"0.05661036101574291","0.09327760621843066","0.05695009882513114","0.0010204001943248991","-0.00324068793003371","0.002263495962300038","-0.6396468035490754","-1.060681022929167","-1.0862900188852516"
"0.05660939819640978","0.09366608652919542","0.057414780562663845","0.003348328725746279","-0.002827604858329259","0.0001275957029013355","-0.639089527041794","-1.060931683557184","-1.0837077542852511"
"0.0568943927190153","0.09382708772750699","0.05587616769838889","0.004833658807746653","-0.004102514199563099","-0.003307900726146277","-0.6398975779773522","-1.0617364360997656","-1.079245993299174"
