"AccX","AccY","AccZ","GyroX","GyroY","GyroZ","MagX","MagY","MagZ"
"0.06674981141290076","-0.08776564448942924","-0.054073727158349044","-0.0011653302212606919","-0.005639728898032212","-0.001062790704592204","-0.7245200156080522","0.5170825111279704","1.0917030801936904"
"0.06674981141290076","-0.08761087559556845","-0.05376600458549405","-0.0025477423710820145","-0.008485119766800588","-0.0032688279001306894","-0.7234054625934891","0.5167395018475258","1.091506958831665"
"0.06689327149353665","-0.08760983687815996","-0.0549948296247472","-0.0004736909090302868","-0.007555323860907313","-0.0006431825295552354","-0.726303300431353","0.5167263091828935","1.0921116663645767"
"0.06689327149353665","-0.0877666832068377","-0.05437731922687041","0.0009118983144691548","-0.0060195451406712406","0.0004564384311691736","-0.721482858643368","0.5170957037926028","1.0921933835987538"
"0.06689423431286977","-0.08745610670170763","-0.054067531401848605","0.0012563701211451555","-0.011178057613161235","-0.00023934909794070966","-0.723321871117397","0.5160534832866368","1.0921770401519182"
"0.06674981141290076","-0.08761087559556845","-0.054073727158349044","0.001433708597360134","-0.008172315841703415","-0.00021823521059067107","-0.7242692411797756","0.5164096852317138","1.0904282913405257"
"0.06696644576285428","-0.08761191431297691","-0.0540654661496818","0.003001835144911475","-0.0049420828064803725","-0.00020852767617686075","-0.7252166112421543","0.5167526945121584","1.0888920073379935"
"0.06674981141290076","-0.08761087559556845","-0.05391883324583815","0.0009144977383876155","-0.008185957634917295","-0.0006541035057707724","-0.727334261969824","0.5156972813415598","1.0895130583177404"
"0.06667759996291626","-0.08776564448942924","-0.053768069837660866","-0.0008265386372213272","-0.006682249095219111","0.0002457849343894811","-0.7229875052130281","0.5160534832866368","1.0917521105341967"
"0.06696644576285428","-0.08768981811861155","-0.0540654661496818","-0.0008207621396247477","-0.008212044572817517","-0.0010851180337439683","-0.7231268243398484","0.5169241991523807","1.0908695644050828"
"0.06689423431286977","-0.08745506798429917","-0.0546850417997254","-0.000910875502131382","-0.002595215714282317","0.0009296807338424459","-0.7244921517826881","0.5165679972073035","1.0917194236405259"
"0.06674981141290076","-0.08776564448942924","-0.054073727158349044","-0.0001369210991497248","-0.0038524146573086673","0.002015953834747865","-0.7244642879573241","0.5169110064877481","1.0921443532582475"
"0.06689423431286977","-0.08761087559556845","-0.05437731922687041","0.0005566437122795398","-0.005562904062564582","0.001998237584442661","-0.7246871985602368","0.5176102177132698","1.0903956044468548"
"0.06674981141290076","-0.08761087559556845","-0.054228621070859954","0.00022507275023589916","-0.005626805093934853","-0.0010715274855646335","-0.7245478794334164","0.5165679972073035","1.0912781505759688"
"0.06674981141290076","-0.08761087559556845","-0.054073727158349044","0.0005535629135613643","-0.007707298223904025","0.0019853751013443614","-0.7239070114500425","0.5176102177132698","1.0906244127025508"
"0.06689423431286977","-0.08761087559556845","-0.0542224253143595","0.0007260876417791935","-0.005114878853856163","0.002878225579054602","-0.723294007292033","0.5169373918170131","1.0895620886582469"
"0.06674981141290076","-0.08792145210069853","-0.054075792410515855","-0.0003162813495235061","-0.007496209423647173","0.002212046029906842","-0.7242692411797756","0.5162249879268591","1.0904282913405257"
"0.06689423431286977","-0.08745714541911609","-0.053759808828993616","-0.00048023760630640965","-0.006890705268715389","0.0004591080031329715","-0.728114449080018","0.5161986025975942","1.0923077877266019"
"0.06674981141290076","-0.08761087559556845","-0.054228621070859954","-0.0006352402918146157","-0.008252969952459152","-0.0032792634996255355","-0.7249379729885135","0.5150112627806707","1.0908695644050828"
"0.06689423431286977","-0.08745506798429917","-0.0546850417997254","0.00021380857992256988","-0.007737453766797861","0.0006683053697505925","-0.7225974116579309","0.5170957037926028","1.0921770401519182"
"0.06696644576285428","-0.08768981811861155","-0.0537577435768268","0.0009165195125464181","-0.00259282241722725","0.000259375482568816","-0.7219844074999212","0.5170957037926028","1.0913108374696396"
"0.06674981141290076","-0.08792145210069853","-0.05376600458549405","-0.0002975077323346239","-0.00821467719957809","-0.0015246266543292488","-0.7248822453377851","0.5156972813415598","1.0912944940228044"
"0.06696548294352116","-0.08792145210069853","-0.0546850417997254","0.000833337947155679","-0.00820534334106333","-0.0015340915003827136","-0.7265819386849938","0.5158819786464145","1.089529401764576"
"0.06674981141290076","-0.08761087559556845","-0.054228621070859954","0.0014175344040897122","-0.008110568777682703","0.0028554128731821467","-0.7257181600987075","0.5150112627806707","1.0904282913405257"
"0.06689423431286977","-0.08768877940120305","-0.05406959665401542","-0.0004944863003779714","-0.006404387307125908","0.003316278069477811","-0.725160883591426","0.5163832999024489","1.0923568180671082"
"0.06689423431286977","-0.08761191431297691","-0.054067531401848605","0.000722814293141132","-0.0076891091662855205","0.0028607520171097427","-0.7238234199739504","0.5167395018475258","1.0912944940228044"
"0.06689423431286977","-0.08753401050734227","-0.054067531401848605","3.1752630670385073e-05","-0.004263343761663557","0.0028881758018287577","-0.7253280665436104","0.5153542720611152","1.0906407561493863"
"0.06667759996291626","-0.08760983687815996","-0.054385580235537655","0.0014494976907907836","-0.004998085957568925","-0.0023912667891222003","-0.7273621257951881","0.5151695747562605","1.092128009811412"
"0.06689423431286977","-0.08776772192424616","-0.053759808828993616","0.0007349449380939483","-0.005150299650271145","0.0011221326035962434","-0.7242413773544115","0.5151959600855254","1.0904609782341963"
"0.06682202286288527","-0.08768774068379459","-0.054379384479037216","-0.00012219103027844805","-0.00756968364323771","-0.0015224424590861414","-0.7228760499115718","0.5165811898719361","1.0897908969139432"
"0.06696644576285428","-0.08745610670170763","-0.05468297654755859","0.0008246732007608103","-0.005587315692526259","0.0006782555925247483","-0.7278079470010131","0.5151695747562605","1.0914742719379942"
"0.06689423431286977","-0.08761087559556845","-0.05437731922687041","-0.0004747499335896595","-0.005830953332732012","-0.00019226755603372775","-0.7259967983523482","0.5145099415246364","1.0880584915493858"
"0.06682202286288527","-0.08730029909043834","-0.05422449056652632","0.000496856962154946","-0.005235740355137013","-0.0030472534271354596","-0.7259410707016202","0.5148529508050809","1.0886958859759681"
"0.06696548294352116","-0.0877666832068377","-0.0542203600621927","0.0009102616401501241","-0.004291106007502327","0.0011260156173617676","-0.7268327131132706","0.5163832999024489","1.0908041906177408"
"0.06674981141290076","-0.08776564448942924","-0.054073727158349044","-0.0013482526451523635","-0.00733083259714209","0.00024384342750671868","-0.7240741944022269","0.5150112627806707","1.0917521105341967"
"0.06689327149353665","-0.08776564448942924","-0.05453221313938131","0.0007198297693828995","-0.007675467373071642","0.0035196509154471448","-0.7215107224687319","0.5160666759512693","1.0917847974278676"
"0.06703865721283879","-0.08745610670170763","-0.054678846043224955","0.00021544525424160063","-0.008390823862830974","0.00022321491687737113","-0.72518874741679","0.5150112627806707","1.0917357670873613"
"0.06674981141290076","-0.08776564448942924","-0.054073727158349044","0.0016027674270200159","-0.004274352928116862","0.0015633400427039405","-0.7226810031340231","0.513982234939337","1.09095128163926"
"0.06674981141290076","-0.08761087559556845","-0.054073727158349044","0.001620385744689582","-0.0032636635817623457","-0.001503270078618865","-0.7268048492879065","0.5158687859817821","1.0908205340645762"
"0.06674981141290076","-0.08768774068379459","-0.054228621070859954","0.0005620351100363469","-0.008600237355149276","0.00022321491687737113","-0.7237955561485861","0.5146682535002262","1.0909022512987534"
"0.06689423431286977","-0.08745610670170763","-0.0542224253143595","0.00123942572819519","-0.0098203401938221","0.0032820590106691274","-0.7253280665436104","0.5156972813415598","1.0908532209582473"
"0.06725432874345919","-0.08745714541911609","-0.05451775637421362","0.0014313979983215023","-0.006871080232863845","0.0006627235374626513","-0.7274457172712803","0.513955849610072","1.0912944940228044"
"0.06674981141290076","-0.08761087559556845","-0.054228621070859954","-0.001016681683108723","-0.008128279175890195","0.0030898498292756755","-0.7247150623856008","0.513982234939337","1.0893823107430571"
"0.06674981141290076","-0.08761087559556845","-0.054073727158349044","-0.0010015665143976737","-0.005169446026711675","0.0009146340555010392","-0.7245200156080522","0.5156972813415598","1.0912944940228044"
"0.06674981141290076","-0.08768774068379459","-0.054228621070859954","-0.000742971971990816","-0.006020502459493267","0.0011269863708031488","-0.7195881185186107","0.5152223454147904","1.089235219721538"
"0.06689423431286977","-0.08761087559556845","-0.05453221313938131","0.00020341088424872747","-0.007483285619549815","0.0026459728182041805","-0.7240741944022269","0.5153806573903802","1.0889410376784998"
"0.06703769439350567","-0.0877666832068377","-0.05468091129539177","0.001264938592580081","-0.006682727754630124","-0.0006494924269242123","-0.7237398284978581","0.5162249879268591","1.0917357670873613"
"0.06689423431286977","-0.08761191431297691","-0.054067531401848605","0.0019463727590565295","-0.007704426267437945","0.0015361589463452705","-0.7243528326558678","0.5155257767013375","1.0926019697696399"
"0.06674981141290076","-0.08761087559556845","-0.054228621070859954","0.00021448250464217077","-0.006664060037600606","0.0006775275274437125","-0.7246036070841444","0.5165679972073035","1.0908532209582473"
"0.06689423431286977","-0.08761191431297691","-0.054067531401848605","0.0005456683668460395","-0.008539926269361606","0.0032951641821277722","-0.7274178534459161","0.515512584036705","1.091686736746855"
"0.06689423431286977","-0.08761087559556845","-0.05437731922687041","0.00021159425584388124","-0.0072997197354262265","0.0011104835622996706","-0.7217336330716446","0.5183226216034238","1.0904282913405257"
"0.06696548294352116","-0.0877666832068377","-0.054375253974703594","-0.0006673961284355727","-0.005977183782796566","0.003319433018162299","-0.7250215644646055","0.5162249879268591","1.09041194789369"
"0.06696644576285428","-0.08745714541911609","-0.0540654661496818","-0.0013514297188304818","-0.005165377421718062","0.0013531719226449383","-0.7272228066683676","0.5163832999024489","1.09059172580888"
"0.06674981141290076","-0.0876087981607515","-0.05499896012908083","-0.0011749577172549903","-0.0066762658525814445","0.000686021620055797","-0.7213714033419116","0.5158819786464145","1.092863464919007"
"0.06689423431286977","-0.08761087559556845","-0.0542224253143595","0.0012492457741093746","-0.005547826291117664","0.0024331351261813808","-0.726916304589363","0.5158687859817821","1.0899543313822977"
"0.06674981141290076","-0.0877666832068377","-0.05376600458549405","0.0026571707883155885","-0.006033904923001638","-0.0010892437358698377","-0.7248265176870571","0.5155257767013375","1.0917357670873613"
"0.06674981141290076","-0.08761087559556845","-0.054073727158349044","0.0012515563731480062","-0.0072805733589856965","0.0015448957273177001","-0.721482858643368","0.5157104740061922","1.0920136056835639"
"0.06689423431286977","-0.08761087559556845","-0.0546850417997254","0.00011608949558044001","-0.010929394049139843","0.0019645039023546682","-0.724798653861693","0.5165811898719361","1.0893332804025506"
"0.06689423431286977","-0.08761087559556845","-0.0542224253143595","0.0014368856710382527","-0.011631826734801815","-0.0015605445316603482","-0.7241577858783192","0.5157104740061922","1.0913108374696396"
"0.06689423431286977","-0.08761191431297691","-0.053759808828993616","0.0003768983620659867","-0.005976465793680046","0.002874585253649423","-0.7250215644646055","0.5160534832866368","1.0904282913405257"
"0.06674981141290076","-0.08768774068379459","-0.054228621070859954","-0.0006543027338833268","-0.007534502176528235","0.0004576518729708998","-0.7244921517826881","0.5156972813415598","1.0915233022785005"
"0.06674981141290076","-0.08745506798429917","-0.05438144973120403","0.0003868146829401141","-0.006010211282156481","0.0011197057199927906","-0.7268884407639988","0.5156972813415598","1.0901831396379937"
"0.06703865721283879","-0.08745610670170763","-0.05437112347036997","0.0018618433442265886","-0.007066851931968272","0.0013196809289172913","-0.7278358108263773","0.5167263091828935","1.0916540498531841"
"0.06703769439350567","-0.08776772192424616","-0.054063400897514984","0.001253096772507094","-0.008149579519680285","0.0010968930141203356","-0.7246871985602368","0.5150244554453032","1.0898072403607786"
"0.06674981141290076","-0.08761087559556845","-0.05376600458549405","0.00039365020509606594","-0.005607898047199829","-0.00019445175127683504","-0.723711964672494","0.5153542720611152","1.0917521105341967"
"0.06674981141290076","-0.08761087559556845","-0.054073727158349044","0.00021255700544331102","-0.005149581661154624","0.001346376648555271","-0.7229039137369357","0.5190086401643129","1.0901831396379937"
"0.06689423431286977","-0.08761191431297691","-0.053759808828993616","0.0004728844971291428","-0.004286080083686688","0.0015684364982711911","-0.7268605769386346","0.5163964925670814","1.0903792610000191"
"0.06674981141290076","-0.08768877940120305","-0.05376600458549405","0.0008987086449569658","-0.00748089232249475","0.002423912968488261","-0.7242692411797756","0.5164228778963463","1.0876172184848287"
"0.0667507742322339","-0.08730029909043834","-0.054071661906182227","-0.000995501191921266","-0.006916313547204599","-0.0006339603718621152","-0.7244085603065961","0.5165811898719361","1.0893332804025506"
"0.06674981141290076","-0.08776564448942924","-0.054383514983370844","-0.0004891911775811073","-0.007068527239906818","0.0022156863553120204","-0.7240184667514988","0.5146550608355936","1.0921933835987538"
"0.06696644576285428","-0.08761191431297691","-0.05391263748933771","-0.0001317222513128036","-0.00732149873862733","0.00023365051637221757","-0.7234333264188533","0.5163964925670814","1.0913108374696396"
"0.06689423431286977","-0.08745610670170763","-0.0542224253143595","0.000832182647636363","-0.006694933569610963","-0.0010843899686629325","-0.7271949428430037","0.5156972813415598","1.0906080692557154"
"0.06689423431286977","-0.08761087559556845","-0.05437731922687041","0.0013293465407819382","-0.005520542704689908","0.003749719481054459","-0.7266098025103581","0.5163964925670814","1.0895130583177404"
"0.06696644576285428","-0.0877666832068377","-0.054067531401848605","0.0012581030704241292","-0.006875148837857458","0.00044770165019674394","-0.7253837941943386","0.5157104740061922","1.0904282913405257"
"0.06674981141290076","-0.08761087559556845","-0.054073727158349044","0.0002103426813646224","-0.006003031390991283","0.0015599424056591067","-0.7269441684147269","0.5150112627806707","1.0895457452114115"
"0.06674981141290076","-0.08761087559556845","-0.054073727158349044","0.0002229547011171535","-0.004326766133622816","-0.00040413449461514653","-0.723349734942761","0.5172672084328251","1.0921443532582475"
"0.06689423431286977","-0.0877666832068377","-0.05406959665401542","-0.00030665385352920743","-0.006455603864104328","0.000680682476128201","-0.7216500415955523","0.5157236666708247","1.090706129936728"
"0.06689423431286977","-0.08761087559556845","-0.0542224253143595","-0.0004928496260589408","-0.005117272150911229","0.003324772162089895","-0.7224859563564747","0.5167658871767908","1.0900197051696394"
"0.06674981141290076","-0.08768774068379459","-0.05469123755622584","0.0008167786540454856","-0.008142160298809578","0.0015417407786332115","-0.723711964672494","0.5141537395795593","1.0915723326190068"
"0.06689423431286977","-0.08776772192424616","-0.053759808828993616","0.0014258140506448094","-0.007713760125952704","0.0013199236172776367","-0.72443642413196","0.5155257767013375","1.0919482318962221"
"0.06674981141290076","-0.08776564448942924","-0.054073727158349044","0.0007435134095288738","-0.006042281462694371","-0.0006383287623483298","-0.7238512837993144","0.5157104740061922","1.0906570995962217"
"0.06674981141290076","-0.08745610670170763","-0.054073727158349044","0.00038912528197874573","-0.00774391566884654","0.0002300101909670385","-0.725913206876256","0.5153410793964828","1.0919318884493865"
"0.06674981141290076","-0.08768774068379459","-0.054228621070859954","0.00048694064128081865","-0.0056289590612844135","-0.0012926165818391727","-0.7230989605144843","0.51553896936597","1.0909022512987534"
"0.06689423431286977","-0.0873013378078468","-0.0542203600621927","0.0005677153326729831","-0.006898603148997109","-0.00042573375868587554","-0.7262197089552609","0.5146550608355936","1.092160696705083"
"0.06682202286288527","-0.08761087559556845","-0.054071661906182227","-0.0004771568075882342","-0.0056074193877888165","0.00024918257143431466","-0.7263868919074454","0.5139690422747045","1.0908695644050828"
"0.06696644576285428","-0.08768877940120305","-0.054375253974703594","-0.001188917586446723","-0.007058954051686553","0.0030956743499239623","-0.726247572780625","0.5142988588905166","1.0919482318962221"
"0.06682202286288527","-0.08761087559556845","-0.054379384479037216","-0.000822302538983836","-0.00777311389291835","-0.0006414837110328185","-0.7235726455456737","0.5136392256588924","1.089643805892424"
"0.06667759996291626","-0.08760983687815996","-0.054693302808392644","0.002828540217014102","-0.006880414091378603","-0.000656530389374225","-0.7218172245477368","0.513982234939337","1.0918174843215385"
"0.06682202286288527","-0.08761087559556845","-0.05422449056652632","0.002123614960311565","-0.004913602571525084","0.0015548459500918561","-0.7208419906599941","0.5145099415246364","1.0909676250860953"
"0.06682202286288527","-0.08776772192424616","-0.05314642893545045","-0.0006452528876486861","-0.007789866972303815","-0.001520500952203379","-0.7237398284978581","0.5148397581404484","1.0915559891721713"
"0.06689423431286977","-0.08792249081810699","-0.05345208625613863","-0.0009117419767708687","-0.00518332714963106","0.0002542790270015653","-0.7237676923232222","0.5144967488600038","1.0911310595544497"
"0.06682202286288527","-0.08745506798429917","-0.054379384479037216","-0.0014222880893485189","-0.0047932197296552456","-0.0014957467394481616","-0.7237676923232222","0.5146682535002262","1.0911310595544497"
"0.06682202286288527","-0.08776564448942924","-0.05438144973120403","-0.0009265683206020885","-0.006630793208535184","0.002879196332495983","-0.7246036070841444","0.5131115190735931","1.0900687355101457"
"0.06696644576285428","-0.08714553019657752","-0.05468091129539177","-0.00021538519150325765","-0.004314320988936471","0.00047366930475368737","-0.7217057692462805","0.5150112627806707","1.0928798083658424"
"0.06674981141290076","-0.08760983687815996","-0.05469123755622584","0.0008960129460785622","-0.007681450615709309","0.003080870359942901","-0.7263868919074454","0.5149980701160382","1.091065685767108"
"0.06689423431286977","-0.08761087559556845","-0.0542224253143595","0.0015918883565464587","-0.007680971956298296","0.0028554128731821467","-0.726275436605989","0.5149980701160382","1.0919318884493865"
"0.06689423431286977","-0.08745714541911609","-0.053759808828993616","0.0011612504607214863","-0.005978141101618592","0.002430708242577928","-0.7250215644646055","0.5163964925670814","1.09041194789369"
"0.06674981141290076","-0.08776564448942924","-0.054073727158349044","0.002040625944840712","-0.003421142527985712","0.0011272290591634942","-0.7217893607223729","0.5167658871767908","1.0898235838076142"
"0.06696548294352116","-0.0877666832068377","-0.054375253974703594","-4.420831272463014e-05","-0.004304029811599686","0.0009122071718975866","-0.7235726455456737","0.5145099415246364","1.0898399272544494"
"0.06674981141290076","-0.08745610670170763","-0.054073727158349044","0.00012273246781650596","-0.008586834891640907","0.0011039309765703482","-0.7256902962733434","0.5144835561953713","1.0906570995962217"
"0.06667759996291626","-0.0874540292668907","-0.054693302808392644","0.00021361603000268393","-0.007735778458859315","0.000670732253354045","-0.7249101091631492","0.5144967488600038","1.090885907851918"
"0.06689423431286977","-0.08745506798429917","-0.0546850417997254","4.1283851704740606e-05","-0.00860574193837593","0.00022442835867909742","-0.7243249688305037","0.5134413356894052","1.0924385353012855"
"0.06703865721283879","-0.08761191431297691","-0.05437112347036997","0.0007958869877378577","-0.011729473254648522","0.004587479700966324","-0.7260803898284406","0.5144703635307388","1.0932557076430578"
"0.06667759996291626","-0.08760983687815996","-0.05423068632302676","0.0014291836742428138","-0.008154126784084911","0.000660782030579889","-0.7231268243398484","0.5134413356894052","1.093108616621539"
"0.06703769439350567","-0.08792249081810699","-0.05437318872253678","0.0011717444313552716","-0.0077386504153253936","0.00022224416343598992","-0.7240184667514988","0.5136392256588924","1.088973724572171"
"0.06674981141290076","-0.08761087559556845","-0.054073727158349044","3.906952762605191e-05","-0.006875866826973978","0.0008966751168354895","-0.7230989605144843","0.5145099415246364","1.0904936651278674"
"0.06689423431286977","-0.08761087559556845","-0.05437731922687041","-0.0008225913638636649","-0.00604874336474305","-0.00019153949095269184","-0.7243528326558678","0.5138107302991147","1.0893986541898926"
"0.06667759996291626","-0.08760983687815996","-0.054385580235537655","-0.000827116286980985","-0.007754446175888833","0.00023826159521877764","-0.7246593347348727","0.5138107302991147","1.0898235838076142"
"0.06660538851293175","-0.0874540292668907","-0.05469536806055946","3.92620775459379e-05","-0.004287276732214221","0.0015740183305591323","-0.7256345686226153","0.514312051555149","1.090885907851918"
"0.06689327149353665","-0.08776564448942924","-0.05468710705189221","-0.00021259321766491112","-0.006909612315450413","-0.0006400275808707472","-0.724798653861693","0.5141405469149268","1.0917684539810322"
"0.06689423431286977","-0.08761087559556845","-0.0542224253143595","0.0009102616401501241","-0.010108493159252087","-0.0002298842518872442","-0.7194766632171543","0.5132962163784479","1.092749060791159"
"0.06689423431286977","-0.08737820289607298","-0.054375253974703594","0.0012346119801980408","-0.008077780608028296","0.00461077778355947","-0.7261918451298969","0.5153542720611152","1.089758210020272"
"0.06674981141290076","-0.08760983687815996","-0.05469123755622584","0.0008238067261213234","-0.004289909358974794","0.0011286851893255658","-0.7243806964812319","0.5150112627806707","1.0921770401519182"
"0.06667759996291626","-0.08760983687815996","-0.054385580235537655","0.002311736232040158","-0.006688471667562284","-0.0015299657982568446","-0.7229875052130281","0.5146682535002262","1.0915723326190068"
"0.06674981141290076","-0.08745610670170763","-0.054073727158349044","-0.0001304706768335448","-0.008186675624033815","-0.00020877036453720584","-0.7282259043814744","0.514826565475816","1.091032998873437"
"0.06696644576285428","-0.08753401050734227","-0.05437318872253678","-0.0004790823067870938","-0.005599521507507097","0.0006865069967764876","-0.7262197089552609","0.5150112627806707","1.0893332804025506"
"0.06703769439350567","-0.0877666832068377","-0.05437318872253678","-0.001336314550119433","-0.00565193471301305","-0.0015042408320602462","-0.7244642879573241","0.5131115190735931","1.091147403001285"
"0.06674981141290076","-0.08760983687815996","-0.05438144973120403","4.01285521854248e-05","-0.007309053593940986","0.0006741298903988789","-0.7241299220529552","0.5117262892871824","1.0905426954683737"
"0.06674981141290076","-0.08760983687815996","-0.05469123755622584","0.00021698565360068835","-0.006024810394192386","0.0004622629518174599","-0.7239348752754066","0.5124123078480715","1.0922587573860956"
"0.06674981141290076","-0.08760983687815996","-0.05469123755622584","0.001865501792704422","-0.005138333164995813","0.0011165507713083022","-0.7250772921153339","0.5160534832866368","1.0899870182759686"
"0.06674981141290076","-0.08745506798429917","-0.05422655581869313","0.0023076926837225526","-0.006028161010069479","-0.000648278985122486","-0.726916304589363","0.5141405469149268","1.0895620886582469"
"0.06689423431286977","-0.08737924161348144","-0.05391263748933771","0.00021573407912142957","-0.0034390922558987097","0.0011364512168566142","-0.7220958628013775","0.515895171311047","1.0900360486164749"
"0.06674981141290076","-0.08768774068379459","-0.054228621070859954","0.00018829571553767883","-0.008935538272564072","0.005052470599387858","-0.7257738877494357","0.5144967488600038","1.0897908969139432"
"0.06674981141290076","-0.08768774068379459","-0.054383514983370844","-0.001350659519150938","-0.004734583951806121","0.0013587537549328798","-0.720786263009266","0.5138107302991147","1.0911964333417916"
"0.06674981141290076","-0.08745506798429917","-0.05422655581869313","-0.0006542064589233838","-0.008397046435174145","0.00023195169784980067","-0.7243249688305037","0.5148529508050809","1.0898072403607786"
