"AccX","AccY","AccZ","GyroX","GyroY","GyroZ","MagX","MagY","MagZ"
"0.06729669279411676","-0.08766800505303383","-0.054730477347395265","0.00032904970697432304","-0.009147823721348458","0.000260346236010197","-0.7251330197660619","0.5119901425798321","1.0871596019734364"
"0.06693563554419422","-0.08766696633562537","-0.05443514628754115","-2.3316646417002447e-05","-0.0067626638762693396","0.0015997432967557307","-0.7247150623856008","0.5095494996228228","1.0898235838076142"
"0.06671996401357384","-0.08751115872435608","-0.05444134204404158","0.0015518379732101766","-0.007219783613787011","-0.0006058085220620638","-0.7240184667514988","0.510947922073866","1.0898072403607786"
"0.06700784699417874","-0.08751219744176454","-0.05443101578320752","0.0008489344906664426","-0.005043558601615185","0.0013854494745708591","-0.7243528326558678","0.5107632247690111","1.0900197051696394"
"0.06686438691354285","-0.08751115872435608","-0.05443721153970796","-0.0002702619186707591","-0.00897119839868456","-0.001486039205034351","-0.7252723388928823","0.5109215367446011","1.091506958831665"
"0.06700880981351187","-0.08735638983049526","-0.054583844443551605","0.0001555622291570639","-0.004625210276389589","0.0011730971592687498","-0.7244085603065961","0.5116339406347551","1.0897745534671077"
"0.06715226989414776","-0.08751219744176454","-0.05473460785172889","-2.521255069317661e-06","-0.009426164168852672","-0.0028111176525195134","-0.7259410707016202","0.5107632247690111","1.0891208155936898"
"0.06700784699417874","-0.08735638983049526","-0.055046460928917504","0.0011913845231836407","-0.005017950323125976","0.0024809447331693986","-0.7239906029261347","0.51166032596402","1.087192288867107"
"0.06700784699417874","-0.08751219744176454","-0.05443101578320752","0.001201012019177939","-0.00419561345500518","0.0007306762783593262","-0.7244642879573241","0.5095363069581904","1.0917847974278676"
"0.06686438691354285","-0.08766800505303383","-0.05351197856897617","-0.0005421424055497492","-0.0076431578628282475","0.0007199979905041344","-0.72443642413196","0.5111194267140883","1.0895784321050823"
"0.06700784699417874","-0.08751219744176454","-0.05443101578320752","0.00015575477907694987","-0.010228876001121925","-0.00018183195653888112","-0.7280308576039258","0.5126497758114562","1.0907715037240702"
"0.06693563554419422","-0.08743429363612991","-0.05474080360822932","-0.0009515998101872646","-0.005581093120183087","-0.003215921837575421","-0.7249101091631492","0.5116207479701226","1.0917194236405259"
"0.06700784699417874","-0.08743429363612991","-0.05458590969571842","0.00015691007859626569","-0.005492062469734619","0.0007282493947558735","-0.7234054625934891","0.5095494996228228","1.091359867810146"
"0.06700784699417874","-0.08766800505303383","-0.05427818712286343","7.151418912683794e-05","-0.005930993149633785","0.00028704195564817646","-0.7236005093710377","0.5119769499151996","1.090444634787361"
"0.06700784699417874","-0.08751219744176454","-0.05458590969571842","0.0012088102909333209","-0.007671638097783537","-0.0014882234002774584","-0.7232661434666688","0.5112777386896781","1.0930595862810326"
"0.06686438691354285","-0.08743429363612991","-0.05443514628754115","0.00014314275932441882","-0.008887911661168252","0.002462985794503849","-0.7234054625934891","0.5112777386896781","1.0917521105341967"
"0.06700784699417874","-0.08751219744176454","-0.05443101578320752","-0.00019208665119705532","-0.008507138099707198","0.0002710245238653889","-0.7294797765228579","0.5119505645859346","1.0907551602772345"
"0.06693659836352736","-0.08751219744176454","-0.054280252375030244","0.0006854596086832539","-0.008963061188697335","-0.0014928344791240186","-0.7258017515747999","0.5112777386896781","1.09041194789369"
"0.06671996401357384","-0.08751115872435608","-0.05444134204404158","-0.0007060023873727097","-0.008969762420451522","-0.001262280536796014","-0.7243249688305037","0.5130191704211658","1.0908368775114117"
"0.06715226989414776","-0.08759010124739919","-0.05473460785172889","-2.810079949146571e-06","-0.00770131498126636","-0.0023604453673583517","-0.7242971050051396","0.5111062340494558","1.0906570995962217"
"0.06693563554419422","-0.08751115872435608","-0.055050591433251125","0.0007594950528794094","-0.0067550053256931275","0.0015946468411884801","-0.722959641387664","0.5112909313543105","1.0895947755519177"
"0.06700784699417874","-0.08774487014126002","-0.05443308103537433","0.0008498009653059294","-0.008278817560653868","0.0004858037227709508","-0.7261082536538045","0.5110930413848233","1.0908532209582473"
"0.06700784699417874","-0.087513236159173","-0.05412329321035253","0.0012082326411736628","-0.005732588823768786","-0.0010358522965938793","-0.726303300431353","0.5097078115984125","1.0919482318962221"
"0.06686438691354285","-0.08735638983049526","-0.054590040200052044","0.00017058112290816953","-0.00769772503568376","-0.0023585038604755893","-0.7260246621777123","0.5095363069581904","1.0913108374696396"
"0.06693659836352736","-0.08735638983049526","-0.05443308103537433","-0.0002015215972714678","-0.00847147797358671","0.0020280882527651286","-0.7247429262109648","0.5105653347995239","1.0928307780253361"
"0.06700880981351187","-0.08735742854790375","-0.05412122795818572","0.00042561349179713706","-0.0042293589434816165","-0.0005820250627482282","-0.7237955561485861","0.5098925089032674","1.0913435243633107"
"0.06700784699417874","-0.087513236159173","-0.05412329321035253","0.0006725587640508938","-0.005898922969095897","0.0016004713618367665","-0.7221794542774699","0.5109347294092335","1.0926510001101464"
"0.06715226989414776","-0.08766800505303383","-0.05442688527887389","0.0008237104511613805","-0.0075349808359392485","0.005538090008438738","-0.725495249495795","0.5116339406347551","1.0899706748291331"
"0.06700880981351187","-0.08720162093663447","-0.054583844443551605","0.0010992493865182038","-0.006940964506871782","0.0029073481822960343","-0.7259967983523482","0.5125046565004989","1.089088128700019"
"0.06664775256358933","-0.08751012000694763","-0.0544434072962084","0.0012075587164540622","-0.008312563049130304","-0.0014882234002774584","-0.7185292931547759","0.5114756286591653","1.092275100832931"
"0.06671996401357384","-0.08766696633562537","-0.0538258968983316","0.00014728258260196723","-0.0067511760504050215","0.0020404653591427372","-0.7230153690383921","0.5119769499151996","1.0921770401519182"
"0.06722448134413225","-0.08743533235353837","-0.05442275477454027","-0.0007094682859306573","-0.007235340044644943","-0.00015877656230608054","-0.7236283731964017","0.5120033352444646","1.087192288867107"
"0.06700784699417874","-0.08751219744176454","-0.05443101578320752","0.00015498457939740597","-0.008933144975509006","0.00026592806829813827","-0.72443642413196","0.5102487108483443","1.0893823107430571"
"0.06700784699417874","-0.08751219744176454","-0.054738738356062515","-0.0009717212768153487","-0.006798084672684322","0.00028728464400852176","-0.7241299220529552","0.5107500321043787","1.0917521105341967"
"0.06700784699417874","-0.08743429363612991","-0.054738738356062515","-0.0008718841433544728","-0.0038294390055800304","-0.0014493932626222154","-0.7244921517826881","0.5104070228239341","1.0917521105341967"
"0.06693563554419422","-0.08743429363612991","-0.05474080360822932","0.0008451797672286661","-0.0054585563109636895","0.002041921489304809","-0.7271670790176396","0.5102223255190794","1.091065685767108"
"0.06671996401357384","-0.0873553511130868","-0.05474906461689657","0.0011856080255870614","-0.007366732052968085","0.0029073481822960343","-0.7236562370217658","0.5118054452749774","1.090003361722804"
"0.06700784699417874","-0.08743429363612991","-0.05458590969571842","0.0013942358637835104","-0.007713999455658211","-0.0036847957497624785","-0.7260525260030765","0.5110930413848233","1.0912781505759688"
"0.06729669279411676","-0.08751427487658146","-0.054420689522373465","0.0013825865936304088","-0.0076723560869000566","-0.001492349102403328","-0.7238512837993144","0.5114492433299004","1.0913108374696396"
"0.06700784699417874","-0.08751219744176454","-0.05443101578320752","-0.00036066410605722216","-0.008097405643879839","-0.0006031389500982661","-0.7224023648803823","0.5107632247690111","1.090918594745589"
"0.06686438691354285","-0.08751115872435608","-0.05443721153970796","0.0001333227134102343","-0.00540303181928615","0.005120908717005224","-0.7236562370217658","0.5105785274641564","1.092634656663311"
"0.06700784699417874","-0.08751219744176454","-0.054738738356062515","0.00016595992483090633","-0.007895650702137746","-0.0014831269447102078","-0.7240184667514988","0.5086919764217114","1.0894313410835632"
"0.06693563554419422","-0.08743429363612991","-0.05474080360822932","0.0001650934501914194","-0.00465991308368805","-0.0005825104394689183","-0.7297584147764986","0.5103806374946692","1.0912291202354623"
"0.06686342409420973","-0.08766696633562537","-0.054592105452218855","-0.0007128379095286617","-0.008081849213021908","0.00027879055139643747","-0.7219565436745572","0.510591720128789","1.0913762112569816"
"0.06693563554419422","-0.08751115872435608","-0.05458797494788523","0.0001584504779553534","-0.010022573794975205","-0.0006186710051603632","-0.7242692411797756","0.511304124018943","1.087846026740525"
"0.06686438691354285","-0.08735638983049526","-0.054590040200052044","0.00038479290878131145","-0.005365217725816103","0.006875302873941164","-0.7238234199739504","0.5097210042630451","1.0911310595544497"
"0.06715323271348088","-0.08720265965404293","-0.054732542599562076","0.0011871484249461493","-0.006297406928764443","0.0029095323775391417","-0.7283930873336589","0.5112645460250456","1.0903629175531837"
"0.06700784699417874","-0.08766800505303383","-0.05412329321035253","0.00014795650732156814","-0.0056761070132692205","0.0022637386506603836","-0.7231268243398484","0.5102487108483443","1.090918594745589"
"0.06700784699417874","-0.087513236159173","-0.05412329321035253","-0.0003828073468441088","-0.005645712140669878","0.004023229263163576","-0.72518874741679","0.5126761611407212","1.0897418665734369"
"0.06679217546355834","-0.08743325491872145","-0.054439276791874776","0.00031431963810304634","-0.00715229263683414","0.003352438635169256","-0.7235169178949454","0.5119769499151996","1.091098372660779"
"0.06671996401357384","-0.08758802381258227","-0.05444134204404158","-0.00036066410605722216","-0.005941523656676077","-0.00014615676756812683","-0.719755301470795","0.5102750961776094","1.0881728956772339"
"0.06700880981351187","-0.08743533235353837","-0.05412122795818572","0.0012041890928560573","-0.01002712105937983","-0.0012846078659477789","-0.7274735810966444","0.5109347294092335","1.0888756638911583"
"0.06715226989414776","-0.08766800505303383","-0.05442688527887389","-0.0010552879420458597","-0.0037971294953366343","0.0003066997128361432","-0.7257460239240716","0.5123199591956442","1.091032998873437"
"0.06715226989414776","-0.08751219744176454","-0.05473460785172889","-0.0003706767018912926","-0.008920939160528168","0.0011456733745497344","-0.7273621257951881","0.5112777386896781","1.0897418665734369"
"0.06686342409420973","-0.08751115872435608","-0.054590040200052044","0.00015373300491814716","-0.008065096133636445","0.0007124746513334311","-0.7241299220529552","0.5111062340494558","1.0919645753430576"
"0.06700784699417874","-0.08766800505303383","-0.05412329321035253","0.0011150384799488533","-0.008079695245672348","-0.00039248545331857363","-0.7265262110342657","0.5112777386896781","1.0906244127025508"
"0.06700880981351187","-0.08735742854790375","-0.05443101578320752","0.0004990712862336347","-0.005900358947328936","0.0016011994269178023","-0.7224580925311106","0.5111326193787207","1.0876662488253352"
"0.06700784699417874","-0.08743429363612991","-0.054738738356062515","-0.00019718922407403348","-0.007193457346181281","0.0015968310364315873","-0.7232661434666688","0.5088634810619337","1.0894313410835632"
"0.06729669279411676","-0.08766800505303383","-0.054730477347395265","0.00014612728308265133","-0.006960350213017819","0.0024712371987555878","-0.7224859563564747","0.5123331518602767","1.090444634787361"
"0.06686438691354285","-0.08720058221922601","-0.05458797494788523","0.0007595913278393523","-0.00417215914386553","0.0020518717120789646","-0.7227088669593873","0.5107632247690111","1.0913435243633107"
"0.06700784699417874","-0.08782277394689465","-0.05427818712286343","-0.0002925977093775318","-0.00802632472134437","0.0029092896891787963","-0.7244085603065961","0.5114624359945328","1.0897908969139432"
"0.06686438691354285","-0.08751115872435608","-0.05443721153970796","-0.0005366547328329988","-0.005935301084332905","0.0002921384112154271","-0.7227645946101154","0.5114624359945328","1.0911147161076145"
"0.06700880981351187","-0.08720058221922601","-0.0552013548414284","-0.0009781716991315288","-0.007633824004313488","0.001378896888841537","-0.7258574792255279","0.5102355181837118","1.0897908969139432"
"0.06700880981351187","-0.08735742854790375","-0.05443101578320752","0.0003332858052118144","-0.008086635807132042","-0.0003881170628323586","-0.7242413773544115","0.5102355181837118","1.0909022512987534"
"0.06722448134413225","-0.087513236159173","-0.05442275477454027","0.0011220665520246913","-0.005520303374984402","-0.0010363376733145695","-0.7238791476246785","0.5111062340494558","1.090885907851918"
"0.06729669279411676","-0.0876690437704423","-0.054420689522373465","-0.0008719804183144162","-0.007710409510075611","-0.002356562353592827","-0.7262197089552609","0.5117922526103449","1.0901831396379937"
"0.06700880981351187","-0.08735638983049526","-0.054583844443551605","0.00015748772835592358","-0.008941760844907245","-0.00017333786392679666","-0.7275014449220085","0.5111062340494558","1.0886468556354618"
"0.06693563554419422","-0.0873553511130868","-0.055050591433251125","0.00014131353508550212","-0.0071544466041837","0.00335171057008822","-0.72518874741679","0.5107632247690111","1.089349623849386"
"0.06686342409420973","-0.08766592761821691","-0.054744934112562954","-0.0003474744365450332","-0.005128281317364534","-0.0023373899731255507","-0.7250215644646055","0.5105785274641564","1.0906570995962217"
"0.06715226989414776","-0.08759010124739919","-0.05457971393921798","-2.1198597298256742e-05","-0.007201833885874013","0.0011551382206031998","-0.7257460239240716","0.5107500321043787","1.0906407561493863"
"0.06715226989414776","-0.08735742854790375","-0.05457971393921798","-0.00036672942853363023","-0.0054891905132685385","0.0011687287687825348","-0.7250494282899697","0.5102355181837118","1.0902321699785003"
"0.06715226989414776","-0.08743533235353837","-0.05473460785172889","-0.0009791344487309586","-0.009141122489594271","0.001147857569792842","-0.7236562370217658","0.5111194267140883","1.0898072403607786"
"0.06722448134413225","-0.08735846726531221","-0.05442275477454027","0.0006804533107662187","-0.008514078661166888","-0.0003956404020030621","-0.72805872142929","0.5097078115984125","1.089758210020272"
"0.06686438691354285","-0.08751115872435608","-0.05443721153970796","0.001206884791734461","-0.005078979398030168","-0.0005907618437206578","-0.725913206876256","0.5098925089032674","1.0891371590405254"
"0.06686438691354285","-0.08743429363612991","-0.05443514628754115","-2.6782544974949868e-05","-0.007611327011995865","0.0020336700850530696","-0.7249658368138775","0.5102355181837118","1.090885907851918"
"0.06700784699417874","-0.08751115872435608","-0.05504852618108431","0.0006708258147719201","-0.006318467942849027","0.0020363396570168674","-0.7254673856704307","0.5123199591956442","1.0903956044468548"
"0.06700880981351187","-0.08735742854790375","-0.05443101578320752","0.0018063889672994295","-0.004610371834648177","0.0011629042481342484","-0.7243806964812319","0.510077206208122","1.0895947755519177"
"0.06671996401357384","-0.08751012000694763","-0.054596235956552476","-1.0030701944870492e-05","-0.005517910077929335","-0.0005846946347120259","-0.7257460239240716","0.5116207479701226","1.0908368775114117"
"0.06671996401357384","-0.08751115872435608","-0.05444134204404158","0.00034589782496434544","-0.008133065770000327","-0.0027997112995832864","-0.7201732588512564","0.508705169086344","1.0905753823620445"
"0.06700784699417874","-0.08766800505303383","-0.05443101578320752","-0.0008781420157507671","-0.0068239322808790375","-0.001030270464305938","-0.724798653861693","0.5111194267140883","1.0895620886582469"
"0.06700784699417874","-0.08743429363612991","-0.054738738356062515","-2.2161346897686554e-05","-0.008058873561293272","0.0011510125184773302","-0.727334261969824","0.5110930413848233","1.0899543313822977"
"0.06700784699417874","-0.08751115872435608","-0.05489363226857341","0.00016750032418999403","-0.0057459912872771576","-0.0012491753653373692","-0.7247150623856008","0.5104202154885666","1.0900197051696394"
"0.06693563554419422","-0.08751219744176454","-0.05443308103537433","0.0008755063796107064","-0.003419467220047165","-0.0032125242005305865","-0.7246593347348727","0.5102355181837118","1.0904609782341963"
"0.06693563554419422","-0.08766800505303383","-0.05381763588966436","-0.00037077297685123565","-0.008061984847464858","0.0011541674671618188","-0.7218450883731009","0.510433408153199","1.0894313410835632"
"0.06700880981351187","-0.08735638983049526","-0.054583844443551605","0.0006723662141310079","-0.008481529821217988","0.0011437318676669722","-0.722625275483295","0.5111326193787207","1.089169845934196"
"0.06693563554419422","-0.08766696633562537","-0.05443514628754115","0.0003216365350587132","-0.005025848203407695","0.0024874973188987203","-0.7269998960654551","0.5093648023179681","1.089349623849386"
"0.06686438691354285","-0.08751115872435608","-0.05443721153970796","0.00014603100812270834","-0.006528360094578345","0.002479003226286636","-0.7261918451298969","0.5093648023179681","1.0897908969139432"
"0.06700784699417874","-0.08735638983049526","-0.054738738356062515","0.00017809056978372237","-0.005571280602257314","-0.003223687865106469","-0.7271670790176396","0.5093779949826005","1.0880421481025502"
"0.06693563554419422","-0.08751115872435608","-0.054742868860396136","0.00015864302787523948","-0.008083045861549442","-0.0001665425898371293","-0.7264147557328093","0.5105785274641564","1.0912781505759688"
"0.06700880981351187","-0.08735742854790375","-0.05412122795818572","0.00032885715705443705","-0.008502830165008078","0.00026762688682055517","-0.7231268243398484","0.5116471332993876","1.088287299805082"
"0.06715226989414776","-0.087513236159173","-0.05442482002670709","0.0006800682109264466","-0.005926206555523653","0.00028146012336023536","-0.7290339553170326","0.5098925089032674","1.087993117762044"
"0.06700880981351187","-0.08720162093663447","-0.054583844443551605","-0.0009818301476093622","-0.011070837905094263","0.001136208528496269","-0.7270834875415473","0.5093779949826005","1.0886958859759681"
"0.06693659836352736","-0.08735638983049526","-0.05474080360822932","0.0004011596519716189","-0.007581171469102028","0.003347342179602005","-0.7227367307847514","0.5099057015678997","1.0909349381924245"
"0.06700784699417874","-0.08766696633562537","-0.05474080360822932","0.000310179814825498","-0.00713601821685969","0.004228543616015673","-0.7246314709095085","0.5097210042630451","1.0906897864898928"
"0.06686342409420973","-0.08782277394689465","-0.05412948896685297","0.00016567109995107733","-0.005526525947327573","-0.001026144762180068","-0.725913206876256","0.5118054452749774","1.0897418665734369"
"0.06700784699417874","-0.08735638983049526","-0.054738738356062515","0.000684978233883539","-0.005942720305203611","-0.0005953729225672178","-0.7259689345269843","0.5124914638358665","1.08930059350888"
"0.06693659836352736","-0.08743429363612991","-0.05458797494788523","-0.00010245466349013617","-0.008300117904443958","-0.0001665425898371293","-0.7271949428430037","0.5114360506652679","1.091245463682298"
"0.06700880981351187","-0.08720058221922601","-0.055046460928917504","0.0012035151681364566","-0.006572396760391565","-0.00016387301787333121","-0.7250772921153339","0.510591720128789","1.0902321699785003"
"0.06700784699417874","-0.08766696633562537","-0.05474080360822932","0.0018859120842123348","-0.007165695100342512","0.0020234771739185684","-0.724046330576863","0.5095363069581904","1.0922260704924247"
"0.06686438691354285","-0.08751115872435608","-0.05443721153970796","0.000678335261647473","-0.007211167744388772","0.0002761209794326396","-0.7227645946101154","0.510591720128789","1.090918594745589"
"0.0667190011942407","-0.08766592761821691","-0.05444134204404158","0.000864916134016978","-0.0042408467693459346","-0.0014593434853963714","-0.7254395218450668","0.5112777386896781","1.0904282913405257"
"0.06686438691354285","-0.08735638983049526","-0.05443514628754115","0.0015482757996922861","-0.008284561473586027","-0.00017576474753024945","-0.7234333264188533","0.511304124018943","1.0887285728696392"
"0.06715226989414776","-0.0876690437704423","-0.0541170974538521","-3.1114918172384186e-05","-0.006304586819929642","0.003137174059543003","-0.7260525260030765","0.510947922073866","1.0882546129114112"
"0.06715226989414776","-0.08766800505303383","-0.05442688527887389","7.748323664330305e-05","-0.005091424542716512","-0.0005871215183154784","-0.7229039137369357","0.5097341969276776","1.0896274624455888"
"0.06700784699417874","-0.08743429363612991","-0.05443101578320752","-0.00035873860685836255","-0.0025025951182512493","0.00031252423348442977","-0.7265540748596299","0.5097078115984125","1.090003361722804"
"0.06729669279411676","-0.08735742854790375","-0.055036134668083436","0.0011868596000663202","-0.005002393892268044","0.0033558362722140894","-0.725523113321159","0.5126761611407212","1.0899543313822977"
"0.06686438691354285","-0.08751115872435608","-0.05443721153970796","0.0008555774629025085","-0.007222894899958598","-0.0003837486723461441","-0.7275571725727366","0.5097210042630451","1.0878133398468541"
"0.06693659836352736","-0.08743429363612991","-0.05443308103537433","0.00033174540585272663","-0.006357000025435594","0.00028315894188265226","-0.7283094958575668","0.5114492433299004","1.0881892391240695"
"0.06693659836352736","-0.08735638983049526","-0.05443308103537433","0.0006988418281153288","-0.005780694094575619","-0.0032275708788719938","-0.7269441684147269","0.5102355181837118","1.0899870182759686"
"0.06693659836352736","-0.08743429363612991","-0.05458797494788523","0.0017313907735038438","-0.006593936433887162","-0.0014833696330705528","-0.7253837941943386","0.5109347294092335","1.0908695644050828"
"0.06693563554419422","-0.08766696633562537","-0.05458797494788523","0.00016499717523147642","-0.008538729620834073","-0.0014865245817550416","-0.7239627391007708","0.5116339406347551","1.090444634787361"
"0.06693659836352736","-0.08720162093663447","-0.05443101578320752","0.00041848914476135614","-0.005493737777673164","0.0005076456752020251","-0.7267212578118142","0.5098793162386348","1.0917357670873613"
"0.06700784699417874","-0.08782173522948619","-0.055050591433251125","-2.745646969455077e-05","-0.008898920827621556","0.0020234771739185684","-0.7276129002234647","0.5102223255190794","1.09041194789369"
"0.06700880981351187","-0.08735742854790375","-0.05443101578320752","0.000329242256894209","-0.008502590835302571","0.00026762688682055517","-0.7253280665436104","0.5104070228239341","1.091098372660779"
"0.06715226989414776","-0.087513236159173","-0.05442482002670709","0.0001612424517937","-0.005725408932603587","-0.0001529520416577942","-0.7232104158159406","0.5104202154885666","1.0902648568721711"
"0.06693563554419422","-0.08751219744176454","-0.05443308103537433","0.0008542296134633067","-0.005494216437084178","0.00028582851384645016","-0.7286995894126638","0.5107368394397462","1.0908041906177408"
"0.06686342409420973","-0.08766696633562537","-0.05443721153970796","0.0011872446999060921","-0.005866613458852502","0.0029163276516288093","-0.7225974116579309","0.509391187647233","1.0890064114658418"
"0.06722448134413225","-0.08751219744176454","-0.05488537125990616","-0.00035296210926178334","-0.005108895611218496","-0.0012440789097701189","-0.7260525260030765","0.5104070228239341","1.0910820292139434"
"0.06693563554419422","-0.08766696633562537","-0.05443514628754115","0.0013779653955531457","-0.007437573645798048","-0.0006084780940258624","-0.726303300431353","0.5109347294092335","1.0893332804025506"
"0.06700880981351187","-0.08743533235353837","-0.054276121870696616","0.0015554964216880102","-0.008097644973585345","-0.0014930771674843636","-0.7227367307847514","0.510591720128789","1.0911310595544497"
"0.06700784699417874","-0.08766800505303383","-0.05443101578320752","0.00033935112768822246","-0.005954926120184449","-0.0010319692828283545","-0.724046330576863","0.5112909313543105","1.0897908969139432"
"0.06700880981351187","-0.08720162093663447","-0.054583844443551605","0.0004292719402749705","-0.0055337058384927725","-0.001469051019810182","-0.7254395218450668","0.5106049127934214","1.087192288867107"
"0.06700784699417874","-0.08766800505303383","-0.05412329321035253","0.0018892817078103395","-0.006750218731582994","0.0013677332242656545","-0.7282259043814744","0.5112777386896781","1.0888593204443227"
"0.06700784699417874","-0.08766800505303383","-0.05443101578320752","0.00015835420299541047","-0.008083763850665962","-0.000167270654918165","-0.7264426195581735","0.5117922526103449","1.0912618071291333"
"0.06700784699417874","-0.08751219744176454","-0.05443101578320752","0.0013751734217147989","-0.00979760387179897","-0.0006254662792500308","-0.7242135135290474","0.5093779949826005","1.090918594745589"
