"AccX","AccY","AccZ","GyroX","GyroY","GyroZ","MagX","MagY","MagZ"
"0.056749969819046286","0.09248818098799967","0.06632427841029087","-0.00042362792985993443","-0.002666535966523294","0.0025527804878315978","-0.6544424948174001","-1.017831248202863","-1.153804797762481"
"0.05689342989968217","0.09233445081154731","0.0657108985167477","0.00038383015918188153","-0.003937855362174535","-0.0017401339183158464","-0.6517118399317207","-1.015205907940999","-1.1571552043637476"
"0.05696564134966668","0.09233548952895577","0.06555806985640361","0.0004022186765309917","-0.006889508620187857","-0.004116781031177056","-0.6526313461687352","-1.0181346794894104","-1.1552430210840003"
"0.056749006999713164","0.09248921970540813","0.06585959667275816","0.0011743438552737323","-0.0030970901067297286","-0.004088629181377005","-0.6517675675824487","-1.0166834863798373","-1.1532981509105824"
"0.0568221812690308","0.0922555082885042","0.06586166192492497","0.0014862747254890038","-0.005203670174599124","-0.0006783723418052995","-0.6526592099940993","-1.0159578898250505","-1.1548180914662787"
"0.0568221812690308","0.09233341209413885","0.06586166192492497","0.00011618577054038302","-0.008570081812255442","-0.0009162069349436616","-0.6534115332789292","-1.0156280732092386","-1.154425848742228"
"0.05682121844969767","0.09256712351104278","0.06617144974994678","0.0019209561696315817","-0.004362665589448811","-0.0015272962262930464","-0.6541917203891234","-1.017778477544333","-1.1555045162333675"
"0.05689342989968217","0.09233445081154731","0.0658657924292586","0.0006102688649677825","-0.0047790992770303554","0.0016803158323903597","-0.6538294906593904","-1.0166043303920422","-1.1552920514245069"
"0.05667775836906178","0.09233341209413885","0.06585546616842454","0.0009850672840258235","-0.005833346629787079","-0.0021815840457838887","-0.6533836694535652","-1.0173035416175638","-1.1548507783599498"
"0.05696467853033355","0.09264502731667743","0.06617764550644721","-0.000594612258718676","-0.007303549010714333","0.0020921579798962794","-0.6547768607217691","-1.0190185880197866","-1.1535923329536204"
"0.05696564134966668","0.09233445081154731","0.06586785768142542","0.0007883775408623047","-0.0028848046579453444","0.001051267602375425","-0.6510152442976187","-1.0191768999953763","-1.1547690611257726"
"0.056532372649759646","0.09256712351104278","0.0655394825869023","-0.00039022051875971855","-0.00350945518931766","-0.0013076632601805788","-0.6529099844223759","-1.017171614971239","-1.153543302613114"
"0.0568221812690308","0.0922555082885042","0.06586166192492497","-0.0003759718246881567","-0.0047779026285028215","-0.003031235995352672","-0.6512102910751673","-1.017092458983444","-1.1565014664903297"
"0.0568221812690308","0.09233341209413885","0.06586166192492497","0.00011637832046026901","-0.003092542842325103","-0.0004492745296393665","-0.6526034823433711","-1.016815413026162","-1.1543931618485572"
"0.05682121844969767","0.09248921970540813","0.06617144974994678","-0.0012597759569647601","-0.006247626350019063","-4.252883770069736e-05","-0.6534115332789292","-1.0157863851848283","-1.154425848742228"
"0.05696467853033355","0.09249025842281659","0.06586785768142542","0.00026579705829178185","-0.00730666029688592","0.0016630849588058457","-0.6516003846302643","-1.0147573573434947","-1.1556516072548866"
"0.056749006999713164","0.09248921970540813","0.06616938449777997","0.0013420548354944122","-0.004782689222612955","-0.0038862270888490513","-0.6541081289130312","-1.0184776887698548","-1.1548507783599498"
"0.056676795549728654","0.09256816222845124","0.06554567834340273","0.0008247694757207533","-0.005833585959492585","-0.0034654054720103565","-0.6510709719483467","-1.01648559641035","-1.1543604749548864"
"0.05703688998031806","0.09241235461718196","0.06587198818575904","-0.0007541398673442021","-0.002669886582400386","0.0012670175547223684","-0.651154563424439","-1.0159578898250505","-1.1549978693814686"
"0.05682121844969767","0.09249025842281659","0.06586166192492497","0.0004635458260146732","-0.0009871594229832414","-0.0008618447422263219","-0.6526592099940993","-1.0162877064408626","-1.1550468997219752"
"0.05682121844969767","0.09249025842281659","0.06570676801241408","0.0008318938227565341","-0.0035183103884214055","-0.004091784130061493","-0.6518511590585411","-1.016657101050572","-1.1543768184017218"
"0.05667775836906178","0.09256608479363432","0.06647504181846814","0.001298153453760411","-0.003514481113133299","0.0012626491642361536","-0.6562815072914291","-1.0138470634838535","-1.1564360927029882"
"0.057037852799651186","0.09217864320027802","0.06587198818575904","0.0007155936711454082","-0.003518549718126912","-0.0004529148550445454","-0.6543867671666719","-1.0161953577884353","-1.1576618512156465"
"0.05682121844969767","0.09249025842281659","0.06586166192492497","0.0015663754921615674","-0.0043607509518047574","-2.8938289521362234e-05","-0.6557799584348757","-1.0167494497029996","-1.1559784761915954"
"0.056678721188394905","0.09217760448286957","0.06570057225591365","0.0002755208292460233","-0.00014112891401728834","0.0012842484283068826","-0.6522691164390021","-1.0168022203615295","-1.1550305562751395"
"0.05667775836906178","0.09248818098799967","0.06647504181846814","-0.0003946491669170958","-0.0030889528967425034","-0.0008764060438470379","-0.6519068867092691","-1.0157863851848283","-1.1550142128283043"
"0.05696564134966668","0.09233341209413885","0.06617764550644721","9.770097823132985e-05","-0.0028821720311847715","0.0016939063805696945","-0.6510709719483467","-1.0161557797945378","-1.1541316666991899"
"0.05696371571100042","0.09264606603408589","0.0657129637689145","-4.0838689126625634e-05","-0.008572235779605003","-0.002628130628819182","-0.651154563424439","-1.0157863851848283","-1.1552103341903295"
"0.056676795549728654","0.09256816222845124","0.06554567834340273","0.0010020116769757887","-0.0024635843762536684","-0.003869966968705918","-0.6507644698693421","-1.014955247312982","-1.1547690611257726"
"0.05653333546909277","0.09248818098799967","0.06584927041192411","0.00027523200436619435","-0.004352853071523039","0.0008277516224974334","-0.6537458991832983","-1.0163140917701277","-1.1540009191245064"
"0.056750932638379416","0.09233237337673039","0.06647917232280176","-0.0009010554562171974","-0.003931632789831363","-0.0017398912299555012","-0.6561421881646088","-1.014928861983717","-1.1544912225295698"
"0.05682314408836392","0.09225446957109575","0.0664833028271354","-0.0003962858412361267","-0.0035120878160782333","-0.0006664806121483808","-0.6546375415949487","-1.01441434806305","-1.1548834652536206"
"0.05682314408836392","0.09217656576546111","0.0664833028271354","-0.00038925776916028874","-0.0068835253775501905","-0.0017614904940262298","-0.6519904781853614","-1.01457266003864","-1.155667950701722"
"0.056750932638379416","0.09217760448286957","0.06616938449777997","0.0009764025376309546","0.00027626209238628167","-0.0006397848925104016","-0.6499842827591479","-1.0151399446178366","-1.1545402528700763"
"0.05653333546909277","0.09264398859926892","0.06615905823694591","0.0016315536400429685","-0.0060413241438723436","0.00210186551431009","-0.6508201975200703","-1.0159315044957855","-1.1558477286169118"
"0.057108138610969444","0.09264710475149435","0.06571915952541495","0.0009701446652346607","-0.0052053454825376705","-0.0004628650778187016","-0.6510709719483467","-1.0171584223066066","-1.154572939763747"
"0.056819292811031416","0.09264710475149435","0.06524208627488137","0.0009772690122704418","-0.003938573351291055","-0.0010962816983198507","-0.6533279418028372","-1.0168417983554268","-1.1535596460599493"
"0.05653333546909277","0.09233445081154731","0.0652296947618805","-0.0012462011876127994","-0.005192182348734806","-0.0013210111199995688","-0.6528821205970118","-1.0168681836846918","-1.1526934433776708"
"0.056749006999713164","0.09233445081154731","0.06554980884773637","-0.000729782302478627","-0.005617949894831108","-0.00175226833633311","-0.6509873804722546","-1.0166834863798373","-1.1532818074637468"
"0.0568221812690308","0.09233237337673039","0.06648123757496859","-4.545988720388895e-05","-0.004356443017105638","-0.0017428034902796444","-0.6483960447133955","-1.0168417983554268","-1.1544912225295698"
"0.057037852799651186","0.09233445081154731","0.06587198818575904","0.0006443502007875992","-0.0035192677072434318","-0.002165566614001101","-0.6457768451291723","-1.0143219994106227","-1.1542133839333673"
"0.05667775836906178","0.09233237337673039","0.06616525399344633","0.0014952282967637014","-0.004781013914674408","-0.0017454730622434426","-0.6534951247550215","-1.017250770959034","-1.1563380320219754"
"0.05682121844969767","0.09233445081154731","0.06555187409990317","0.0013154829465501484","-0.0024645416950756943","-0.00044466345079280644","-0.6503186486635169","-1.0176597435626409","-1.154965182487798"
"0.056749006999713164","0.09256712351104278","0.06585959667275816","0.000645601775266858","-0.003515677761660832","-0.0023781616176635554","-0.6531886226760166","-1.0170528809895467","-1.1574003560662793"
"0.056749006999713164","0.09249025842281659","0.06570470276024726","-0.00023252213437310892","-0.0068823287290226565","-4.7139916547257426e-05","-0.6507644698693421","-1.016789027696897","-1.1554064555523549"
"0.05696564134966668","0.09225654700591267","0.06586785768142542","-0.0005631303468173199","-0.006463262414680541","-0.0013302332776926888","-0.6507644698693421","-1.0161293944652727","-1.1552103341903295"
"0.05667775836906178","0.09248818098799967","0.06616525399344633","0.0009638867928383667","-0.0033033923128764475","0.0004071726940190841","-0.6515446569795362","-1.0161162018006404","-1.155226677637165"
"0.05682121844969767","0.09256712351104278","0.06632634366245768","-5.633895767744629e-05","-0.0035130451349002596","-0.0004507306598014381","-0.6538294906593904","-1.016103009136008","-1.1550795866156458"
"0.0568221812690308","0.09233341209413885","0.06586166192492497","0.0006207628356015679","-0.005621539840413707","0.0003894564437138795","-0.6510709719483467","-1.0163140917701277","-1.1543604749548864"
"0.05667775836906178","0.09233341209413885","0.06585546616842454","0.0006437725510279413","-0.004357400335927666","-0.0021711484462890417","-0.6527428014701915","-1.014928861983717","-1.1552593645308358"
"0.05696467853033355","0.09249025842281659","0.06586785768142542","0.0004549773545797475","-0.002673715857688493","-1.7289248224789512e-05","-0.6510709719483467","-1.015997467818948","-1.1539192018903293"
"0.0568221812690308","0.09233341209413885","0.06632634366245768","-0.00021596284126291547","-0.0037241339351571107","-0.0017384350997934294","-0.6512660187258955","-1.0152322932702642","-1.1565014664903297"
"0.05696467853033355","0.09249025842281659","0.0657129637689145","-0.0014389436574186554","-0.008144553595864646","0.0008000851494180728","-0.648953321220677","-1.0157599998555633","-1.1564360927029882"
"0.05696660416899981","0.09233341209413885","0.06648743333146902","0.0009569549957224718","-0.0026741945170995055","0.0012672602430827136","-0.650792333694706","-1.0151135592885716","-1.1552103341903295"
"0.05653429828842589","0.09233237337673039","0.06584927041192411","0.0002852446002002648","-0.00646039045821446","-0.00047281530059285743","-0.6522969802643662","-1.0166175230566747","-1.1552430210840003"
"0.056749006999713164","0.09248921970540813","0.06585959667275816","0.0018440324766371367","-0.0060477860459210225","-0.0026104143785139772","-0.6523805717404584","-1.016406440422555","-1.1565341533840006"
"0.05696660416899981","0.09217760448286957","0.06617971075861402","0.0002528962136594218","-0.005198883580488992","0.0033898126426624266","-0.6515167931541721","-1.0171320369773416","-1.1554391424460257"
"0.05696564134966668","0.09233341209413885","0.06617764550644721","0.0004497785067428263","-0.004780056595852381","0.0003955236527225112","-0.6533836694535652","-1.0163008991054951","-1.1544095052953924"
"0.056676795549728654","0.09248921970540813","0.06585546616842454","0.0004618128767356994","-0.006041563473577851","-0.0011115710650216023","-0.6523805717404584","-1.0149156693190844","-1.1558967589574183"
"0.0568221812690308","0.09233341209413885","0.06632634366245768","0.00046643407481296274","-0.006886158004310763","-0.001760519740584849","-0.6531607588506525","-1.0138998341423833","-1.1554881727865323"
"0.0568221812690308","0.09233341209413885","0.06632634366245768","-0.0003862732454020562","-0.007726444600344557","-0.0021949319056028794","-0.648925457395313","-1.0149420546483494","-1.1555862334675449"
"0.056678721188394905","0.0922555082885042","0.06585546616842454","0.001984305093274066","-0.008994652709824212","0.0007940179404094411","-0.6486189553163082","-1.015562109886076","-1.1572859519384313"
"0.0568221812690308","0.09233341209413885","0.06586166192492497","0.000612964563846186","-0.000986202104161214","0.0017072542403886843","-0.6508480613454343","-1.0165911377274097","-1.1564851230434945"
"0.056749969819046286","0.09233341209413885","0.06585959667275816","0.0004559401041791774","-0.0018284033378390603","-1.1950104297193541e-05","-0.6504579677903373","-1.0160898164713754","-1.1562563147877982"
"0.056813515895032654","0.09232717978968806","0.06617764550644721","-0.0011591686238243406","-0.003535542127217883","-0.002139841647804503","-0.6520462058360894","-1.016023853148213","-1.1540009191245064"
"0.056813515895032654","0.09232717978968806","0.06586785768142542","0.0009676415162761432","-0.009229913810337232","-0.0011091441814181497","-0.6549440436739535","-1.0149156693190844","-1.1566485575118488"
"0.05667005581439677","0.0923261410722796","0.06648123757496859","0.0004816455184839544","-0.00817494846846399","-0.004313358603056722","-0.6491483679982257","-1.0163008991054951","-1.1567139312991905"
"0.05666909299506364","0.09248298740095734","0.06570676801241408","0.0014838678514904292","-0.005227124485738774","-0.0010800215781767175","-0.6534115332789292","-1.0169209543432216","-1.157678194662482"
"0.056813515895032654","0.09232717978968806","0.06586785768142542","0.0008752175547308774","-0.005858236919159769","-1.4619676260991631e-05","-0.6479502235075704","-1.016657101050572","-1.1562399713409628"
"0.05695793879500167","0.09217241089582727","0.06571915952541495","0.0006223995099205986","-0.0012248138205513287","1.7172498944238685e-05","-0.6528821205970118","-1.01648559641035","-1.155308394871342"
"0.056679684007728035","0.09202075815419182","0.06647710707063495","-0.0009202141732458515","-0.0060362982200567045","0.00038533074158801016","-0.6542474480398516","-1.0162613211115976","-1.1555045162333675"
"0.056678721188394905","0.09240923846495658","0.06678482964348995","-0.0007523106431052857","-0.0035080192110846196","0.0008335761431457198","-0.6531328950252885","-1.0169209543432216","-1.156550496830836"
"0.05696564134966668","0.09233341209413885","0.06633253941895811","0.00030844686554652425","-0.00646685236026314","-0.0032566934821134266","-0.6552226819275943","-1.0151663299471017","-1.1581031242802036"
"0.05696467853033355","0.09248921970540813","0.06617764550644721","0.001989022566311272","-0.00604874336474305","0.00038751493683111745","-0.64781090438075","-1.014084531447238","-1.1559784761915954"
"0.056749969819046286","0.09233341209413885","0.06585959667275816","0.001220363286126479","0.00027626209238628167","0.0008597864860630087","-0.6508759251707983","-1.0154037979104862","-1.1564851230434945"
"0.056749969819046286","0.09233237337673039","0.06632427841029087","0.0001955163375334027","-0.003512566475489246","0.00019069467659110512","-0.654721133071041","-1.0160502384774779","-1.1568119919802033"
"0.056814478714365776","0.09224823726664495","0.06679722115649082","0.000452185380741401","-0.005224970518389214","-0.0006524046872483555","-0.6505136954410653","-1.0171980003005041","-1.1548180914662787"
"0.0569589016143348","0.09217137217841881","0.06618384126294764","0.000464989950413818","-0.009441481270005098","-0.002396363244689451","-0.6521576611375459","-1.0173167342821963","-1.15614191065995"
"0.05695793879500167","0.09232717978968806","0.06618384126294764","-0.0007459564957490486","-0.006065735773834021","-0.0006587145846173325","-0.6498449636323276","-1.0158259631787259","-1.1554391424460257"
"0.056813515895032654","0.09232717978968806","0.06617764550644721","0.00027195865572813286","-0.008594732771922626","0.00018025907709625868","-0.6480059511582984","-1.0161425871299055","-1.15668124440552"
"0.056814478714365776","0.0923261410722796","0.06633253941895811","-4.0646139206739726e-05","-0.005224970518389214","-0.0030079379127595264","-0.6494827339025945","-1.016815413026162","-1.1562890016814689"
"0.05667005581439677","0.0923261410722796","0.06648123757496859","0.0007978124869367175","-0.006067411081772568","-0.001086331475545695","-0.6488140020938566","-1.0147837426727595","-1.156697587852355"
"0.05667005581439677","0.0923261410722796","0.06648123757496859","0.00043880316130932606","-0.006275627925563339","0.0008394006637940062","-0.6473372193495607","-1.0145990453679048","-1.1575147601941274"
"0.056814478714365776","0.0923261410722796","0.06633253941895811","9.750842831144393e-05","-0.005012445739899323","0.0008481374447664359","-0.6511266995990751","-1.0147573573434947","-1.156762961639697"
"0.05710139887563755","0.09225135341887038","0.06588024919442628","-0.00021403734206405602","-0.004385162581766435","-0.0025747391895432226","-0.65006787423524","-1.0160634311421104","-1.1586588014726087"
"0.056813515895032654","0.09248194868354888","0.06633253941895811","-0.00038858384444068786","-0.0048020749287589915","-0.002361901497520423","-0.6508759251707983","-1.0157072291970335","-1.1591164179840012"
"0.0567432300837144","0.09201452584974107","0.06617558025428039","0.0016287616662046217","-0.003962506321841718","0.0021392395218032614","-0.6526592099940993","-1.0147573573434947","-1.1568119919802033"
"0.05695697597566854","0.09248298740095734","0.06649362908796945","0.0002961236706738221","-0.0043846839223554215","-0.0023587465488359347","-0.6541081289130312","-1.0157863851848283","-1.155994819638431"
"0.056741304445048144","0.09248194868354888","0.06617558025428039","0.00027176610580824693","-0.005644515492142344","0.00041615216335185904","-0.6484517723641238","-1.0152718712641613","-1.1573349822789376"
"0.05695697597566854","0.09248298740095734","0.06649362908796945","-0.00042073968106164496","-0.005644036832731332","0.0012725993870103096","-0.6495941892040508","-1.0147705500081272","-1.1569427395548868"
"0.056814478714365776","0.0923261410722796","0.06633253941895811","-0.0003900279688398327","-0.0048020749287589915","-0.0021485784287769323","-0.6512102910751673","-1.0145594673740073","-1.1578416291308362"
"0.05674226726438127","0.09224823726664495","0.06617558025428039","0.0016510011819514511","-0.008177581095224562","-0.0008875697084229204","-0.6519626143599974","-1.0135568248619387","-1.1574330429599502"
"0.056741304445048144","0.09248194868354888","0.0663304741667913","0.00021765957832028924","-0.0024860813685712913","-0.0029877947788508694","-0.6519904781853614","-1.0152191006056315","-1.1582829021953935"
"0.05710139887563755","0.09232821850709652","0.06634493093195899","0.0013090325242339682","-0.004388752527349034","-0.0006465801666000691","-0.6526313461687352","-1.0157731925201958","-1.1567956485333677"
"0.05695697597566854","0.0924840261183658","0.06587405343792585","0.0018261253340877413","-0.007549101288564141","-0.0013105755205047222","-0.6534393971042933","-1.0137415221667936","-1.156615870618178"
"0.056813515895032654","0.09232821850709652","0.06555806985640361","0.00010617317470631257","0.000464135911208989","0.0004581372496915905","-0.6534393971042933","-1.0155753025507086","-1.1574657298536213"
"0.05666813017573051","0.09263775629481817","0.06617144974994678","0.00027937182764374276","-0.00732939661890905","-0.0006657525470673456","-0.6546654054203126","-1.0147045866849647","-1.157939689811849"
"0.05695793879500167","0.0923261410722796","0.06664852300048035","-0.0005728541177715614","-0.010279853228394838","-0.0013307186544133794","-0.6539130821354827","-1.0145330820447425","-1.158119467727039"
"0.05674226726438127","0.0923261410722796","0.06648536807930219","0.001143824692971806","-0.0035415253698555488","-0.0012826663590650164","-0.6542195842144874","-1.0152322932702642","-1.157498416747292"
"0.056814478714365776","0.09217033346101035","0.06633253941895811","0.00112976854882013","-0.008597604728388705","-3.427743344895821e-05","-0.651098835773711","-1.014269228752093","-1.1561255672131143"
"0.0569589016143348","0.09201556456714953","0.06634080042762536","0.0007915546145404235","-0.0033316332181262303","1.883132242486672e-06","-0.6512938825512594","-1.0115119618439037","-1.1578416291308362"
"0.056814478714365776","0.09240404487791425","0.06679722115649082","0.0008011821105347219","-0.0031195870990473524","-0.0012792687220201826","-0.6527985291209196","-1.0151927152763665","-1.1591654483245075"
"0.05695793879500167","0.09232717978968806","0.06618384126294764","-0.00023733588237025816","-0.005224252529272695","-1.0251285774776651e-05","-0.654358903341308","-1.0150080179715117","-1.1592144786650138"
"0.05667101863372989","0.09217033346101035","0.06617144974994678","0.00019705673689249045","-0.0018518576489787108","-0.00041505547083068336","-0.6523527079150945","-1.0150475959654093","-1.158086780833368"
"0.05667005581439677","0.0923261410722796","0.06648123757496859","-0.0004015809640329908","-0.0052206625836900954","-0.000866455821072882","-0.6549161798485894","-1.0156016878799734","-1.1564360927029882"
"0.05674226726438127","0.0923261410722796","0.06617558025428039","0.0012307609818003214","-0.00227786452478052","-0.0012736868897322417","-0.6530771673745603","-1.0154037979104862","-1.157678194662482"
"0.05667101863372989","0.09217033346101035","0.06617144974994678","0.00025934663597560186","-0.0035360207866288965","0.0021428798472084404","-0.6523805717404584","-1.0150344033007768","-1.1585117104510896"
"0.05695793879500167","0.09232717978968806","0.06649362908796945","0.00034830469896292006","-0.002697170168828143","0.0017210874769283647","-0.6516003846302643","-1.0147177793495972","-1.1580704373865327"
"0.05667005581439677","0.09224823726664495","0.06617144974994678","0.0001854074667393893","-0.007539288770638367","0.00040159086173114294","-0.6509316528215264","-1.0140185681240754","-1.1591164179840012"
"0.056812553075699525","0.09256089120659199","0.06617764550644721","0.0009687968157954589","-0.0035415253698555488","-0.0008533506496142375","-0.6531050311999245","-1.014387962733785","-1.1574657298536213"
"0.05703015024498617","0.09232717978968806","0.06634286567979217","0.0007968497373372877","-0.005229039123382827","-0.0008666985094332271","-0.65293784824774","-1.0151399446178366","-1.155308394871342"
"0.056525632914427755","0.0923261410722796","0.06585546616842454","0.0005526964389218774","-0.003959155705964626","-0.0021425112197683","-0.6546654054203126","-1.0157072291970335","-1.1583646194295707"
"0.05667005581439677","0.09224927598405346","0.06586166192492497","0.0005650196337945795","0.00025185046242460547","-0.003183886974009846","-0.6523527079150945","-1.0137151368375286","-1.1574493864067856"
"0.056813515895032654","0.09232717978968806","0.06586785768142542","-0.0005704472437729867","-0.0031155184940537396","-0.0008518945194521657","-0.6537737630086622","-1.0137547148314259","-1.1559784761915954"
"0.056814478714365776","0.0923261410722796","0.06679722115649082","0.0002743655297267075","-0.0064879133743477235","-1.85026900265158e-05","-0.6506530145678856","-1.0151267519532041","-1.1558967589574183"
"0.056813515895032654","0.09248194868354888","0.06648743333146902","-0.0005555246249818242","-0.006276585244385366","-0.003014733186849194","-0.6508759251707983","-1.0127124943254597","-1.1576291643219758"
"0.05674226726438127","0.0923261410722796","0.06617558025428039","-0.000555428350021881","-0.007329157289203543","-0.003022984591100933","-0.6527706652955556","-1.0145330820447425","-1.1585280538979252"
"0.05666909299506364","0.09248298740095734","0.06586166192492497","0.001489740624046951","-0.004384923252060928","-0.0017163504590020102","-0.6527706652955556","-1.0145330820447425","-1.1585280538979252"
"0.056814478714365776","0.09217033346101035","0.06633253941895811","0.00021833350303989015","-0.002697888157944663","-0.0029909497275353576","-0.6529935758984681","-1.0152718712641613","-1.1561745975536208"
"0.0567432300837144","0.09232510235487114","0.0669500498168349","0.0013008491526388145","-0.0043834872738278885","0.0002108378104997623","-0.6530214397238322","-1.0156016878799734","-1.1568119919802033"
"0.056814478714365776","0.09224927598405346","0.06617764550644721","-0.0002383949069296312","-0.004379897328245288","0.000209624368698036","-0.6476994490792936","-1.0147705500081272","-1.1571061740232413"
"0.056813515895032654","0.09248194868354888","0.06633253941895811","0.0006312568062353533","-0.007122376423645811","-0.0017357655278296314","-0.6492319594743179","-1.0156016878799734","-1.1575637905346337"
"0.05710139887563755","0.09240612231273117","0.06619003701944809","0.0011595175114425124","-0.002493500589441998","-0.002988522843931905","-0.6509595166468907","-1.0143351920752552","-1.154197040486532"
"0.05666909299506364","0.09248194868354888","0.06617144974994678","0.0002211254768782367","-0.003117672461403299","-0.003420508125346482","-0.6521855249629098","-1.0161162018006404","-1.156370718915646"
"0.05652659573376088","0.09217033346101035","0.06585546616842454","8.980643151600502e-05","-0.004376546712368196","0.0019225188160149368","-0.6489811850460411","-1.01653836706888","-1.1545565963169115"
