"AccX","AccY","AccZ","GyroX","GyroY","GyroZ","MagX","MagY","MagZ"
"0.05668546092372679","0.09212670732985495","0.06621688529761664","-0.00012267240507816298","-0.007502671325695854","0.0018667004931355253","-0.6515725208049004","-1.0151267519532041","-1.1599172468789383"
"0.0567576723737113","0.09212566861244649","0.06684059145199386","0.00041473442132357975","-0.003714321417231339","-0.0006757027698415014","-0.6490647765221333","-1.011894549118246","-1.160718075773875"
"0.056902095273680314","0.09212566861244649","0.0668467872084943","0.0017708635070804678","-0.006879696102262084","0.0005867620806745824","-0.6490090488714052","-1.0114196131914766","-1.159868216538432"
"0.0567576723737113","0.09212566861244649","0.06653080362697207","0.0009091063406308083","-0.0054001598628200705","0.0014536449038278793","-0.6445229729877889","-1.0117362371426561","-1.161665995690331"
"0.056902095273680314","0.09212566861244649","0.0668467872084943","0.001246068700431256","-0.004559873266786278","0.0021021082026704352","-0.6475044023017451","-1.0120924390877333","-1.1604565806245077"
"0.05675670955437818","0.09228147622371577","0.06652873837480526","0.0007532371804831153","-0.0066647780267171264","-0.00048179476992563205","-0.6473650831749247","-1.013147852258332","-1.1589529835156467"
"0.05675670955437818","0.09212670732985495","0.06622101580195026","0.0017865563255511745","-0.006668607302005233","-0.0011249189248405918","-0.649649916854779","-1.015641265873871","-1.1600806813472926"
"0.056901132454347185","0.09212670732985495","0.0663821054709616","-0.0002734389923488776","-0.009612841339147847","-0.0007179305445415777","-0.6451359771457985","-1.015971082489683","-1.16145353088147"
"0.05675670955437818","0.09228147622371577","0.06652873837480526","0.0007704703983129097","-0.010879613470394463","-0.002867178663759271","-0.6456096621769879","-1.0125937603437676","-1.1610612881574194"
"0.056972381084998566","0.09228251494112423","0.06684885246066112","-0.0001037062379693949","-0.007507218590100479","-0.00048786197893426375","-0.6473929470002888","-1.0136359808497337","-1.1598191861979255"
"0.056972381084998566","0.09228251494112423","0.06653906463563931","0.0005697371068317858","-0.005823294782155801","0.0010228730642150288","-0.6459161642559927","-1.0129499622888447","-1.1601950854751408"
"0.05675670955437818","0.09243728383498502","0.06683852619982705","0.000400485727252018","-0.00708408367076475","0.0005867620806745824","-0.6489811850460411","-1.0121056317523656","-1.1596394082827355"
"0.0567576723737113","0.09220357241808112","0.06684059145199386","0.0008516301895448461","-0.0011881963756088135","-0.0015139483664740564","-0.6497056445055072","-1.0119473197767759","-1.1590183573029884"
"0.0567576723737113","0.09212566861244649","0.06684059145199386","0.0005207331522208064","-0.0035056259140295535","-0.0030297798651906004","-0.6494827339025945","-1.0137151368375286","-1.162221672882736"
"0.05675670955437818","0.09228147622371577","0.06683852619982705","-0.0006371657910134753","-0.007080254395476644","0.0018708261952613949","-0.6470307172705558","-1.0134644762095113","-1.1600153075599509"
"0.05661228665440916","0.09243728383498502","0.06652254261830481","0.00038989548165828966","-0.007081690373709684","0.0018715542603424309","-0.6454424792248034","-1.0133325495631864","-1.1591164179840012"
"0.05675574673504504","0.09243728383498502","0.06652873837480526","-0.0008543621006448497","-0.008556918678452577","-0.0028504331668954474","-0.6494270062518664","-1.0120660537584683","-1.1607344192207103"
"0.05675670955437818","0.09235938002935037","0.06683852619982705","4.792682394080654e-05","-0.006239728469737344","0.0018771360926303716","-0.6486189553163082","-1.0130950815998019","-1.1604892675181788"
"0.05675670955437818","0.09212670732985495","0.06622101580195026","0.002131413232066947","-0.008355403066415992","-0.0015651556105069082","-0.6470307172705558","-1.012633338337665","-1.1593779131333684"
"0.056901132454347185","0.09228147622371577","0.0671565750335161","0.00023624064558928537","-0.002450899901861817","0.00019045198823075982","-0.6486468191416721","-1.0124090630389126","-1.1607017323270394"
"0.05668449810439367","0.09228147622371577","0.06652667312263845","3.541107914821849e-05","-0.009187552452462559","0.003140814384948182","-0.64705858109592","-1.0137811001606911","-1.1606690454333686"
"0.056901132454347185","0.09228147622371577","0.0668447219563275","0.001277646887292555","-0.008775666029285641","-0.0019956847617594135","-0.6455817983516238","-1.0122639437279555","-1.1606200150928623"
"0.05675670955437818","0.09228251494112423","0.06637384446229436","0.000568196707472698","-0.008348701834661805","0.0010051568139098244","-0.647142172572012","-1.012580567679135","-1.1610939750510902"
"0.05661228665440916","0.09243728383498502","0.06652254261830481","0.0003436835008856568","-0.0035027539575634738","-0.0023859276451946043","-0.6487304106177645","-1.0128839989656822","-1.1617803998181788"
"0.05668546092372679","0.09212566861244649","0.06652667312263845","-8.329594646148202e-05","-0.003291904487012129","-0.0023861703335549497","-0.6470028534451917","-1.0129763476181095","-1.1591654483245075"
"0.05675670955437818","0.09228147622371577","0.06652873837480526","-0.0006123268513481852","-0.001183170451793175","-0.00044320732063073484","-0.6488418659192208","-1.0141636874350328","-1.158773205600457"
"0.0567576723737113","0.09212566861244649","0.06684059145199386","0.0007577621036004357","-0.007929156860908676","-0.0011336557058130219","-0.6444951091624248","-1.0145858527032723","-1.1625158549257741"
"0.05675670955437818","0.09228147622371577","0.06668363228731615","0.0007627684015174709","-0.0032945371137727024","-0.0013144585342702462","-0.647476538476381","-1.0135964028558362","-1.1608815102422294"
"0.05682892100436268","0.09228147622371577","0.06684265670416067","7.517263760467135e-05","-0.009613319998558861","-0.0015734070147586472","-0.6479502235075704","-1.0120528610938355","-1.161339126753622"
"0.05675670955437818","0.09243728383498502","0.06683852619982705","0.001272929414255349","-0.004559873266786278","-0.001108416116337114","-0.6454424792248034","-1.012989540282742","-1.1591164179840012"
"0.05675670955437818","0.09228147622371577","0.06652873837480526","4.917839842006535e-05","-0.005397048576648485","0.001882717924918313","-0.6454703430501675","-1.0134776688741438","-1.159541347601723"
"0.05690016963501406","0.09243832255239348","0.06653493413130569","0.00024692716614295674","-0.003715996725169885","-0.0011028342840491729","-0.6494270062518664","-1.0127388796547248","-1.1607344192207103"
"0.05668449810439367","0.09228147622371577","0.06652667312263845","0.00023229337223162305","-0.00666166674054554","0.0003746524537328182","-0.645665389827716","-1.0123958703742801","-1.1619111473928627"
"0.05690016963501406","0.09236041874675888","0.06653493413130569","-0.0004423052720888735","-0.005188113743741193","-0.0006854103042553117","-0.6471700363973761","-1.0125673750145023","-1.161518904668812"
"0.05690016963501406","0.09243728383498502","0.0668447219563275","0.0009299980069384359","-0.005403271148991657","-0.0011144833253457459","-0.646389849287182","-1.012250751063323","-1.1610776316042548"
"0.05675670955437818","0.09220357241808112","0.06653080362697207","0.0012565626710650413","-0.008351095131716871","0.0005765691695400811","-0.6471700363973761","-1.0125673750145023","-1.161518904668812"
"0.056901132454347185","0.09212670732985495","0.0665369993834725","0.0005771502787473956","-0.0037162360548753915","0.0003947955876414754","-0.6483403170626675","-1.0137151368375286","-1.1624177942447613"
"0.056902095273680314","0.0919698610011772","0.0668467872084943","0.0004836672926427571","-0.004347348488296387","0.0012461463557326754","-0.6463062578110897","-1.0126069530084","-1.160211428921976"
"0.05675574673504504","0.09243728383498502","0.06652873837480526","0.0005923617224183873","-0.004558197958847731","-0.0015370037607068572","-0.6448294750667938","-1.013266586240024","-1.1612410660726094"
"0.056902095273680314","0.09197089971858566","0.0663821054709616","0.0011023301852363793","-0.006246908360902543","-0.00112297741795783","-0.6462505301603616","-1.0131346595936992","-1.1597864993042546"
"0.05690016963501406","0.09228251494112423","0.06653493413130569","0.00016904072354908184","-0.0037162360548753915","-0.0019602522611490043","-0.6455260707008957","-1.013622788185101","-1.1604075502840014"
"0.05690016963501406","0.09228251494112423","0.06638004021879479","0.00039730865357389945","-0.007928678201497662","0.0010080690742339676","-0.6501514657113324","-1.015258678599529","-1.1613881570941285"
"0.0567576723737113","0.09212566861244649","0.06684059145199386","0.0009322123310171246","-0.003295015773183715","-0.0011008927771664109","-0.6493434147757742","-1.0146122380325373","-1.160505610965014"
"0.05682988382369581","0.09197089971858566","0.06637797496662798","-0.00018804310287944993","7.881508534330851e-05","0.00020646942001354752","-0.6479780873329344","-1.0108655212769122","-1.161339126753622"
"0.05661324947374229","0.09212566861244649","0.06652460787047164","0.0003995229776525881","-0.004975828294956808","0.00102845489650297","-0.6471979002227403","-1.01255418234987","-1.1617477129245082"
"0.05690016963501406","0.09228251494112423","0.06653493413130569","0.0007709517731126246","-0.004982290197005488","-0.002397333998130831","-0.6490926403474974","-1.0118813564536133","-1.1613718136472928"
"0.056901132454347185","0.09220357241808112","0.0668467872084943","0.0012737958888948359","-0.006668607302005233","-0.0013387273703047734","-0.6470307172705558","-1.0136359808497337","-1.1600153075599509"
"0.05661228665440916","0.09228147622371577","0.06636764870579392","0.0005902436732996416","-0.00582042282568972","-0.0013324174729357964","-0.6475322661271092","-1.0139130268070158","-1.1617477129245082"
"0.05661324947374229","0.09212566861244649","0.06652460787047164","0.0005933244720178171","-0.004345912510063347","-0.0015367610723465122","-0.6450802494950704","-1.0136623661789985","-1.159541347601723"
"0.0567576723737113","0.09212462989503803","0.06715037927701567","0.000806669783251472","-0.007083844341059243","0.003155375686568898","-0.6477551767300219","-1.013649173514366","-1.1593942565802038"
"0.0567576723737113","0.09212566861244649","0.06653080362697207","0.00038999175661823254","-0.002869966216203933","0.00232805106615188","-0.6500400104098759","-1.0131346595936992","-1.1588222359409632"
"0.0567576723737113","0.09212566861244649","0.06653080362697207","0.0011670269583180651","-0.0037157573954643783","0.0014657793218451427","-0.6479223596822062","-1.0107335946305873","-1.1604729240713434"
"0.05690016963501406","0.09236041874675888","0.06653493413130569","0.0011606728109618285","-0.006666453334655673","0.0018739811439458835","-0.6486189553163082","-1.0127520723193573","-1.1604892675181788"
"0.05704459253498308","0.0921277460472634","0.06623340731495114","0.0017984944205841045","-0.005409015061923816","-0.002401217011896356","-0.6490090488714052","-1.014928861983717","-1.1613554702004572"
"0.05654103802375778","0.09228147622371577","0.06621068954111621","0.0014273544500038968","-0.009191860387161677","0.0005712300256124852","-0.648200997935847","-1.0134512835448788","-1.1600479944536217"
"0.05675670955437818","0.09228147622371577","0.06652873837480526","-0.0006294637942180364","-0.002024653696354501","0.0014781564282227513","-0.6485353638402159","-1.0129631549534768","-1.1591981352181784"
"0.05675670955437818","0.09228147622371577","0.06652873837480526","0.00023989909406711883","-0.0037136034281148186","-0.0002468724371114129","-0.6466406237154588","-1.0141373021057678","-1.1599989641131154"
"0.0567576723737113","0.09212566861244649","0.06684059145199386","-0.0004714765849515981","-0.004973674327607249","0.002741592032180216","-0.6512381549005314","-1.0132797789046566","-1.1597047820700774"
"0.05682795818502955","0.09228355365853269","0.06606818714160619","0.0002449053919841541","-0.002872359513258999","-0.0006696355608328695","-0.6440214241312356","-1.0124486410328102","-1.1603585199434951"
"0.056614212293075415","0.0919698610011772","0.06652460787047164","0.0005707961313911586","-0.005397766565765004","0.001024814571097791","-0.6502350571874246","-1.0115515398378014","-1.1609632274764068"
"0.05682795818502955","0.09228251494112423","0.06622308105411708","-0.0006298488940578085","-0.008345829878195727","0.001004914125549479","-0.6502629210127886","-1.0132006229168617","-1.1622543597764068"
"0.05661324947374229","0.09220357241808112","0.06621275479328301","-0.0007932275010810541","-0.0028656582815048135","0.0006151566188349787","-0.6448852027175219","-1.0115779251670662","-1.1612574095194446"
"0.05675863519304443","0.0919698610011772","0.06684059145199386","-0.0006091497776700667","-0.0024473099562792168","-0.0008817451877746336","-0.6479223596822062","-1.0128971916303144","-1.1615515915624828"
"0.056902095273680314","0.09197089971858566","0.0665369993834725","0.0007464016583271635","-0.004348784466529427","0.000603750265898751","-0.647142172572012","-1.0115779251670662","-1.1604565806245077"
"0.05675670955437818","0.09228147622371577","0.06683852619982705","-0.00012488672915685167","-0.008767050159887402","0.0018589344656044767","-0.648200997935847","-1.011432805856109","-1.1594106000270392"
"0.056901132454347185","0.09220461113548958","0.0665369993834725","0.0009251842589412868","-0.008352531109949912","-0.0007084656984881125","-0.6501793295366964","-1.0124090630389126","-1.1605382978586851"
"0.05661324947374229","0.09220357241808112","0.06636764870579392","0.001958503404009346","-0.010248979696384481","-0.0015780180936052074","-0.6471700363973761","-1.0132270082461265","-1.1619438342865336"
"0.05661324947374229","0.09220357241808112","0.06636764870579392","0.0012625317185815067","-0.005400399192525577","0.00016933810088072144","-0.6502629210127886","-1.0130423109412718","-1.1618294301586853"
"0.056901132454347185","0.09212670732985495","0.0665369993834725","0.0005002265857529505","-0.0018205054575573419","-0.0004485464645583306","-0.6476994490792936","-1.0150080179715117","-1.1593942565802038"
"0.0567576723737113","0.09212462989503803","0.06715037927701567","-0.001144342279993121","-0.0032866392334909835","0.001468691582169286","-0.6450245218443423","-1.0135172468680413","-1.1586751449194443"
"0.056973343904331696","0.0921277460472634","0.06638417072312841","-0.00017639383272634868","-0.003715996725169885","-0.0015328780585809874","-0.6451359771457985","-1.0129631549534768","-1.1601787420283052"
"0.05675670955437818","0.09228147622371577","0.06683852619982705","-0.000632544592936212","-0.008344633229668191","0.0012194506360946958","-0.6480895426343907","-1.0131610449229642","-1.1585443973447604"
"0.05668546092372679","0.09212462989503803","0.06683646094766024","0.00020514383352770123","-0.006027682350658466","0.003590758605028309","-0.6482845894119391","-1.012580567679135","-1.1609141971359005"
"0.05675670955437818","0.09228147622371577","0.06652873837480526","0.0016261622422861612","-0.000769848050383216","-0.0019388956854386205","-0.6478387682061141","-1.0127652649839896","-1.1602604592624823"
"0.056902095273680314","0.09212566861244649","0.0668467872084943","0.0016279914665250782","-0.0032998023672938487","-0.0023859276451946043","-0.6456932536530802","-1.0130423109412718","-1.1627773500751413"
"0.05675670955437818","0.09228147622371577","0.06652873837480526","-0.00019834452359334927","-0.0026581594268305616","0.0010454430817271388","-0.6439656964805073","-1.0119737051060407","-1.1592961958991912"
"0.05675863519304443","0.0919698610011772","0.06653080362697207","-0.0005942271588789041","-0.005398005895470511","-0.0028302900329867896","-0.6488140020938566","-1.0110106405878696","-1.162221672882736"
"0.05661324947374229","0.09220357241808112","0.06652460787047164","0.0014691377826191526","-0.007088870264874882","-0.004125517812149484","-0.6470028534451917","-1.0144803113862124","-1.1598028427510898"
"0.056901132454347185","0.09212670732985495","0.0665369993834725","0.00041463814636363676","-0.0018202661278518349","-0.0004485464645583306","-0.6463619854618181","-1.0112481085512541","-1.1602277723688115"
"0.0567576723737113","0.09212566861244649","0.06668569753948296","0.0012733145140951209","-0.005402792489580643","-0.0011159394555078173","-0.6485910914909441","-1.0132797789046566","-1.1600643379004572"
"0.056901132454347185","0.09220357241808112","0.0668467872084943","0.0008967831457581061","-0.0062435577450254505","0.002733097939568132","-0.647866632031478","-1.0129235769595797","-1.160685388880204"
"0.05668546092372679","0.09212462989503803","0.06683646094766024","0.0015982425039026958","-0.0037162360548753915","0.0010376770541960902","-0.647086444921284","-1.0121056317523656","-1.1600316510067863"
"0.056902095273680314","0.09197089971858566","0.0665369993834725","0.000748712257365795","-0.00624499372325849","0.0001620574500703635","-0.6454982068755315","-1.012633338337665","-1.159541347601723"
"0.05675670955437818","0.09228147622371577","0.06668363228731615","0.0021269845839095693","-0.007933464795607794","-0.0011329276407319863","-0.6459718919067209","-1.0127652649839896","-1.1608488233485585"
"0.05668449810439367","0.09228147622371577","0.06652667312263845","-0.0007821558806876108","-0.0045526933756210785","-0.0008953357359539688","-0.6474486746510169","-1.0137811001606911","-1.1604565806245077"
"0.05675670955437818","0.09228147622371577","0.06652873837480526","0.0004930059637572266","0.0015526074118531617","0.0006469487940402089","-0.6476158576032014","-1.0120396684292032","-1.1621889859890653"
"0.0567576723737113","0.09212566861244649","0.06653080362697207","0.0005817714768246589","-0.0049789395811283945","-0.0002565799715252239","-0.6486746829670362","-1.013398512886349","-1.1615679350093182"
"0.056902095273680314","0.09212566861244649","0.0668467872084943","0.0002445202921443821","-0.004979657570244915","-0.000898976061359148","-0.6485632276655799","-1.0144539260569476","-1.1604892675181788"
"0.056901132454347185","0.09212670732985495","0.0665369993834725","0.0005697371068317858","-0.0037157573954643783","0.001251242811299926","-0.6476715852539295","-1.0103378146916129","-1.1621889859890653"
"0.056683535285060545","0.09243832255239348","0.06621688529761664","0.00023065669791259226","-0.006451056599699702","0.0005908877828004519","-0.648953321220677","-1.0134512835448788","-1.1600643379004572"
"0.056901132454347185","0.0921277460472634","0.0662272115584507","-0.0004486594194451105","-0.005187874414035686","0.00016982347760141205","-0.647476538476381","-1.0114196131914766","-1.1600316510067863"
"0.05661324947374229","0.09212670732985495","0.06590296696826121","0.001271966664655919","-0.003715996725169885","-0.0006759454582018465","-0.6479223596822062","-1.0142428434228279","-1.1619765211802042"
"0.05690016963501406","0.09228251494112423","0.06638004021879479","5.7939419774876984e-05","-0.0037140820875258326","0.0010376770541960902","-0.6482288617612111","-1.0139394121362806","-1.1609141971359005"
"0.056614212293075415","0.09212462989503803","0.06714418352051524","-0.0009661373291386556","-0.003707380855771647","0.0006093320981866923","-0.6474208108256528","-1.0142956140813577","-1.1602441158156471"
"0.05661324947374229","0.09228043750630727","0.06683233044332662","6.227179297231131e-05","-0.007081690373709684","0.00015793174794449403","-0.6498170998069634","-1.0134117055509815","-1.1611756922852674"
"0.05690016963501406","0.09228251494112423","0.06653493413130569","0.0015775433875149535","-0.009616431284730446","0.002923608302439167","-0.6482288617612111","-1.011432805856109","-1.1596230648359"
"0.0567576723737113","0.09212566861244649","0.06684059145199386","0.0012777431622524981","-0.00919521100303877","-0.001999325087164593","-0.6479502235075704","-1.0130555036059044","-1.1619765211802042"
"0.05690016963501406","0.09228251494112423","0.06653493413130569","0.0006041072675314315","-0.006667649983183206","-0.0030516218176216744","-0.6490090488714052","-1.014084531447238","-1.1611430053915968"
"0.0567576723737113","0.09228043750630727","0.06699548536450477","0.0002641603839727511","-0.004979418240539407","-0.003253538533428937","-0.6509316528215264","-1.0122375583986905","-1.1603421764966597"
"0.056901132454347185","0.09212670732985495","0.0665369993834725","8.451130871914089e-05","-0.005401595841053111","-0.0021869231897114847","-0.645637526002352","-1.012580567679135","-1.161486217775141"
"0.0567576723737113","0.09212566861244649","0.06684059145199386","0.0013448468093327586","-0.0041379349959780815","0.0006064198378625491","-0.6452195686218907","-1.0115911178316987","-1.1606200150928623"
"0.056542000843090905","0.09212566861244649","0.066520477366138","-0.0006074168283910931","-0.007922694958859996","-0.001562243350182765","-0.6463062578110897","-1.0132797789046566","-1.1606363585396977"
"0.0567576723737113","0.09212566861244649","0.06684059145199386","5.649529537573227e-05","-0.0053975272360594975","0.0010255426361788268","-0.6453867515740753","-1.0153510272519564","-1.159328882792862"
"0.05690016963501406","0.09243728383498502","0.0668447219563275","0.0012596434697832168","-0.002454011188033403","0.0006195250093211936","-0.6509595166468907","-1.0130686962705369","-1.1609795709232422"
"0.0567576723737113","0.09197089971858566","0.06622101580195026","0.002311736232040158","-0.0011937009588354665","-0.0019435067642851812","-0.6516839761063565","-1.0130818889351694","-1.1603585199434951"
"0.056901132454347185","0.09228147622371577","0.0668447219563275","0.00023335239679099585","-0.0020294402904646332","0.000621709204564301","-0.6517397037570847","-1.0123826777096478","-1.161012257816913"
"0.056686423743059926","0.09212462989503803","0.06714624877268205","0.00022054782711857884","-0.004343279883302773","0.0018897558873683259","-0.6468635343183713","-1.0123694850450151","-1.162368763904255"
"0.05675670955437818","0.09220357241808112","0.06653080362697207","0.0014437211931942044","-0.006456800512631862","-0.00112297741795783","-0.6449130665428859","-1.0115647325024337","-1.1616823391371662"
"0.05690016963501406","0.09228251494112423","0.06653493413130569","-0.0011260500376039538","-0.004132669742456936","-0.0006786150301656445","-0.6502350571874246","-1.0135568248619387","-1.1618294301586853"
"0.05668449810439367","0.09228147622371577","0.06652667312263845","-0.0004448084210473913","-0.006449381291761156","-0.00048058132812390576","-0.6516561122809925","-1.0134248982156138","-1.1601460551346343"
"0.05675863519304443","0.09196882228376874","0.06699548536450477","0.00020562520832741613","-0.00034025122899880795","0.004058661763773985","-0.6470028534451917","-1.0144803113862124","-1.1600153075599509"
"0.0567576723737113","0.09212566861244649","0.06684059145199386","0.0004291756653150275","-0.004136738347450548","-0.002391994854203236","-0.6456096621769879","-1.0144275407276826","-1.1621236122017233"
"0.056903058093013444","0.09181509210731638","0.0665369993834725","0.0003876811575796009","-0.004557240640025704","0.002528754340157416","-0.6509037889961624","-1.0137547148314259","-1.1605546413055206"
"0.056902095273680314","0.09212566861244649","0.0668467872084943","-9.388619205521054e-05","-0.0045577192994367185","-0.0013244087570444027","-0.6498449636323276","-1.01255418234987","-1.1611756922852674"
"0.05668449810439367","0.09243728383498502","0.06652667312263845","0.00015113358099968656","-0.0024482672751012435","0.00019118005331179573","-0.647114308746648","-1.0117494298072887","-1.1604565806245077"
"0.05704459253498308","0.0921277460472634","0.06638830122746203","0.0009356782295750722","-0.007091024232224442","-0.00177071265171935","-0.6475879937778373","-1.0123826777096478","-1.1617477129245082"
"0.05690016963501406","0.09228251494112423","0.06653493413130569","0.00024480911702421103","-0.00203039760928666","-0.0006633256634638925","-0.6443836538609685","-1.0129631549534768","-1.1603748633903306"
"0.05661324947374229","0.09212566861244649","0.06621482004544983","0.00026050193549491765","-0.0070845623301757634","-0.0028412110092023274","-0.6466963513661869","-1.0139394121362806","-1.160865166795394"
"0.056973343904331696","0.0921277460472634","0.06622927681061751","0.0014521933896691872","-0.005828081376265933","-0.001975784316211102","-0.6489811850460411","-1.0124354483681777","-1.159868216538432"
"0.056901132454347185","0.09212670732985495","0.0663821054709616","0.0017921402732278674","-0.003721261978691031","-0.0015323926818602972","-0.648925457395313","-1.0134644762095113","-1.1594269434738749"
"0.05675574673504504","0.09251518764061967","0.06652873837480526","0.00026319763437332124","-0.006454167885871288","-0.0032632460678427475","-0.6489811850460411","-1.013266586240024","-1.1602931461561534"
"0.056901132454347185","0.09228147622371577","0.0668447219563275","0.0007558366044015761","-0.004981093548477954","-0.0006839541740932408","-0.6482288617612111","-1.012936769624212","-1.1602604592624823"
"0.0567576723737113","0.09212670732985495","0.06637590971446117","-0.00043431445041360576","-0.0028697268864984263","-0.0013125170273874842","-0.6489811850460411","-1.0127652649839896","-1.1600806813472926"
"0.056902095273680314","0.09197193843599412","0.0662272115584507","0.00039316883029635115","0.0004985993888019447","0.002350863772024335","-0.6481731341104829","-1.013292971569289","-1.1598355296447609"
"0.05661228665440916","0.09228147622371577","0.06636764870579392","0.0005849485505027774","-0.005398723884587031","-0.000687109122777729","-0.6482845894119391","-1.0130818889351694","-1.161126661944761"
