"AccX","AccY","AccZ","GyroX","GyroY","GyroZ","MagX","MagY","MagZ"
"0.05701089385832364","0.09241339333459041","0.06656591291380787","0.0007308051148163998","-0.005082569343612767","-0.0003670031754823207","-0.6472814916988324","-1.013372127557084","-1.163022501777673"
"0.056723010877718735","0.09249025842281659","0.066553521400807","0.0009196003112645937","-0.008451852937735165","-0.002745834483586637","-0.6479780873329344","-1.0132270082461265","-1.1619765211802042"
"0.056723973697051865","0.09225758572332113","0.0662437335757852","0.0012581030704241292","-0.007610130363468332","-0.0020985846265458076","-0.6491762318235896","-1.013701944172896","-1.1626466025004576"
"0.056723973697051865","0.0922555082885042","0.06686330922582881","5.822824465470598e-05","-0.006131312113142839","-0.0018738552048660887","-0.6505694230917934","-1.0124090630389126","-1.1601133682409634"
"0.056724936516384994","0.0922555082885042","0.0671730970508506","0.0007477495077663652","-0.003816275871777165","-0.0022854546640116635","-0.6468635343183713","-1.0130555036059044","-1.1621562990953942"
"0.05686743377768775","0.09241235461718196","0.06686950498232924","0.0009026559183146282","-0.003396012908907515","-0.00035462606910471184","-0.6486189553163082","-1.0134512835448788","-1.1600479944536217"
"0.05686839659702088","0.09225654700591267","0.06702439889484015","0.0010605468526211238","-0.004238214142585362","0.0011376646586583406","-0.6513774740273517","-1.0137283295021609","-1.1612083791789383"
"0.05686839659702088","0.09217968191768648","0.06640482324479653","0.00022459137543618418","-0.008872115900604815","-0.0014656533827653482","-0.6526313461687352","-1.013015925612007","-1.1623197335637487"
"0.05686743377768775","0.09225758572332113","0.06655971715730744","0.0005516374143625046","-0.003815797212366152","0.0007119892746127406","-0.6517675675824487","-1.0123826777096478","-1.1607834495612166"
"0.05686839659702088","0.09217760448286957","0.06717929280735103","-0.0005330925593151085","-0.0050780220792081415","-0.0027235071544348725","-0.6486468191416721","-1.0131082742644342","-1.160276802709318"
"0.057011856677656764","0.09217968191768648","0.06656591291380787","0.0008369001206735693","-0.005505943592654003","-0.0027266621031193606","-0.6509595166468907","-1.012910384294947","-1.1603421764966597"
"0.05686647095835463","0.09241339333459041","0.06640482324479653","0.0010806683192492075","-0.005082569343612767","-0.0012234503991407708","-0.6502629210127886","-1.0117230444780236","-1.1607507626675457"
"0.057011856677656764","0.09217968191768648","0.06656591291380787","-0.00033072259351495375","-0.005077064760386114","0.00370045374390437","-0.6503186486635169","-1.0126993016608272","-1.1620418949675462"
"0.05686839659702088","0.09225654700591267","0.06686950498232924","0.00039018430653811853","-0.005079936716852194","-0.0005815396860275371","-0.6472257640481044","-1.0130555036059044","-1.1621726425422296"
"0.056724936516384994","0.09217760448286957","0.0670182031383397","0.0005586654864383425","-0.006342640243105197","-0.00037646802153578615","-0.6487304106177645","-1.0125673750145023","-1.161126661944761"
"0.05686743377768775","0.09241339333459041","0.06655971715730744","-0.00019795942375357744","-0.005289589538876005","-0.0018675453074971122","-0.646055483382813","-1.0117362371426561","-1.16127375296628"
"0.056724936516384994","0.09217760448286957","0.06686330922582881","-0.00046570008735501904","-0.005496849063844751","-0.0005849373230723709","-0.6481731341104829","-1.010971062593972","-1.1634801182890655"
"0.05694060804700539","0.09225654700591267","0.06718342331168467","0.0007263764666590226","-0.0027639431566644935","0.0002916530344947365","-0.6518511590585411","-1.0120264757645707","-1.1616496522434954"
"0.05686839659702088","0.09225654700591267","0.06686950498232924","0.00048597789168138873","-0.001078104711075762","-0.0014098350598859368","-0.6499285551084197","-1.0101926953806555","-1.1607507626675457"
"0.056723010877718735","0.0924113158997735","0.06686330922582881","0.0009052553422330889","-0.007607976396118772","-0.001026872827261104","-0.6507644698693421","-1.0116702738194938","-1.1624831680321033"
"0.05679618514703637","0.09225654700591267","0.0668653744779956","0.0009034261179941722","-0.0055018749876603905","-0.0005844519463516803","-0.6484796361894878","-1.0116702738194938","-1.162842723862483"
"0.05686839659702088","0.09225654700591267","0.06686950498232924","0.00011753361997958482","-0.006763381865385859","0.0011197057199927906","-0.6528263929462836","-1.011432805856109","-1.1642482602903315"
"0.05686839659702088","0.0922555082885042","0.06717929280735103","-0.0006414981642109096","-0.008447066343625033","-0.00039127201151684733","-0.6531607588506525","-1.0101135393928606","-1.1629734714371665"
"0.056724936516384994","0.09209970067723493","0.06686330922582881","-0.00010977156044580293","-0.0021280441291333663","-0.0018461887317867288","-0.6508201975200703","-1.0119737051060407","-1.1633330272675464"
"0.05686743377768775","0.09241235461718196","0.06686950498232924","0.0009013080688754264","-0.0027639431566644935","-0.00013596385643362547","-0.6499842827591479","-1.01250141169134","-1.1628917542029893"
"0.057011856677656764","0.09225654700591267","0.06687570073882967","0.000736581612412979","-0.004661588391626598","-0.001006972381712792","-0.6491205041728615","-1.0127256869900925","-1.1615679350093182"
"0.05665272506640048","0.0922555082885042","0.06685917872149517","0.0004746174464081165","-0.006762903205974846","-0.0005934314156844553","-0.6491205041728615","-1.0130555036059044","-1.1615679350093182"
"0.05701089385832364","0.09241235461718196","0.06687570073882967","0.0005545256631607941","-0.0038174725203046983","0.00028461507204472386","-0.6521576611375459","-1.0135568248619387","-1.161224722625774"
"0.05686839659702088","0.09225654700591267","0.06686950498232924","0.0005662712082738383","-0.0033952949197909948","-0.000997992912380017","-0.6487304106177645","-1.01255418234987","-1.1613554702004572"
"0.05686839659702088","0.09225654700591267","0.06686950498232924","0.0008154308046062837","-0.006345033540160263","-0.00037622533317544063","-0.6495663253786869","-1.0125277970206052","-1.1624504811384324"
"0.05701089385832364","0.09241235461718196","0.06687570073882967","5.601392057601728e-05","-0.0033957735792020088","-0.001425609803308379","-0.6468356704930073","-1.0115647325024337","-1.1610776316042548"
"0.05665079942773423","0.09241235461718196","0.06654939089647338","0.000632700930634498","-0.0044452343378486","0.0011369365935773046","-0.6448016112414297","-1.0141241094411355","-1.1607997930080522"
"0.05686839659702088","0.09225654700591267","0.06686950498232924","0.0011731885557544164","-0.008032786623393047","-0.0023155480206944767","-0.6480616788090265","-1.0131874302522292","-1.1630388452245084"
"0.05686839659702088","0.09225654700591267","0.06686950498232924","-0.0004733058091905148","-0.0054980457123722844","0.0002717525889464246","-0.6472814916988324","-1.011868163788981","-1.1621726425422296"
"0.056723973697051865","0.09233341209413885","0.0670182031383397","0.0013904811403457338","-0.00592213795053004","0.002411293173750307","-0.6515446569795362","-1.011657081154861","-1.1627119762877995"
"0.056723973697051865","0.0922555082885042","0.06686330922582881","0.0003990416028528732","-0.002972160000455266","-0.0014231829197049264","-0.6515725208049004","-1.0111425672341945","-1.1627119762877995"
"0.05686743377768775","0.09241235461718196","0.06686950498232924","0.0004845337672822439","-0.002552615026702136","-0.0014195425942997472","-0.651488929328808","-1.0143483847398875","-1.1631369059055212"
"0.05693964522767226","0.09225758572332113","0.06656178240947425","0.0005815789269047729","-0.0031868387462947166","-0.0027099166062555372","-0.6487582744431286","-1.0132138155814943","-1.1622053294359005"
"0.05665176224706736","0.09225654700591267","0.06654939089647338","0.0005569325371593687","-0.006763142535680353","-0.0001650864596750575","-0.6487582744431286","-1.0120528610938355","-1.1613554702004572"
"0.05686839659702088","0.09217968191768648","0.06655971715730744","0.0002319082723918511","-0.003395055590085489","-0.0018551682011195038","-0.6504579677903373","-1.0107995579537499","-1.1631205624586856"
"0.05686743377768775","0.09233445081154731","0.06686950498232924","0.0007162675958650091","-0.006975906643875751","0.0011184922781910644","-0.6456932536530802","-1.0135568248619387","-1.162548541819445"
"0.05686839659702088","0.09217864320027802","0.06686950498232924","0.00022507275023589916","-0.004658477105455011","-0.0012215088922580089","-0.6488418659192208","-1.0121847877401606","-1.1626466025004576"
"0.05693964522767226","0.09225654700591267","0.06687157023449605","0.0009150753881472733","-0.004661827721332104","-0.0018634196053712423","-0.6517954314078128","-1.0135568248619387","-1.1614208439877993"
"0.056723973697051865","0.09217864320027802","0.066553521400807","0.001432553297840818","-2.648998507961128e-05","-0.0018308993650849768","-0.6521576611375459","-1.0135568248619387","-1.1614371874346345"
"0.05686743377768775","0.09225758572332113","0.06655971715730744","-0.0009870289954462832","-0.006339289627228103","0.00026568537993779297","-0.6516282484556284","-1.012118824416998","-1.1640031085877998"
"0.05665176224706736","0.09233341209413885","0.06701407263400608","-0.00014934056898236996","-0.010130032832747684","0.0019528548610580952","-0.6492319594743179","-1.0128444209717846","-1.163071532118179"
"0.056723973697051865","0.09233341209413885","0.06686330922582881","4.551994994223193e-05","-0.00549828504207779","-0.0003699154358064637","-0.6484517723641238","-1.0121847877401606","-1.1626302590536222"
"0.05686839659702088","0.09210073939464339","0.06671461106981834","0.0007568956289609488","-0.002765379134897534","-0.0031358346786614826","-0.6473093555241966","-1.0125146043559725","-1.163022501777673"
"0.056723010877718735","0.0924113158997735","0.06686330922582881","-0.0001380763986690407","-0.004654169170755892","0.001135237775054888","-0.650736606043978","-1.0126729163315624","-1.162695632840964"
"0.057011856677656764","0.09225758572332113","0.06656591291380787","0.001998072412545913","-0.0055069009114760295","0.0015567874569746183","-0.6546932692456767","-1.0116043104963313","-1.1636598962042555"
"0.05657955079708285","0.0924113158997735","0.06685711346932836","0.00023768476998843022","-0.004234384867297256","-0.002716226503624514","-0.6522133887882741","-1.012686108996195","-1.1618784604991916"
"0.05686647095835463","0.09241339333459041","0.06624992933228563","-0.00045799809055958006","-0.01055556104913848","-0.0019049193149902827","-0.6499285551084197","-1.0125409896852375","-1.16181308671185"
"0.05686839659702088","0.09210177811205185","0.06655971715730744","-0.0001065944867676845","-0.0033943376009689685","-0.002283755845489247","-0.6499006912830556","-1.010205888045288","-1.1605219544118497"
"0.056723973697051865","0.0922555082885042","0.06686330922582881","-0.00045924966503883895","-0.0038119679370780452","-0.0012151989948890323","-0.6503465124888808","-1.0123430997157503","-1.1624668245852676"
"0.05686839659702088","0.09210177811205185","0.06655971715730744","0.0005784018532266545","-0.002975031956921345","-0.0022808435851651033","-0.6499842827591479","-1.010997447923237","-1.1622543597764068"
"0.05665176224706736","0.09248921970540813","0.06701407263400608","0.0008952427463990184","-0.005499481690605324","0.0002734514074688413","-0.6469192619690995","-1.0120132830999382","-1.1628100369688121"
"0.056723973697051865","0.09225654700591267","0.066553521400807","0.0015944877804649192","-0.007610609022879344","-0.0014559458483515376","-0.6531050311999245","-1.0109578699293396","-1.1627610066283058"
"0.05686839659702088","0.09217864320027802","0.06686950498232924","0.0007327306140152595","-0.005081133365379728","-0.0005820250627482282","-0.6537737630086622","-1.0136887515082635","-1.1623360770105842"
"0.05686839659702088","0.09210073939464339","0.06686950498232924","0.00021323093016291193","-0.003393619611852449","0.00028607120220679546","-0.6491483679982257","-1.0127124943254597","-1.1617803998181788"
"0.057012819496989886","0.09194597050078256","0.06656591291380787","-0.00010620938692791259","-0.003396012908907515","-0.002284726598930628","-0.6491205041728615","-1.0117230444780236","-1.1609305405827357"
"0.056723973697051865","0.09225654700591267","0.06670841531331789","0.0011606728109618285","-0.002552615026702136","-0.0003492869251771159","-0.6498449636323276","-1.0130686962705369","-1.161159348838432"
"0.05715627957762577","0.09210281682946031","0.06626232084528651","-0.0008135415176290239","-0.004236778164352321","0.00027951861647747316","-0.6505694230917934","-1.0134248982156138","-1.1605382978586851"
"0.05657955079708285","0.09225654700591267","0.06639243173179567","0.00022853864879384658","-0.00044196635383912794","-0.0011911728472148502","-0.6505972869171576","-1.0137415221667936","-1.1609632274764068"
"0.056723973697051865","0.09225654700591267","0.066553521400807","0.0004931985136771126","-0.007186516784721589","-0.002738068456055589","-0.6526870738194632","-1.0116438884902286","-1.1625321983726096"
"0.056723973697051865","0.0922555082885042","0.06686330922582881","-0.0006536288091637259","-0.002756284606088282","0.0015762025258022395","-0.6511266995990751","-1.0099948054111683","-1.1614208439877993"
"0.05665176224706736","0.09225654700591267","0.06654939089647338","0.0005352706711721972","-0.006129397475498785","0.002409108978507199","-0.6480338149836626","-1.0120264757645707","-1.1621889859890653"
"0.05686743377768775","0.09241339333459041","0.06655971715730744","0.0015930436560657743","-0.003820105147065271","-0.0010001771076231245","-0.6502350571874246","-1.0130686962705369","-1.1609632274764068"
"0.057011856677656764","0.09225758572332113","0.06672080682631877","0.0014123355562527912","-0.0019243745497472212","0.00029723486678267776","-0.651098835773711","-1.0133457422278191","-1.162695632840964"
"0.05665176224706736","0.09225654700591267","0.06654939089647338","0.0015692637409598568","-0.0067652965030299125","0.0015480506760021885","-0.6482845894119391","-1.012250751063323","-1.1604729240713434"
"0.056723973697051865","0.0922555082885042","0.0670182031383397","-0.00011246725932420654","-0.005077304090091621","-0.0018663318656953855","-0.6495105977279586","-1.0122111730694254","-1.1613718136472928"
"0.05665176224706736","0.09241027718236504","0.06716896654651698","0.0004723068473694849","-0.008869243944138737","-0.0006072646522241356","-0.6468078066676433","-1.0125673750145023","-1.1615025612219765"
"0.05686839659702088","0.09210177811205185","0.06655971715730744","0.00012311756765627787","-0.005289110879464993","0.0007008256100368583","-0.6500400104098759","-1.013147852258332","-1.1639540782472935"
"0.05686743377768775","0.09225758572332113","0.06655971715730744","0.000575321054508479","-0.004238932131701881","-0.002074801167231971","-0.6469471257944637","-1.0138470634838535","-1.163872361013116"
"0.05686743377768775","0.09241339333459041","0.06655971715730744","-0.00013066322675343072","-0.005077782749502635","0.0002753929143516037","-0.6483681808880314","-1.0122111730694254","-1.1615515915624828"
"0.056723973697051865","0.09233445081154731","0.06670841531331789","0.00012639091629433946","-0.004655605148988932","0.0002783051746757469","-0.6503186486635169","-1.011868163788981","-1.1616169653498245"
"0.05657955079708285","0.09225654700591267","0.06639243173179567","-0.0006257090707802601","-0.005916872697008894","-0.001872641763064363","-0.6482288617612111","-1.0129499622888447","-1.1598355296447609"
"0.05686743377768775","0.09225758572332113","0.06655971715730744","3.974345234565281e-05","-0.0067638605247968735","0.00026277311961364955","-0.646724215191551","-1.0126069530084","-1.1602277723688115"
"0.05686839659702088","0.09217864320027802","0.06686950498232924","0.000574935954668707","-0.006977581951814297","-0.0023085100582444637","-0.6448573388921578","-1.0131082742644342","-1.1610286012637483"
"0.05686647095835463","0.09241339333459041","0.06640482324479653","0.0007370629872126939","-0.004238692801996374","-0.0010033320563076133","-0.6487025467924004","-1.0130818889351694","-1.161126661944761"
"0.05686839659702088","0.0922555082885042","0.06717929280735103","-0.00012738987811536937","-0.005077782749502635","-0.00015319473001813947","-0.6502907848381527","-1.0123826777096478","-1.1613881570941285"
"0.05657858797774972","0.09248921970540813","0.06654732564430656","5.5532545776302376e-05","-0.009710966518405568","-0.001898124040900616","-0.6480895426343907","-1.0123430997157503","-1.1630551886713438"
"0.05686839659702088","0.0922555082885042","0.06717929280735103","0.00029477582123462034","-0.008028239358988422","0.0002542790270015653","-0.6510709719483467","-1.0147045866849647","-1.162695632840964"
"0.05686839659702088","0.09225654700591267","0.06686950498232924","-0.0008322188598579634","-0.008023931424289303","0.001967173474318466","-0.653662307707206","-1.0137283295021609","-1.160832479901723"
"0.05686839659702088","0.09210177811205185","0.06655971715730744","-0.000465218712555304","-0.0029707240222222263","-0.00035365531566333106","-0.6511266995990751","-1.013015925612007","-1.162695632840964"
"0.056723010877718735","0.09248921970540813","0.0671730970508506","-0.0003022252053718302","-0.004232470229653202","0.00028218818844127127","-0.6495663253786869","-1.0123694850450151","-1.1620092080738753"
"0.057012819496989886","0.09194597050078256","0.06656591291380787","-0.0006371657910134753","-0.004657280456927478","-0.0003665177987616299","-0.6513774740273517","-1.0144011553984176","-1.16163330879666"
"0.056723973697051865","0.0922555082885042","0.06686330922582881","0.0015917920815865156","-0.005503550295598937","-0.0010125542140007333","-0.6471979002227403","-1.0123958703742801","-1.161518904668812"
"0.056724936516384994","0.0919449317833741","0.066553521400807","0.0001392917609266994","-0.0038138825747220987","-0.001002603991226577","-0.6502907848381527","-1.0120396684292032","-1.1613881570941285"
"0.05686839659702088","0.09217864320027802","0.06686950498232924","-0.00013412912531137822","-0.005077543419797128","0.0007027671169196206","-0.6494548700772304","-1.0132402009107593","-1.1611430053915968"
"0.056724936516384994","0.0922555082885042","0.0671730970508506","-0.00010929018564608803","-0.005498763701488804","-0.0022975890820289267","-0.6495105977279586","-1.0142164580935626","-1.162434137691597"
"0.05686839659702088","0.09225654700591267","0.06686950498232924","-0.0008790084903902538","-0.010554364400610947","-0.002762094603729769","-0.6518511590585411","-1.0118549711243483","-1.1616496522434954"
"0.057011856677656764","0.09210177811205185","0.06656591291380787","6.31382676117982e-05","-0.0055030716361879235","-0.0022988025238306533","-0.6507087422186139","-1.0121847877401606","-1.1620418949675462"
"0.05686839659702088","0.09217968191768648","0.06640482324479653","-0.0004709952101518832","-0.003391704974208396","0.00028607120220679546","-0.6531050311999245","-1.0114591911853739","-1.1629734714371665"
"0.056723973697051865","0.0922555082885042","0.06686330922582881","0.00020398853400838542","-0.005497806382666778","0.0011286851893255658","-0.6503186486635169","-1.0130291182766393","-1.1624668245852676"
"0.05679618514703637","0.09225654700591267","0.0668653744779956","0.00038902900701880274","-0.006764339184207886","-0.0005934314156844553","-0.6494827339025945","-1.0142428434228279","-1.1617967432650145"
"0.05686839659702088","0.09225654700591267","0.06686950498232924","-0.000135958349550295","-0.0021278047994278603","0.001152468648639402","-0.6525477546926429","-1.0130555036059044","-1.1610286012637483"
"0.056723973697051865","0.0922555082885042","0.06686330922582881","0.0005525038890019915","-0.007184841476783043","0.000260346236010197","-0.6534672609296576","-1.0106280533135275","-1.1623524204574196"
"0.05715531675829265","0.09225758572332113","0.0668818964953301","0.0010942430886011685","-0.003822977103531351","-0.0027142849967417516","-0.6530493035491963","-1.01265972366693","-1.162548541819445"
"0.05686839659702088","0.09225654700591267","0.06702439889484015","0.0002077432574461618","-0.005078500738619154","0.000703252493640311","-0.6514332016780798","-1.0127124943254597","-1.1614208439877993"
"0.05686839659702088","0.09217968191768648","0.06655971715730744","-0.00011410393364323734","-0.003393619611852449","-0.0014268232451101056","-0.6516839761063565","-1.0122639437279555","-1.1594923172612166"
"0.056869359416354","0.09210073939464339","0.06702439889484015","0.0002103426813646224","-0.007185559465899563","0.000259375482568816","-0.6504301039649731","-1.010971062593972","-1.1631205624586856"
"0.056724936516384994","0.09210073939464339","0.066553521400807","0.0007129942472269476","-0.007816911229026063","0.0015397992717504493","-0.6495663253786869","-1.0133589348924514","-1.162662945947293"
"0.05686839659702088","0.0922555082885042","0.06717929280735103","0.000813312755487538","-0.008662223748875496","-0.00039248545331857363","-0.649649916854779","-1.0119868977706732","-1.1630878755650147"
"0.05686839659702088","0.09210073939464339","0.06686950498232924","0.00022430255055635526","-0.0033943376009689685","-0.000998720977461053","-0.650012146584512","-1.0106544386427925","-1.1624668245852676"
"0.056723973697051865","0.09217864320027802","0.066553521400807","-0.00010072171421116238","-0.005288871549759486","-0.0031533082406063418","-0.6497892359815993","-1.0135964028558362","-1.1603094896029889"
"0.05686743377768775","0.09241235461718196","0.06686950498232924","-0.0007917833766819092","-0.0076053437693582","-0.002740495339659041","-0.6491205041728615","-1.0135568248619387","-1.1617803998181788"
"0.05686839659702088","0.09217760448286957","0.06717929280735103","0.0005788832280263694","-0.008663181067697524","-0.002962797877735306","-0.6498449636323276","-1.0137415221667936","-1.1613718136472928"
"0.056869359416354","0.0919449317833741","0.06686950498232924","7.247693872626774e-05","-0.007819543855786638","-0.0036005828887226707","-0.6531886226760166","-1.012936769624212","-1.1649019981637494"
"0.056723973697051865","0.09225654700591267","0.0663986274882961","-0.0001518437179408875","-0.0046532118519338654","0.0028474041572907533","-0.6503465124888808","-1.0120264757645707","-1.1620418949675462"
"0.05694060804700539","0.09225654700591267","0.06718342331168467","0.0007013449770738464","-0.006975667314170244","0.0028313867255079657","-0.6488140020938566","-1.0128576136364171","-1.1626302590536222"
"0.056723973697051865","0.0922555082885042","0.06686330922582881","4.965977321978034e-05","-0.0025490250811195363","-0.0005635807473619874","-0.648925457395313","-1.0113008792097842","-1.1637252699915972"
"0.056724936516384994","0.09217760448286957","0.06686330922582881","0.0003305901063334108","-0.005079697387146688","-0.0035799543780933225","-0.6479223596822062","-1.0154301832397514","-1.161960177733369"
"0.05701089385832364","0.09241235461718196","0.06687570073882967","0.00023335239679099585","-0.0025540510049351763","-0.002062181372494017","-0.6480059511582984","-1.0140449534533407","-1.1628263804156476"
"0.056723973697051865","0.0922555082885042","0.06686330922582881","0.0016120098231745424","-0.0029769465945653985","-0.003136077367021828","-0.6510431081229828","-1.0145594673740073","-1.1622707032232424"
"0.05701089385832364","0.09233548952895577","0.06641101900129698","0.0009022708184748562","-0.002555247653462709","-0.0001352357913525896","-0.650402240139609","-1.013675558843631","-1.1635454920764072"
"0.05665176224706736","0.0924113158997735","0.06685917872149517","0.0003830599595023377","-0.004234145537591749","0.00028194550008092575","-0.6495384615533225","-1.0130423109412718","-1.1620092080738753"
"0.056724936516384994","0.09217760448286957","0.06686330922582881","0.001162502035200745","-0.002552615026702136","-0.000563823435722333","-0.6519626143599974","-1.0113008792097842","-1.1629407845434958"
"0.056723973697051865","0.09225654700591267","0.06670841531331789","-0.0006120380264683562","-0.006762185216858327","-0.0035916034193898953","-0.6527428014701915","-1.0113008792097842","-1.1629734714371665"
"0.05686839659702088","0.0922555082885042","0.06717929280735103","0.001426102875524638","-0.007611805671406879","-0.0018840481160005906","-0.6465013045886384","-1.0125409896852375","-1.1623524204574196"
"0.056723973697051865","0.0924113158997735","0.0671730970508506","0.0008302571484375034","-0.007608455055529786","-0.0023114223185686073","-0.646389849287182","-1.0145990453679048","-1.1616986825840017"
"0.056724936516384994","0.09217760448286957","0.0670182031383397","0.0009007304191157685","-0.006765057173324406","-0.0003793802818599291","-0.646389849287182","-1.014084531447238","-1.1617150260308373"
"0.057011856677656764","0.09210177811205185","0.06641101900129698","0.0010915473897227651","-0.0038210624658872984","-0.002286910794173735","-0.6553062734036865","-1.0130027329473745","-1.1621726425422296"
"0.05686743377768775","0.09241235461718196","0.06686950498232924","0.000245194216863983","0.001239085497639471","-0.0031059840103390144","-0.6521855249629098","-1.0126993016608272","-1.1614371874346345"
"0.056724936516384994","0.09209970067723493","0.06686330922582881","0.0017590216870074806","-0.003818429839126724","-0.00035899445959092685","-0.6503186486635169","-1.0123562923803828","-1.1620418949675462"
"0.05686839659702088","0.0922555082885042","0.06717929280735103","-0.0009846221214477085","-0.006971120049765618","-0.00016678527819747439","-0.6507087422186139","-1.013015925612007","-1.1624668245852676"
