"AccX","AccY","AccZ","GyroX","GyroY","GyroZ","MagX","MagY","MagZ"
"-0.04858603322845962","0.059057758835070036","-0.12883463131176232","-0.06913146943204272","0.07747051994445515","-0.16356799445142137","0.8317270979146909","0.4676389636827849","-0.02591430727726893"
"-0.033409583466504335","0.08598331464273166","-0.08586659909239054","-0.0509202556574824","-0.007980428651863965","-0.27281077002471216","0.7784140414195485","0.5279451065305668","-0.005422209216427613"
"0.0017111823285675851","0.06038930403889864","-0.006603502207140396","0.043881177818854006","-0.054487192228798526","-0.3254101653207709","0.7080910375630018","0.5916388241837001","-0.02205962145225074"
"0.02098281248034347","0.04814862926734887","0.00036340660261994845","0.14658818347197392","0.0363755025697534","-0.34545272246430475","0.625895318769635","0.6476800347225865","-0.03053085673734546"
"0.035475091480057126","0.047901683054626186","-0.017103551514814682","0.22587946276204351","0.023614234944961572","-0.364825223616806","0.5191550450588046","0.7166135263552197","-0.06988181746888242"
"0.029343805776227177","0.05779917501227314","-0.036932060407030835","0.20108049028231387","-0.012026139880120657","-0.38746917460787816","0.3914091987674475","0.7866437148672835","-0.12439965282442553"
"0.04875161380154277","0.05679595602308721","-0.051073808062944946","0.09690779337973238","-0.04577654279451057","-0.35520794939257344","0.2397752217017679","0.8574172201531831","-0.1933240635706311"
"0.0320329086043185","0.051086727957356345","-0.04092364905747486","-0.026560990552591236","-0.046579068555583435","-0.28638925760769623","0.1056363750598152","0.9077434213981497","-0.21113321269076374"
"0.03372610818857125","0.025219112174654425","0.028168829842820726","-0.06570410748352493","-0.07117877832448569","-0.14812123310520522","0.03251643354988282","0.9328334088953376","-0.19895903854697666"
"0.019114058288033527","-0.029514551530456175","0.014316430611044446","-0.067008834426126","-0.017580346276626743","-0.09123347946653783","-0.01999749790143471","0.9522936857447835","-0.18710713115641756"
"0.002938423887696536","-0.12086640989259405","-0.04667303982281106","0.0016502943672911852","0.024362942410420082","-0.09064619509792692","-0.05918316522896719","0.964064898917335","-0.17045720370687678"
"-0.023384923137255986","-0.2947698615816612","0.16908986300181772","0.10952582465411513","0.04100387599258785","-0.041456202344475154","-0.08058830033140629","0.9680983063294618","-0.18769534620114434"
"0.011328949734468335","-0.04653419675958258","-0.012661030255324685","0.10834934569584195","0.10643900900440496","0.09529434241361848","-0.06277922792617678","0.9627488626620188","-0.20984883888299594"
"-0.06223663452786156","-0.0429899573656194","0.07494933025959878","0.2604409858855084","0.07166447558229484","0.02389987656909538","-0.01877027015556173","0.9444096537337682","-0.2588349497753636"
"0.06946705755229386","0.08168701178274938","0.011136103126689624","0.03710104713719284","0.017732211812522172","0.21743372506137193","-0.02570553392875185","0.9373907937054143","-0.3281301237279528"
"0.026246169327516757","0.11719394848252454","-0.09365353720230489","-0.08844718625530443","0.13372013620774","0.11068789343113496","0.06351106917821478","0.9137021411097208","-0.2807131077554281"
"-0.054328473678929186","-0.019445880948080994","0.07890751649455792","0.0032345495696110113","0.08397778504064957","0.12899618800964324","0.15101526147698646","0.8813617686874105","-0.2571141078891948"
"0.012221489050198481","-0.021118380297884674","-0.062313720873609486","-0.053813687222267745","0.047303782361562234","0.2008991081061852","0.21597271146785543","0.8593547179735098","-0.22414277735020005"
"0.00011150248879391606","0.019358348932934644","-0.13173646615701187","-0.027541171575668676","0.06733210278533934","0.2184782241062168","0.28024519713544627","0.8335335992233683","-0.1972866931139635"
"-0.0037293698239344425","-0.011437106586718208","-0.04233907641364695","-0.061460146124592815","-0.007161124245687797","0.19236180647926399","0.3569612013425886","0.8022533671178408","-0.17768943283392996"
"0.00292037621770933","-0.003275253635536982","-0.05445997793272539","-0.042569741494255235","-0.007770695588072732","0.19420643120751843","0.4242874862847941","0.7697058408405272","-0.16001951546640553"
"0.005845739452905689","-0.021139426850105357","-0.0223602566517488","-0.035072469022678916","-0.028195371930139084","0.19311463409271828","0.5006324681501606","0.7295789205742621","-0.15920602657476207"
"0.006344511423460764","-0.016521813292887304","-0.030719211126841815","-0.0034220442781669734","-0.005091494201106389","0.200662617756409","0.5632210831896929","0.6931076565727645","-0.15910903366845075"
"0.007909736620531608","-0.03541039235921043","-0.014590019749576922","0.006672511606629362","0.016701749740612035","0.18655793914517285","0.6091707732095959","0.6631922028060834","-0.15624617853055167"
"0.008278893506633238","-0.03224920021566371","-0.029829871814556697","0.019430307010871492","0.04057174673662554","0.16798753442899594","0.6583740437650696","0.6258313957801591","-0.1465656607199947"
"0.0053797814277818795","-0.003289565291047047","-0.05061452485002775","-0.0009891276693508586","0.04568290192894169","0.1558043399096915","0.7000141665843481","0.5961718379520118","-0.1371870724403746"
"0.004180431722269517","0.00800836425136422","-0.029370588601639495","-0.05166357050542364","0.017140210560764275","0.15932016310969782","0.747048383449441","0.56139436135319","-0.1212082733264397"
"-0.002472595713917373","0.005349342843803013","-0.06273125106717056","-0.08916956265682478","0.0007697930586110107","0.16452886306351885","0.7834656533037246","0.5274698712161471","-0.10223051612542694"
"-0.0069123225307661336","-0.0030134345259116746","-0.06548277504273815","-0.06736347936237967","-0.004023834189580453","0.16817869746173172","0.8147171505532856","0.49648209161180085","-0.08580586252280285"
"-0.02988208433264446","-0.0019003525341337699","-0.042764957211079264","-0.11896235460793429","0.07046147838620928","0.1710757042464903","0.8485658041952765","0.4620458095976906","-0.05846950696015371"
"-0.04333580195945886","-0.02338579552379302","-0.08405451805233545","-0.1791224371338262","0.051788112699075906","0.21382724722728472","0.8822717569365841","0.41661818774751247","-0.0007117956534691272"
"-0.03872544262636757","-0.07381473774803307","0.007732814518973182","-0.09267544377942086","-0.08450197227113328","0.08974667295845154","0.910669236172487","0.37752703675626487","0.0004661988376991748"
"-0.013983727771201536","-0.11236219969195636","-0.00180357510196211","-0.09579003768452675","-0.0876234334167658","-0.061538174546305016","0.9099842718492085","0.3742369461179741","-0.01705197156349946"
"0.016205102025552785","-0.08333900417963325","0.07831044831776555","-0.0913222966794715","-0.08750471658820472","-0.17046168814739793","0.904447476902711","0.3970238701683585","-0.03744864111974414"
"-0.0385613728992113","0.03034184298516889","-0.07250145759650006","-0.06445434396277865","0.0019465142633083876","-0.1834982186788115","0.8639775014690326","0.4371020483510933","-0.03266000747105071"
"-0.04860244020117524","0.05024065655808485","-0.11674295690623315","-0.11518558233476807","0.07437438505558233","-0.19265039521515084","0.8237643876565837","0.47828910893414095","-0.005913431354843069"
"-0.036116733964582835","0.07957814725023686","-0.06545354792918888","-0.12584456021589727","0.020016323594037256","-0.2751362584641782","0.7586071564047583","0.5419950121081568","0.031483591635034926"
"-0.02041526107572745","0.05144872865555211","0.007341588727606442","0.028406357260922447","-0.02339762916522417","-0.33175598970643255","0.6834608621051286","0.6026057929780028","0.0362143424202845"
"0.01435603620050161","0.05130701520393284","0.010706464557515267","0.12805634973659386","0.05370815953967037","-0.35698162701589503","0.600979741510396","0.6593659492489601","0.0371138734062364"
"0.02468258482771744","0.054626758040875384","0.004316582475256346","0.21997743817715798","0.009306007899466557","-0.3721761319890165","0.48419332439148727","0.7325278166278412","0.005886850779130991"
"0.04016092288764029","0.054055694923954165","-0.008743761979334536","0.2504952238355904","-0.02657290860647106","-0.4122612462760842","0.3427767318147054","0.8072372451588072","-0.0681515891724254"
"0.052466152424360805","0.06861149043977915","-0.041153290663933445","0.07392784843281668","-0.06602171929179257","-0.35441964822665273","0.1801833255765767","0.8825315786921362","-0.15015283385179937"
"0.052188874585466706","0.05626838911408873","-0.05934925649932574","-0.030611271282130193","-0.07232795722495688","-0.2606906395986814","0.059972086841278104","0.927191512726713","-0.16639758125723306"
"0.034917254407725785","0.009729972223016164","0.0062672835395737566","-0.06541489519233654","-0.09160598729222799","-0.13117867029665456","-0.018798810335698184","0.952720178975673","-0.15512763130454194"
"0.01634948338545032","-0.07687069713047638","0.10206791633139156","0.05429020299583394","-0.03930093551926579","-0.03834044198617358","-0.047481691372966775","0.9616156092199407","-0.16540731497182862"
"-0.009947612483157202","-0.17427133460083882","-0.03331207362885619","0.1386315738320395","0.04102287068515762","-0.08324995940867592","-0.08598239437722083","0.9697555371694898","-0.2094029843943067"
"-0.009947612483157202","-0.189242448747152","0.03579769102145282","0.017187275938034735","0.022753142215131906","-0.012530082286889467","-0.09811197093526967","0.9704257408180306","-0.22640646663136943"
"0.011555365957944019","-0.00014927938937286814","0.020775622705434506","0.13494117265035943","0.09955818162100506","0.1535793598688803","-0.057727616042000975","0.9564367628448533","-0.23459454520610365"
"-0.09550997519515386","-0.1033907560320195","0.1313493088058308","0.2297792484079324","-0.05130558122336171","-0.12759387074463016","-0.05909754468855719","0.9515381834500649","-0.29144490351826285"
"0.014625110553037881","0.08329637147589102","-0.10222125677417844","-0.035776524283581","0.2132714915809927","0.2139060773438768","0.01744721843776541","0.9259120330340443","-0.2887697765861277"
"0.03402963718381036","0.03408672617696925","-0.20656205214509477","0.025669964044293708","0.1143170577477179","0.16714208142854597","0.08731357941212727","0.9076824937937369","-0.2396147103085725"
"-0.04474680161300282","-0.026834623881022427","0.09111192405234857","-0.0549299681470809","0.004271939501162727","0.16486586181194995","0.17150711081505485","0.878339759508536","-0.2295258836504791"
"0.02159479256263637","0.007210559611852161","-0.12342761530514619","-0.0008785464991905865","0.06695854049813384","0.2093536381106847","0.2562143654604412","0.8458653463565178","-0.21056377046661331"
"-0.003581707069493791","0.00789513380041694","-0.08521107668849964","-0.04853850737710731","0.024435755398604212","0.18614605178597926","0.3204297707677588","0.8177167931178076","-0.1818585634036026"
"-0.00029046834273894985","-0.01354442770540122","-0.04376702967562587","-0.01470590391966929","0.021505824069716878","0.18955939583441592","0.3868427699455937","0.7882643891446637","-0.1676725686547127"
"-0.0050255206684689845","0.008222197221926367","-0.001698357493184712","-0.007789280740402001","-0.042132727603209304","0.19936192083263982","0.45180021993646263","0.7524389577499416","-0.16914779947167377"
"0.004984373385335249","-0.018915507832119757","-0.039842245856151634","-0.03442861179523686","-0.010372968470131498","0.20681136685059046","0.5238927149614778","0.7138352275939964","-0.16684343574592225"
"0.004967966412619631","-0.029726420156144392","-0.02589673739121123","0.002270988438380144","-0.0075329453527410856","0.19707978895729944","0.5782902983018103","0.6767181309857233","-0.16806836228853153"
"0.005346967482350614","-0.023432097938678523","-0.03206783365204413","-0.01749464325235023","0.022455558698205477","0.1973951094236677","0.6376538729859086","0.6408074009448236","-0.16184517226745918"
"-0.002986133959916507","-0.011873331459078916","-0.03046034240683394","-0.062462574246992454","0.03267312040969534","0.18271300020839462","0.686029478317421","0.6063345623680656","-0.14385142374499205"
"0.003658689989912559","-0.00517842319767936","-0.04259376983171922","-0.06778617424950117","0.012644799985918232","0.16612517292450826","0.7323216504989627","0.57025323503481","-0.11706573758591693"
"-0.0046645672687252076","0.006989149882490567","-0.02383413823501945","-0.08142495478690183","-0.01135261973941749","0.1499728820347931","0.7696236659374805","0.5372914010474893","-0.1022915277923002"
"0.0024084786689817545","-0.011645186833006702","-0.06453080620141888","-0.08719873138745947","-0.008707608799076736","0.14036152006930494","0.8003614399445834","0.5061573951925523","-0.08686965568879812"
"-0.004221579005403253","-0.010991761541728536","-0.06294001616395112","-0.07554779460714109","0.0010463241246059425","0.1340176664365581","0.8268467271113348","0.47949547550151433","-0.07502087710166841"
"-0.040809128161252255","0.002545268598336853","-0.0431991886123828","-0.1292837000405268","0.08868530301585804","0.16757958857563196","0.8539028178808178","0.4488488904818797","-0.042690951265700265"
"-0.03966064007115833","-0.04043911523647251","-0.03164195285461182","-0.14677253741356672","-0.021395271990160704","0.16353954510028837","0.8864671634166622","0.4049322732211389","-0.004966968317450202"
"-0.033606467139091815","-0.09334874441579052","0.026194747087663887","-0.06788432321709906","-0.08783237503503329","0.036492987694678576","0.9030775482561552","0.382852109381943","-0.017366416308153946"
"0.008132871449464145","-0.12078923920111821","0.048350151748596","-0.02109605603674158","-0.09748484464257244","-0.1254654575966443","0.8920039583631596","0.39546412349539095","-0.04341839806303527"
"-0.007224055012363055","-0.03624944824107503","-0.05142035812360066","0.01869615273323939","-0.019826310383897535","-0.1620150411545576","0.8790467165811497","0.4223697536040801","-0.061038254575689344"
"-0.044960092258305946","0.034521688256196725","-0.12949850431952442","0.016497615859047","0.027984597127056615","-0.17677992199225234","0.8424296654659107","0.46051043396648816","-0.0637321543284009"
"-0.03739647783640176","0.0690815301060411","-0.13544413427583435","-0.10393640199515035","0.08598647377990296","-0.20389354059409487","0.8058696947109442","0.49716448078122416","-0.02662923886088633"
"-0.03232672326727289","0.06748058903378774","-0.03856877876579031","-0.011685009562296839","-0.05308949943387279","-0.2654795691816496","0.7369451596810898","0.5609800536431829","-0.009879189701604868"
"0.010165695368930357","0.04936371688222302","-0.015683948856706976","0.10688888905798556","0.00020770844765050734","-0.327735653760237","0.6594300304301233","0.6228703142056975","-0.03738606505115619"
"0.012155861159335979","0.06225122235868848","-0.020485546082659508","0.1962908206635376","0.034878087638836375","-0.35702104207419105","0.5778336554196248","0.6788384116192884","-0.06083018914763439"
"0.03354235009415622","0.06246168788089531","-0.005530449609688398","0.21551493178370795","0.017635655458625832","-0.3979929951729195","0.4567091309199555","0.7490026408610603","-0.10944553683361843"
"0.03523226828386584","0.0492654996385265","-0.018347791491626735","0.17963166922992502","-0.020084638202846436","-0.37000830378273464","0.32471079778824685","0.8154624717545342","-0.1635519345381957"
"0.05686158041487737","0.05454818424591817","-0.039207599961938774","0.046734041143698904","-0.05910923408744305","-0.3225525735943084","0.17481777171089863","0.8789002934691338","-0.21789299249997784"
"0.03399026044929284","0.042036710502462264","-0.015654721743157705","-0.04635436568482927","-0.036526127513031595","-0.23810581119505328","0.05940128323854646","0.922609756874871","-0.22564460299631103"
"0.03421503597549694","0.022485866592928276","0.03315743884246927","-0.0901955465314479","-0.0751344230521407","-0.13166544626661061","-0.010236756294722479","0.9445924365470065","-0.20694530930051472"
"0.011420828781675867","-0.05803403289296428","-0.03707402067284161","-0.0996256993382517","0.0003794521263021964","-0.05311911809427193","-0.045112856421630175","0.9583377041025325","-0.1818757718224643"
"-0.01052185652820416","-0.16153115498991816","0.0016932402691120167","-0.004189569204782353","0.03423226809146413","-0.059786175205046255","-0.07313931331575711","0.9694387136265432","-0.14983682470543017"
"-0.02105513301163691","-0.22478305993048026","0.09054408298910548","0.17102073313933813","0.022453975807157998","0.0037373005730501232","-0.0797320949273085","0.9679764511206362","-0.16709843322541817"
"0.01350779571110367","-0.004961082468413766","0.006476466166547866","0.2183808816375659","0.09444860931973638","0.14787205942761444","-0.03532357463478117","0.9505998983421079","-0.22389090867413355"
"-0.11349201729148138","-0.11489901078628946","0.08682806426641179","0.22576168400092608","-4.444609621321628e-05","-0.13560695209621412","-0.01819946655282976","0.9382681512089587","-0.289661485563506"
"0.062067512857545935","0.10079166878520486","-0.1702076981917307","0.011685306545078145","0.18318073276837887","0.1893268469904693","0.028007085088302207","0.9179061458142034","-0.31078090871194164"
"0.03395908720113315","0.048576575829169445","-0.14096388343471197","0.03990679895759074","0.07211559953082693","0.1685176669630776","0.09667475849692753","0.9001640274091982","-0.2652568188142027"
"-0.055099601396563655","-0.05190527688630111","0.14659751147468178","-0.05093595949229806","-0.03278892174992895","0.15178203321058112","0.17887047729029404","0.8679820667583614","-0.27112332524432375"
"0.029209268599959027","0.005715552852442913","-0.12560712291553508","-0.011657004390208912","0.06902104753300158","0.20082027798959312","0.2559004234789386","0.839175495391993","-0.25397278924607936"
"-0.008241287320731941","0.012297932214635878","-0.07040963132675901","-0.06403426638145976","0.03272535581426222","0.17631396549403333","0.315121297262354","0.8160839333195448","-0.22327140559511277"
"-0.0025054096593486387","-0.01247105354214634","-0.05820104846703275","-0.025088756038623115","0.02224661707993799","0.17642235690434743","0.3789085998676229","0.7868996108058172","-0.20114294334069635"
"0.0014634370405616358","-0.0012188651732280254","-0.01583843502832458","-0.00045192565336515814","-0.040399461906217606","0.20003197682367244","0.44269590247289176","0.7563017678697128","-0.20175931761628774"
"0.004149258474109811","-0.00844526903337392","-0.028877902973237408","-0.004287456441799967","-0.01906747241573514","0.1873738308519008","0.5070254685007558","0.7162967028122733","-0.20334874975842188"
"-0.0010205786285843556","-0.015146771881135957","-0.016368698374147162","-0.039239219860434014","-0.002651309362309677","0.17662140294874243","0.5672452485889515","0.683627321326134","-0.195387509432319"
"0.011670214766953405","-0.05667302251602672","-0.03642684887282192","-0.03338823273869939","-0.0005781969574238094","0.1733617776276603","0.6144507065348642","0.6532366322450331","-0.19129503454666658"
"0.013686631713703998","-0.02868531737296123","-0.048589503411256466","-0.002557679036855025","0.04864607396982613","0.1479607433087805","0.6621413475430988","0.6204697665918333","-0.17535065227045504"
"0.0036865818435291484","0.008231598015251607","-0.03936626143549199","-0.03836373106946098","0.03517883693785777","0.13090387683117133","0.6989867200994309","0.5939662586722687","-0.15693451528501923"
"-0.001343795991082219","0.014129262878531655","-0.047019589883466766","-0.05512888338807927","0.012741356339814576","0.1504103891818791","0.7331207755427875","0.5669509588756365","-0.13136124045483577"
"-0.0014816145618934881","0.008063365907834274","-0.05705284043473976","-0.05629620177604332","-0.0036504301914796855","0.1716708716267604","0.7719068803484075","0.5341840932224369","-0.12216099397069136"
"-0.011227356354976153","-0.007187106141621435","-0.06632618603373155","-0.1264609357324119","-0.004487304688282891","0.1726976338953721","0.8072396233575","0.4995284718324405","-0.10878066610487137"
"-0.036920675627648565","-0.009567611508128925","-0.09364518659843366","-0.20266510282830305","0.090857029533002","0.1903122234478702","0.8469390139274909","0.46237481866151964","-0.06250097017893286"
"-0.026174108498912635","-0.05600654836237172","-0.02869418968807053","-0.1861629897428471","-0.0037507854838899806","0.16269803360566804","0.87670642180995","0.41772707014782534","-0.009422384400912767"
"-0.04436944124054339","-0.07382035016195859","0.031189702546254562","-0.08838960552764702","-0.06869363937994051","0.04854020026286169","0.8882081144049939","0.39369722296742","-0.008277242345753154"
"-0.0026694793865049086","-0.11023228860722316","0.019905072251859633","-0.09431518586475603","-0.10104160082626223","-0.09950670020287558","0.8878941724234913","0.4027266939413959","-0.022675995727842124"
"0.00405409803235919","-0.07047254525538847","0.05076138861641128","-0.08263807602641156","-0.07918662413369207","-0.18694506552679976","0.8703134214593543","0.4284137719618291","-0.0451408043509188"
"-0.03477136220190138","0.019450953762705656","-0.09207109776870834","-0.0640251058111506","0.0192961081674334","-0.1979812818496896","0.8316985577345541","0.4720379367213885","-0.03940257886140311"
"-0.04738832422021878","0.05352672491147431","-0.15346056212799536","-0.09487136334781064","0.11185407927783746","-0.20525336010530806","0.7849782828509635","0.5131275131373758","-0.0003754492848088459"
"-0.03624798974630784","0.07085785911346681","-0.045883907756980605","-0.050786773061549294","0.0004172832223369917","-0.2623854871054109","0.720877038264192","0.5702288639930448","0.03219539441522294"
"-0.008241287320731941","0.053578639740285317","0.026280340777343914","0.04931470466507235","-0.039824872455982","-0.35093141556745366","0.637825114066728","0.6341419210220641","0.021931354765083223"
"0.017557036577320505","0.0557043415145744","0.002771303228886753","0.1595307606658803","0.051177116754748245","-0.3639186772759972","0.5433000374543562","0.6958493987713401","0.012921965290132072"
"0.04040046468928844","0.05059423863539235","-0.006578450395526733","0.28064658668165754","0.020603576172652707","-0.38951875763927196","0.42348836124096956","0.7684019901060933","-0.04751243735040238"
"0.04188857711459584","0.05877152572486873","-0.014243469688921219","0.15635073411570916","-0.07120727036334035","-0.38323205584105435","0.28284235352787546","0.8338138662036673","-0.11493032924535287"
"0.05590505390555629","0.06522439863573043","-0.024815334189888006","0.0007288718594823386","-0.046757935243948785","-0.3005392635359728","0.12961012637454705","0.9007854889742087","-0.1662129818548986"
"0.049957526296141384","0.04980288827189463","-0.07976648296446304","-0.07881026629009445","-0.039410155001541984","-0.19569520846851957","0.028064165448575436","0.9376832462065959","-0.16158391718110446"
"0.034428326620800094","0.018373370289006638","-0.03453543709599018","-0.08899943777965515","-0.11180209416703808","-0.1112996856450493","-0.03349700310603976","0.9541093283562847","-0.13842451419670146"
"0.011881864714984999","-0.09864826626495873","0.10107836977265178","-0.001150222841501503","-0.013156482377126839","-0.03859466911218301","-0.0480810351558352","0.9604823557778628","-0.13082621506840875"
"-0.022580981474190284","-0.2260037599592799","-0.024911366134407056","0.036730698366123526","0.05142721354025025","-0.09766207547462115","-0.08969261779497688","0.9717539625942293","-0.13558356068280816"
"-0.002489002686632991","-0.15200408235135524","0.06760079885292361","0.04925974124321754","0.05142563064920277","0.02496211239017352","-0.0924324750880893","0.9743616640630969","-0.13349195559025573"
"0.008209984221227588","0.043425782949027394","0.04904700964164945","0.23203013139817696","0.08912218094496281","0.19983490153219227","-0.03169897175743481","0.9532075998109755","-0.16714536527685916"
"-0.08893077913618727","-0.12476984377779025","0.10932041579354769","0.19627773413452454","-0.13491546924235567","-0.06081096672074316","-0.04471329389971821","0.9506608259465207","-0.2400370987715412"
"0.020551309097922483","0.10575163959187939","-0.14762766532394697","-0.0746055645182015","0.21942893775569383","0.15024090443120613","0.033686580935482574","0.9277033046037804","-0.2166054898887806"
"0.025018927768387805","0.010836599938779725","-0.18873768818197184","0.07573117213081497","0.07759873411930113","0.1966600185864466","0.10506557145708355","0.9052332040963427","-0.17931641061721684"
"-0.034951838901773266","-0.03699589929316862","0.05465402261098133","-0.05395240442980607","0.004196277309093134","0.17835960701959755","0.18169595512381584","0.8750131123075976","-0.1827221131501164"
"0.02062514047514281","0.014554262923041331","-0.12683883698654028","-0.009032631861931874","0.0454913721121965","0.21705928200755958","0.2660321874274267","0.841965979674099","-0.1723454365765184"
"0.002936783190424948","0.006269778727587589","-0.06186696356649912","-0.07879194514947618","0.005469871445896348","0.1810772752891092","0.33313015092853965","0.8131350372659655","-0.13018950357052628"
"-0.0068138806944723655","-0.017062008133218193","-0.06122814237035064","-0.04910122812466845","-0.0027882294379167837","0.18666830130840173","0.3976880383974963","0.782707791622217","-0.10781855905033152"
