"AccX","AccY","AccZ","GyroX","GyroY","GyroZ","MagX","MagY","MagZ"
"-0.004680974241440826","-0.1501800478255626","0.0029024077096649367","0.021477040148512504","-0.0649453533795055","-0.12494123732130702","0.9292203532612677","-0.22097700691147767","0.03677909143929079"
"0.025793336880565416","-0.31657408968228967","0.2317653203572729","0.08217759632264338","-0.0161256694039917","-0.045673613582150906","0.9499405240404284","-0.20630563976887728","0.019433005226709026"
"0.0016045370059160227","0.04238187395888148","0.027169262559435477","0.07451805089130523","0.2086494497223482","0.2498920255681568","0.9200874956175601","-0.21894202492409037","0.10242451619148742"
"-0.11231071525595622","-0.17006202415670202","0.17087271692832356","0.12124481138530135","-0.04143150686917522","-0.1612306814944665","0.8945154942151794","-0.2551452074661717","0.1339472107426709"
"0.032124787651526016","0.10771317825884713","-0.2036226395824247","-0.10260681064742448","0.35672890721419587","0.08365704645171412","0.8662892560600963","-0.24992980452843666","0.19400459256996294"
"0.018233003853204352","0.05556262806295513","-0.27823110986985583","0.07517892060646425","0.02422206510719428","0.20367786971605567","0.824763293961364","-0.28400052091607014","0.2439715833374468"
"-0.030341479568682002","0.03238616475753799","0.08059851377848033","0.07481380644700016","0.0005122566851858517","0.19095271814518075","0.7891166089707682","-0.31325795655509303","0.267187304783579"
"-0.008848345311210166","0.06849222664386194","-0.13023335746019196","-0.10372701753094155","0.032266317410492726","0.1614249272227061","0.7485324728165437","-0.3466219127315382","0.27943657020967166"
"-0.02653506189865644","-0.00032817508324868165","-0.0960000568901182","-0.0732144664841143","-0.07097775116145559","0.17770137554605375","0.714969220975919","-0.3904044892625709","0.25872389150705777"
"0.011565210141573372","-0.013813823573825972","0.014049628817358911","0.0038172927065621256","-0.028592677583056815","0.1800721913025603","0.6766968394127576","-0.44096221540430597","0.23389683629478566"
"0.010073816321722854","-0.018390747130084036","-0.009750844806203886","-0.06998994573529878","-0.0060329977961480884","0.1741264297586034","0.6340007299284255","-0.4766901626319675","0.2264189960985248"
"0.018502078205740624","-0.040408246959882176","-0.030147194761663127","-0.04106217335195188","-0.00550636994465116","0.16472002609625463","0.5976120002542786","-0.5068005847327695","0.2123237366490874"
"0.0031828877811593674","-0.019812090956720887","-0.025028274588604165","0.03615619974245063","0.044915199770913405","0.1536936635379388","0.5477808457358","-0.5363504728729739","0.221741434971575"
"0.006774374108610189","-0.004936668467837771","-0.03286114101981021","0.03722667781571812","0.033086254973087884","0.17655833885546873","0.4968080840118584","-0.5604412476577919","0.24636511796093621"
"-0.0009631542240796481","-0.009563261887336649","0.006684813733134847","-0.004581249018142938","0.011321661359328862","0.16624144734648155","0.435931879780521","-0.5972902628066488","0.2591619239871734"
"0.013534046867448671","-0.004757772773961957","-0.02976306698358692","-0.04822835663949803","0.002217188632427638","0.13522770872624637","0.3889832834558377","-0.626267431465373","0.25423405858587184"
"0.0044150514321029954","-0.012229719743349162","-0.061086182104539886","-0.06651808958813664","-0.01008377427575672","0.13203508900426753","0.34717191955573956","-0.6494442921839992","0.23671275938124375"
"0.00011970597515173976","-0.021410225822011488","0.007260170339862029","-0.04586754680554382","-0.020956811170008464","0.13831784929665553","0.30541763601591465","-0.675423822705614","0.22163192685154612"
"0.001954005524758887","-0.02993127326442572","0.028475297004894564","-0.08197851496415384","-0.02506599632926914","0.1057945139436822","0.2665459106698851","-0.6994658554069019","0.19558463830180883"
"-0.022909120928502825","-0.041525117331059805","-0.008235210203577136","-0.1421006465559079","-0.08401285893746163","0.10406025137865667","0.23087068549915313","-0.7260790330144096","0.13971985306990997"
"-0.055083194423848035","-0.17208249316988772","0.08849818504065615","-0.16848308904621662","-0.1440297558937513","0.04544611818662294","0.22062476083011862","-0.7432240608961693","0.06212552802084291"
"-0.024385748472909283","-0.05329014002242211","0.020295045452645693","-0.08020790758868819","-0.013568350627681396","-0.08932579064500973","0.23087068549915313","-0.7439673776700053","0.014032690507568316"
"-0.016362738814967494","0.05669072326198378","-0.13907247165788023","-0.03153648888335283","0.023592074470296837","-0.1468875417805393","0.2792462908306659","-0.7252138610317478","0.0022480523907412826"
"-0.07247458550241304","0.06580949278746544","-0.038819296881926965","-0.05360299410515764","0.0030918942252656403","-0.10121731373292352","0.319231083202022","-0.7068380955408498","-0.0010903808684262566"
"-0.011850821318169969","0.08062205624038277","-0.007403907588197001","0.09004521756528899","-0.016734765879062388","-0.2147326816255045","0.3888405825551548","-0.6714147863352521","-0.0005271962511346422"
"-0.0013159041374656592","0.06296961134115449","-0.0039743145782862145","0.07517499464776034","-0.014724810826971014","-0.29401607138797897","0.4771438998977507","-0.6230870105150252","0.017613606032514172"
"0.024733446443135885","0.05801665605188687","0.020181477239997074","0.1058210282905207","0.023338811902699878","-0.32943050126696655","0.5670454673279954","-0.5709573521794399","0.046070073222887774"
"0.052254502476329207","0.0625627113315546","-0.01851480356905116","0.1506450074660194","0.03349147508124302","-0.3414323865181092","0.6573751374602889","-0.49749084677849487","0.08840747682778499"
"0.052503888461606744","0.06402474515915145","-0.014748681223130137","0.12100140194565863","0.04325474706210584","-0.32608022131180353","0.7345192443694802","-0.4237562599181334","0.13052117098748026"
"0.04780165008130795","0.0495980351636133","-0.029099193975824788","0.10957947942306866","0.043189848529159115","-0.27592455963009893","0.8042714446232954","-0.3438923560538451","0.1707732271066838"
"0.03333070014612463","0.056943281888631986","0.013057994607651323","0.07303142119542276","-0.08025665848178923","-0.24393923982286644","0.853189313377403","-0.281465932572498","0.17595139678233723"
"0.021248605438336652","0.02337262799315976","0.08399303425213199","0.06124307586046737","-0.100270732886139","-0.08675592884410824","0.8816153327934425","-0.2511970987002227","0.1595721108294394"
"-0.008224880348016352","-0.023837594844797035","0.049915054914062965","-0.06925710011056799","-0.10382432328773385","-0.10020040522888579","0.9050753608657163","-0.23363776310845596","0.12725157140375948"
"-0.01657602946027065","-0.2006356490159489","-0.0005083964415356027","-0.006073244190920763","-0.03046682058327432","-0.05832781804809295","0.9188888080518236","-0.2167973732487601","0.1021585678999886"
"0.03412479762556099","-0.1926519902069028","0.16887692260310153","0.026775775745896426","0.14854865954054206","-0.07362874367861377","0.9216286653449357","-0.2099856670754099","0.09945215293355943"
"-0.03270408363973232","0.07446804437105481","0.12760823827152346","0.10071466466962861","0.12357380459338682","0.3622840642993007","0.8785044531585549","-0.24144868199417596","0.17726549422268434"
"-0.09851245120211363","-0.14446941665635038","0.09496155243698182","-0.031075843062093468","0.018558480939307256","-0.04956782134179916","0.8745373681195695","-0.2360504962432025","0.19882294985123566"
"0.047937827954847655","0.16432559752552411","-0.27919977991891753","-0.06602865340304857","0.22859387692060879","0.1500694489276184","0.8168291238833929","-0.25911768727388573","0.278982893712409"
"-0.04589528970309674","0.009054518207080349","0.011763233477418382","0.11947289535693441","0.09731522500672447","0.19614171056985377","0.7804118540291096","-0.2910315664653064","0.30664151602828604"
"-0.008257694293447559","0.03574800069892191","-0.0016845789967971985","0.09735796997778132","0.04967653604173626","0.14908407247021752","0.7436521020131877","-0.32242146825877704","0.32629040156490474"
"-0.01933240087649603","0.04535785644288618","-0.11652584120558138","-0.12174847663481261","-0.0015293561878551433","0.17126292577339647","0.7147408995348261","-0.3581859720490862","0.33220384004646664"
"-0.014968146134139156","0.005541287400055651","-0.04680664948475061","-0.028304116217129492","-0.0482727619763881","0.1773052542101786","0.677210562655216","-0.39616824064002104","0.3188751374372317"
"0.0015290649314241378","0.006976241330461879","0.013784914674641179","-0.0072078462563521925","-0.02962947121915687","0.17016521639985188","0.6455880430638792","-0.4287401379590998","0.30712648055984276"
"0.018379025910373416","-0.04283421287918634","-0.01582590912251775","-0.06664372026666192","-0.012356647530834689","0.16939465201016438","0.6063167551959373","-0.46902546999683825","0.2912165151213546"
"0.011983587945821885","-0.0447943484426727","-0.02110766607106553","-0.0004816320742247815","0.011718808723141846","0.14763951058366784","0.5643626903951565","-0.5069955530668905","0.2720213060819987"
"0.011555365957944019","-0.01219885146675883","-0.022109738535612145","0.05158914340754043","0.03883373236649141","0.14337677202895166","0.5232933711786094","-0.5306963911834667","0.29102878691559075"
"0.004213245667700754","0.0003874076922545716","-0.0067333540973378925","0.006157294959385586","0.031056988650217242","0.14779322931102237","0.4726916317964433","-0.5511193241826348","0.3193757459859354"
"0.0019933822592763883","-0.0034784230196406507","-0.009041043477150037","-0.060724683194059416","0.00958792079502292","0.14537905699039022","0.42617113817380875","-0.580559542634896","0.31487026904760246"
"0.00798849008956661","-0.008694460211666815","-0.04967925721645091","-0.04780042714077129","0.0004916791015685991","0.14112420144733323","0.3795079436504913","-0.6099632045245098","0.3035909326846231"
"-0.001225665787529686","-0.01056255218677472","-0.03387156408822805","-0.06047996510151538","-0.013607764614763674","0.1398589780760305","0.32922014624982715","-0.6390378573502942","0.2868518343373445"
"-0.004680974241440826","-0.023886703466645294","-0.009183003742960811","-0.07307836658237858","-0.010563706841352959","0.1210639075275662","0.2879510457723245","-0.6674423065275381","0.2666397641834344"
"-0.027125712916419017","-0.06689042206742807","0.009154504828048695","-0.1318277212806637","-0.041148169371676126","0.10227869074367588","0.25336034744678265","-0.6931171990270889","0.2337247521061688"
"-0.058184112267101636","-0.12681276244667794","0.09808467828481876","-0.18569187469837728","-0.10736841634304382","0.036538315011719016","0.23980376188190436","-0.717098304123964","0.1628104223788662"
"-0.03212983959468536","-0.12872940180224157","0.12351226707268913","-0.2041177075487516","-0.08512721423488825","-0.05069115050323616","0.25287516438446034","-0.7251407479064526","0.07542294259578385"
"0.0010417778417700046","0.02616340081762245","-0.08150340856967717","-0.0787173519341018","-0.005429916307057827","-0.17875658716579848","0.3081289531288903","-0.7125165482721219","0.013417880633691651"
"-0.09032537181701558","0.05864384330806324","-0.12321467490643005","-0.10666625194727257","0.08815186873285695","-0.11982516275448167","0.3628404784507251","-0.6864029770207991","0.012745187896371088"
"-0.009849170646863433","0.09486636278334165","-0.007827700734661507","-0.08153095567190755","0.02181290493292819","-0.2212755813026463","0.4124433115281111","-0.6621903470271553","-0.008122366575997957"
"-0.010177310101175974","0.05249123454221665","0.02487326402504304","0.044015969067688426","-0.010223385266144544","-0.27152978063009103","0.4993481600440144","-0.617128290803454","-0.010082561924515714"
"0.024003336157290476","0.053145080764539235","0.06563882447338004","0.11262209741860277","0.045621169178089935","-0.32140953690372337","0.589620749816035","-0.5574679805624477","0.022796468913311732"
"0.03750463400498022","0.053880306988781795","0.01913806928628791","0.22288264761805507","0.011635548654044345","-0.34659575915488977","0.6822907147195283","-0.4808332397320373","0.07847352593944676"
"0.05177049678121821","0.06317306134595442","-0.0013793644253040401","0.13113168405466058","0.002291584511659246","-0.3095258968274688","0.7601483261321338","-0.40584354422077246","0.11519003418343071"
"0.06009703543439909","0.0545860680399154","-0.034769254004384395","0.06399517291191177","0.007899767492884433","-0.2855615413834795","0.8239927090976763","-0.34021232874731244","0.1374984026350375"
"0.041409493511299536","0.04541117437517858","-0.010698638345587567","0.02461518980584188","-0.05923269958914656","-0.262523439809447","0.8714550286648179","-0.2814781180933806","0.13915666845261832"
"0.018298631744066853","0.021909191062081532","0.09133739035687155","-0.027397219756525128","-0.1332138613663136","-0.11680991079483498","0.912581428241638","-0.23932840136061076","0.10475547474638881"
"0.007965520327764757","-0.0461665836474613","0.09128311143170863","0.011880034096792329","-0.11215666176167385","-0.09101669664590963","0.9224848707490335","-0.2202093190958765","0.05840225193985946"
"-0.008356136129741357","-0.14337499594087483","0.01589636486347961","0.07505328992793898","-0.061488319331806984","-0.06751940964272833","0.9386956930666138","-0.20026162141112827","0.03287278035768758"
"0.007983567997751934","-0.23592370157262896","0.15493558944009675","-0.006330132755446933","0.04182064777308805","-0.04677723521443988","0.9545069528622823","-0.18599237645765226","0.028221814059887648"
"0.03055464036264048","0.014581483130580086","0.0425352087428707","0.05913483603646503","0.12096994882028057","0.16316904355230563","0.9384388314453845","-0.1976417344213782","0.08229066612331212"
"-0.020874656311765022","-0.03373228059548124","0.13099440814130384","0.07862852965430421","0.055093189206216246","0.12079391437823836","0.8984254988938913","-0.24721243337162607","0.12365344745995194"
"-0.07974287441543594","-0.08031110686681751","0.015828307441929156","-0.1574249720301894","0.16602219381368483","0.03522776432337585","0.8998810480808572","-0.22820302079483482","0.1420038795733704"
"0.05983124247640592","0.18315524624562934","-0.11451334567261694","0.06797478638478027","0.05985135969494414","0.19961811871156407","0.8524187285137155","-0.26322420781130795","0.21662584136450952"
"-0.06438594795360875","-0.01791930436034072","0.02073094697472347","0.11875706221992056","0.12499365786297727","0.1770608808487432","0.818826936492954","-0.29183581084355525","0.23586798245530638"
"0.01846926426030936","0.016884677495263595","-0.09268069185130756","-0.012601066593210336","0.026132614601503845","0.16519694830163664","0.7797268897058318","-0.32661328744237716","0.2535613658485513"
"-0.02007071464869926","0.03673578554981267","-0.08949911177637206","-0.013563449936830028","-0.0009989293978442603","0.18281942086579392","0.7383436285077825","-0.3650707913477318","0.2641210774227691"
"0.001005682501795621","-0.007682682291244472","0.0049136506520487035","0.06039114282171783","-0.01683464630415844","0.17038791147922444","0.6896826213749039","-0.410327815905554","0.27352313172810966"
"-0.00020843347916080026","-0.005825815143987597","0.03418882192660387","-0.010685067880409693","0.004409967600503069","0.17083527239088447","0.6502686326062794","-0.44152274936490377","0.2839420471480046"
"0.01663824610524536","-0.049860955113932015","-0.013400058697927817","-0.05340669616996189","-0.005480885398786716","0.1690635655204777","0.6263234214716837","-0.4642974878944055","0.2679695056409285"
"0.01174568684144529","-0.03809733552605108","-0.018815425308415148","0.0062054533861536105","0.04073795029661104","0.13306185127287926","0.5765493473134786","-0.49428605478638193","0.27220903428776255"
"0.003717755091688826","0.0041662459883043","-0.018197480621944737","-0.0018035023698329566","0.04002090065210215","0.1421962910329854","0.5347665235935173","-0.5193638567626874","0.28844752408633745"
"-0.004385648732559522","0.006202570070829539","-0.02913259639130968","-0.05533826785228806","0.022697741028470074","0.15441495910475628","0.4801691589922286","-0.5599903833851373","0.28985548562956653"
"0.009611139691142162","0.0008899993592845039","-0.014853063771520406","-0.09518020543251862","-0.012868396206485297","0.16150178658638334","0.4309373482566184","-0.5955477333204431","0.27427404455116516"
"0.02036591030623589","-0.026806561811394843","-0.025838283164112675","-0.07853675783372172","-0.003576825757771819","0.15416664423749124","0.3910381764256717","-0.6223924358247195","0.2508549508821221"
"0.0007103569929143176","-0.023472787939638518","-0.030710860522970593","-0.049328933729495525","0.005150918899828926","0.1387277659029343","0.3423200889325202","-0.6524175592793435","0.23776090853009207"
"-0.0032158315779353083","-0.030089823957821536","0.0029934292918612528","-0.05303373009308997","-0.012426611315133349","0.12346625533070953","0.29548565332838306","-0.6785555015724315","0.22333712472056788"
"-0.031046979395453967","-0.06690024379179772","0.03174956878280063","-0.13023770800557813","-0.05159683317609821","0.1045253490665499","0.25421655285088013","-0.7095920232603079","0.17984675705193762"
"-0.05816770529438599","-0.10659684748697036","0.016544789254079983","-0.16909815590982993","-0.0617368332262615","0.06286560320055565","0.22930097559164078","-0.73241550387334","0.11490844187478488"
"-0.027076491998272133","-0.12970175251483718","0.1312031732380844","-0.11588178567826232","-0.07213326162611673","-0.008154616665446614","0.22678943973962126","-0.7413231196384903","0.05660318996795569"
"-0.003877032578375065","0.03294039063268267","-0.12531902708197792","0.017278881641126086","-0.009922161099808908","-0.1604128190348238","0.2683154018383533","-0.7233007342531862","0.036738416994708624"
"-0.09183481330685331","0.04945632171199403","-0.1464293536684266","-0.023844227129482067","0.07184809094380265","-0.12542407178543347","0.31751867239382703","-0.7017932898954704","0.05463204380743502"
"-0.007043578312491167","0.09741159249856303","-0.04323676632980329","-0.015580084057741025","-0.027717338833799822","-0.19770537644161734","0.3795364838306277","-0.6764230354179837","0.03095638825718138"
"-0.011522681863857428","0.06059556025066133","-0.00069002207573468","0.05311634134336336","-0.026332309167253945","-0.28810381264357376","0.46304505091027753","-0.6308126307545673","0.03690737237989612"
"0.03158335755191031","0.042908037764398575","0.012246733441562126","0.06108996347101469","0.03270002955750252","-0.3422206876840299","0.5554581541925419","-0.5732482301053609","0.06049855023755602"
"0.04098127152342165","0.06904504941552524","0.032817819783026676","0.16623106352056186","0.0070029014253816975","-0.3532371964777717","0.6562906106150989","-0.5010855754388496","0.09605740121266274"
"0.06897648906809661","0.06341018583430748","0.006534502863452853","0.20874919628396113","-7.183011133463698e-05","-0.35093141556745366","0.7384577892283286","-0.4210023321986752","0.1363094573318663"
"0.055302918006892764","0.05545739530185171","-0.045879732455044994","0.12756167893990059","0.02391498424398296","-0.2961641920651129","0.8121199941608565","-0.33492381268428206","0.1713051236896814"
"0.04548990762567605","0.05944641849941199","-0.01820583122581596","0.056088292082227","-0.045858853128979575","-0.22476381396184542","0.8615801263375596","-0.2728142127458815","0.17768788268565308"
"0.020428256802555275","0.04623619922222939","0.07166629034762793","-0.030976385441594284","-0.12152579387171389","-0.09497988075757596","0.8845264311673743","-0.24210670012183413","0.16141810485278416"
"-0.007880333920988134","-0.04620867675190266","0.09091150955943923","-0.06066186785479677","-0.09560595296921248","-0.111203118752224","0.915207124814204","-0.2253759799500813","0.1168483000010116"
"-0.01713386653260199","-0.1676206240991027","-0.008686560342816672","0.026567699934588934","-0.06374235618341993","-0.07246797021179553","0.934785688387902","-0.2018579246467434","0.08990930247389595"
"0.022357716793913043","-0.24314968450173044","0.1869893823997816","0.10603564736633471","0.09695907452104124","-0.07728843184140062","0.9320743712749263","-0.1977635896302038","0.07260701950932577"
"-0.026830387407537744","0.06905908045033904","0.0729359996662472","0.0946084902321395","0.15162579973684512","0.31865159476558996","0.8993958650185355","-0.22000216524087302","0.15996321125811414"
"-0.11413188922739087","-0.14585848910291552","0.08117888074753024","0.02590683021942991","-0.014784169241251552","-0.02519354929153109","0.8910621324186524","-0.2195513009682183","0.1833510168928632"
"0.07626282565110672","0.19059169469693768","-0.25282439759166353","-0.1549123584596838","0.34981167333670393","0.12432353284864828","0.8447699602371102","-0.2382560755229456","0.26221250733083634"
"-0.04177713955147428","0.0031092881357815544","-0.11564902779910309","0.06243656730645754","0.049719274100018244","0.20590482050978168","0.8059553152513538","-0.2813684484054375","0.2801092629469922"
"-0.006666217940031713","0.02156823691610646","0.02040986625587499","0.08219591746326163","0.0397581407382203","0.18916524525145556","0.7642866522519386","-0.3217147080475886","0.299492200192112"
"-0.01094843781881047","0.06092669267226676","-0.10544041456653447","-0.11189170298218341","0.014341659188817866","0.16916604467204735","0.723502734836758","-0.35676026610582684","0.306782312182609"
"-0.014492343925385965","0.0007557223561165403","-0.07832182849474166","-0.050895391252357605","-0.03565395454586956","0.17410475147654056","0.6927364206495189","-0.39409670208998604","0.2923585283730848"
"0.0010171673826965626","-0.00296979800764079","0.007446388806190276","-0.042620778957406125","-0.049545406378562834","0.17619966182497485","0.6629119324067867","-0.4297393506714696","0.27970251850117045"
"0.02110422407843912","-0.03163323778733836","-0.01499502403733118","-0.08463638900670428","-0.01671909525769233","0.18562380226355682","0.6247822517443081","-0.4708776691709871","0.2526696568711729"
"0.00733221118094153","-0.034530646476385846","-0.0074398151848432586","-0.020443038238990383","0.007542667272572721","0.1569710256352541","0.577148691096347","-0.5145383904931942","0.2325670948372916"
"0.005410954675941557","-0.010092091589468367","-0.01886552893164248","0.027299236906418424","0.02710450970465718","0.159984306841986","0.5333395145866878","-0.542223893938367","0.24404980342318178"
"0.004426536313003937","-0.009556386680277893","-0.025449980084100866","-0.012257806937198036","0.023148864977002158","0.17150926988774667","0.48339419934766303","-0.5667411619540746","0.2621186432279544"
"0.004661156022837385","-0.018908492314712866","-0.004934634023476717","-0.08742251103358262","0.0037603491146168664","0.14329005890070037","0.4319647947415356","-0.5989596791675593","0.2532171974713175"
"0.02551605904167132","-0.029743257397920945","-0.04154576904588088","-0.06981720355232653","-0.005557180747275299","0.11808412912038595","0.3930359890352328","-0.6288751329342406","0.22809290593325265"
"0.004899057127213982","-0.014348406000231346","-0.05134937799069527","-0.014859016309121974","0.025738474730681075","0.12216358765402556","0.34751440171737863","-0.6523078895914005","0.22427576574938726"
"-0.01167034461829808","-0.02295223654804693","0.021708802688043538","-0.022488462723730094","-0.0007556390438464297","0.1163616910728492","0.3058457387179637","-0.6758868724991511","0.22205431531451478"
"-0.022482539637896485","-0.021335861337498405","0.02094513996402031","-0.10570831802351731","-0.019724530489544506","0.10516190225803085","0.2687720447205388","-0.6953715203903622","0.20809985201940032"
"-0.03485339706547953","-0.11975234572837919","-0.01561296872380159","-0.16663788845537655","-0.10264190367526553","0.07094963165707242","0.24813749448178746","-0.7198766028851873","0.1446633624883586"
"-0.040989604861124136","-0.151484934063245","0.1725303117967611","-0.1094772383792757","-0.07003751387925188","0.03827454832965936","0.24037456548463632","-0.7334025310648272","0.08139895714593377"
"-0.0075686014393912425","0.02242974245367312","-0.08626742807820922","-0.07040348005211117","-0.04114025491643871","-0.15443749619714486","0.26551846418496794","-0.7274559968741386","0.033992891985412006"
"-0.09404975462346299","0.04628951715452179","-0.12004144543536575","-0.034637996259445664","0.07967390428254871","-0.14687177575722093","0.333301392009359","-0.6971262353974504","0.033644030403034146"
"-0.011128914518682358","0.08361206975920128","-0.05786702431218388","-0.049377353886843806","-0.03014865948273064","-0.18188811354741846","0.3776242917614763","-0.6749729584329593","0.01931723949982132"
"-0.020726993557324342","0.06828456732861786","-0.01031451056751136","0.044159920886831974","-0.032510332925572295","-0.2666817284596787","0.46270256874863847","-0.6356624680658256","0.021266484036336186"
"0.02715675631323405","0.043639054678196995","0.021480831202359184","0.057649514993483864","0.0226534200791406","-0.33228809299342904","0.5628786010280542","-0.5752100989674528","0.034743804808467484"
"0.03431675920633382","0.059008650213221776","0.027524998284349525","0.15574875378110883","0.0139554337732325","-0.34328489425802283","0.6593158697095768","-0.5010612043970845","0.07359259258958609"
