"AccX","AccY","AccZ","GyroX","GyroY","GyroZ","MagX","MagY","MagZ"
"-0.008470984938750741","0.0030603478863510574","0.032065513880268307","0.08558532847764158","-0.048966068255184785","-0.1521258030280824","0.330418833815564","0.8125257612218376","-0.3222166852463908"
"0.003555326061804115","0.033978687208903076","-0.005942134380539627","0.12412777372687628","-0.054229180988059116","-0.13365984821638996","0.27981709443339753","0.8270752731556125","-0.3748900909803039"
"0.0010499813281278283","0.04072340564389159","-0.02112436727880797","0.12878919536132466","-1.5637479149061254e-05","-0.11230476963159819","0.23489485089841147","0.8369821016331326","-0.4191000834376958"
"-0.07016120234950958","0.18861331878819335","0.12007599357968136","0.20415582460038062","0.03555873078925321","0.003618858322870538","0.2216522073150358","0.8340575766213184","-0.45656750450473527"
"-0.06413984336287436","0.07655866855830941","0.07408170251737883","0.1811497065954388","-0.059055415791828686","0.029587469481213234","0.20606926896045996","0.8155965124842424","-0.5394807953837786"
"-0.0485039983648815","-0.07448682431561358","-0.055232408790813405","-0.05689687345774231","0.03098417566203312","0.1644697404760748","0.2523899813221387","0.7908599050926486","-0.5513076723469025"
"-0.08591189615651185","-0.0931901937223947","-0.08620897385111065","0.025117712519943","-0.029187844616909674","0.1228710879504394","0.2935449210790952","0.7718992345993877","-0.5478659885745649"
"0.003497901657299407","-0.087936974288112","0.059593404800809026","0.06792767488033329","-0.044332946159207895","0.29683535999873456","0.3582455094487348","0.7240223230518154","-0.5848484451100476"
"0.03718305733975393","-0.050960988243333095","0.030502740118788504","-0.10850229196780348","0.09413994556547758","0.29583027601218564","0.4602195730767551","0.6732574430550767","-0.5637915980302001"
"0.03614941805866941","-0.04358627634520545","0.01977730801262994","-0.19936729751701449","0.16436015821382977","0.27090025163994347","0.5794889858675468","0.642671785639855","-0.4516709271377275"
"0.050978039999053405","-0.05821783944902492","0.06255035363160866","-0.10640321271411025","0.11454974273169763","0.2806948936265082","0.6695903345587477","0.5993035168188293","-0.38135107006201047"
"0.056054357357268506","-0.04840313059677931","0.052129635060710985","-0.07102378152732973","0.09692583380904415","0.3010921862947063","0.7504161247055586","0.5451998041002697","-0.3448066460066434"
"0.04252680835323375","-0.04211722700020171","0.03826387486274075","-0.010256222324652044","0.1319868705107483","0.26159829788207917","0.82136701252511","0.48655089209251573","-0.29961108046899126"
"0.0330632664908599","-0.03605722306412612","0.045277129523986374","-0.0009286679053105677","0.06167485018164225","0.29943675384627283","0.8849830740495598","0.4279872787309396","-0.26169780491326267"
"0.0033026586819834597","0.0017208611168178498","0.040501836700228194","0.008170788313333451","0.0173380719416994","0.2543065120973127","0.9283070674968967","0.3617346016924691","-0.24541238306324673"
"0.009071350288798028","0.019109999616730572","0.032597238581768356","0.03706963946756151","-0.022508044396539847","0.11489545090423672","0.9500261445808384","0.3233258398706448","-0.25227072018048685"
"0.00599340220734634","0.04563567093219921","-0.211935665736226","0.08950997852865525","0.11711877490175929","0.07092204111626521","0.9638681319470825","0.3016721692623383","-0.24455352652187706"
"0.00954551180027966","0.27536720704185247","0.11322014780140825","-0.02941516253033743","-0.008848169524093048","0.07906913366605565","0.9795081506619313","0.28391786533645064","-0.22573846709919299"
"0.06236776045824192","-0.031222128467294333","-0.03091127501587992","0.030265953033676848","0.07890303634242546","-0.26124245041482586","0.9755696058030826","0.3010628932182104","-0.20375705860595827"
"-0.09178559238870641","-0.010426451149080964","0.07075732711624544","-0.20092459446956742","-0.07504578115348177","-0.48799728079191557","0.9053893028472185","0.40465200624084013","-0.19513094755110838"
"0.012354385529195044","0.0942377724236839","0.10518269157535728","0.024248766993476483","-0.10388289025649064","-0.2493785178677193","0.9071873341958234","0.39665830454188167","-0.22153961289694102"
"0.011053312592845825","-0.18449995898009122","-0.2290961566915868","-0.014251801362916454","-0.07684077960132522","-0.1366396266235702","0.8501640542829253","0.46790704514220116","-0.21486431078032067"
"-0.029028921751431815","-0.023178136208548937","0.16357846444681132","-0.07807872931826496","-0.01323562692950089","-0.20229723073310543","0.8252770172038225","0.5010394764218777","-0.2173548383101214"
"0.01174568684144529","0.015816073883845403","-0.012982528504366727","-0.05086529223562759","0.0677436544576844","-0.1959711138765918","0.7792131664633735","0.542567731589637","-0.21486587518203537"
"-0.02279427211949341","-0.0731202015247505","-0.0670735650802059","-0.0009922684363139903","-0.08293965880726951","-0.1669261574182436","0.7318650076167779","0.5804525160135113","-0.21615024898980323"
"0.00241340076079646","-0.014157583926763813","0.03361734835067681","0.008020685825553769","-0.02133037345721398","-0.18881531004294663","0.6830898397633528","0.616533843346767","-0.23841012098825434"
"-0.0018278016861932344","0.01687625887437532","0.023277881155446118","0.09414260979927493","-0.06391489130759535","-0.14387426057380745","0.6384529980297325","0.6485939487887783","-0.2575896860104632"
"0.02095327992945535","0.028510792941969395","-0.04136623106264961","0.08457635709073541","-0.04548370795072658","-0.14579180315990956","0.5940159375570687","0.6740373163915604","-0.29828133901149717"
"0.015376549903413613","0.022669673148988916","-0.015638020535415253","0.004342847711726211","-0.001572885691660871","-0.12821268715987794","0.551319828072737","0.69894452107551","-0.31483270915301187"
"-0.00979994972871655","-0.021032790985520557","0.030509796379059685","-0.020100171178848478","0.001371291656653791","-0.12255465554148208","0.5087664194890875","0.7187703635514326","-0.30566531510487616"
"0.012121406516633154","-0.003039251629969047","0.005263958484446463","0.05641152934884933","-0.060726948737968627","-0.15243718198862108","0.45782219794528206","0.7451642017830543","-0.3253767767100827"
"0.008654613181821102","0.0039863681219915225","0.013207052886752632","0.050865458353118766","-0.0336595118260435","-0.12957447742400593","0.4146694455787648","0.7684872887522713","-0.34430603745793975"
"0.0011303754944343898","-0.0044844482157893415","0.034146818389131625","0.08601325797636832","-0.040918650169791376","-0.12321485776794068","0.370146764565691","0.7878866379973044","-0.37291894481978327"
"-0.0009516693431787357","0.009554724598191938","-0.004840689729925474","0.10187674844598746","-0.05542584661995475","-0.11948225174730617","0.3205439314883053","0.8017415752407734","-0.4121384958072855"
"0.010147647698943179","0.03810100523719437","-0.004365540369652955","0.0802434073345146","-0.042056748832930216","-0.10711774795983996","0.26471933914114365","0.8101861412123864","-0.46589133872434085"
"-0.00865146163862263","0.06864656802681363","-0.001354312613690373","0.13204904973847542","0.02958173419396495","-0.09143843776967721","0.22878725234918237","0.8181798429113447","-0.49724194908690744"
"-0.10164618299079844","0.1501963454680383","0.14051409655449673","0.14937561415175352","0.04652658285724907","0.024830071944881807","0.23483777053813823","0.8126598019515459","-0.5107114478504653"
"-0.036116733964582835","0.053182964558536466","0.006374171269125396","0.09939292523931058","-0.03453010190215805","0.07943175220237918","0.23538003396073376","0.793747873541815","-0.5649805433333712"
"-0.05493553166940738","-0.0704711421519071","-0.08313177632456542","-0.0831733150630453","0.03494773484492555","0.15685672196619563","0.28132972398063666","0.7730324880414655","-0.553497834747481"
"-0.06520629658939012","-0.10342302741209122","-0.01590106455735874","0.14314642634154176","-0.008973851073263041","0.12616815757690272","0.33835300389353445","0.7455541384512963","-0.5605063544293323"
"0.010134522120770678","-0.07587589676217874","0.027321661080085272","0.10858228591227424","-0.059889599373851174","0.30767450103014415","0.39706015443449144","0.6852114390408666","-0.6179511853930771"
"0.03653826331202978","-0.025504481780675204","0.03038737652630757","-0.17971133093941344","0.1378641449700453","0.28863702787315926","0.48741836474692135","0.6454378988801958","-0.5899014626485252"
"0.038302012878959714","-0.05431721177079149","0.025559683663257473","-0.27092443816037154","0.11833601811727217","0.26853534814218133","0.589649289996171","0.619653336692702","-0.49028036145649717"
"0.04605922957890832","-0.0612288995200641","0.02222027717515588","-0.14025544596506787","0.11879663941208915","0.2758468414560959","0.6761831161702991","0.5834867107132684","-0.4028772376562679"
"0.05393785787695257","-0.06282422817839194","0.05332084870294077","-0.10434862765906142","0.06186637999838744","0.28717867071620595","0.7732768089949633","0.5205606808757365","-0.3500943238023258"
"0.06711429766487291","-0.05133421376937988","0.06867719169192409","-0.055945482798493575","0.09434255561955517","0.2953178802543372","0.8432287905097349","0.46439761512802435","-0.30195768304103965"
"0.0074618262653949755","-0.031146360879299874","0.0821600767023988","-0.021046327226491992","-0.06008271208164386","0.29841196233057593","0.8890357796289549","0.41140278480977743","-0.29257127275284606"
"0.012904019115168561","0.034263517215623006","0.03838161837732498","0.024210816059338634","0.011098473721634042","0.16026809526171745","0.9127241291423209","0.36374521263809123","-0.302911968087006"
"-0.002613695679271789","0.05628522635586527","-0.17482558213251634","0.10788477391587868","0.09852455376699996","0.18627217997252657","0.9424629968446434","0.3227531203891645","-0.28900443684333255"
"0.002841622748674327","0.24820312364235644","-0.03235175418366568","-0.011591964341014054","-0.0007581716695223996","0.14911166301102474","0.9717737618449166","0.27791040354134927","-0.2830127782760356"
"0.02950295341156877","0.07992050449969332","0.0033783921303245775","-0.0668740431772916","0.08003163765927943","-0.048225738606819175","0.9814488829112195","0.2648962672387768","-0.27107639319288274"
"-0.011489867918426162","-0.038159072079231755","0.08622682078768382","-0.23945133588398645","0.0367094925807719","-0.381753991154953","0.9558768815088385","0.32204636017797617","-0.2349308915747639"
"-0.1055018215789709","0.1496491351103005","0.21298063694895947","-0.16818209887891644","-0.06719622444902347","0.045386995599178886","0.9404366440549455","0.3510235288367002","-0.20892427746960884"
"-0.00856942677504451","-0.15589067899477485","-0.19511337423764968","0.10125252101206496","0.09966423532118629","-0.32523279755843876","0.8856965785529747","0.41808045025341956","-0.19862269217831635"
"0.03714860269705111","-0.018538072995628825","-0.06043065970064896","-0.11470661537289047","-0.07604933407758471","-0.1317915744531579","0.8563287331924273","0.47376828068671184","-0.21591245992916897"
"-0.006551369131022357","0.05395467147329488","0.05298264924615629","-0.08746700523222699","0.0031238686244247564","-0.17658481745368693","0.8145173692923295","0.5113849836511698","-0.20895869430733222"
"-0.011030472682388619","-0.06934164384939706","-0.03266072652690089","-0.06766839548838373","0.015467094723576855","-0.19841484749094598","0.7841506176270024","0.5378031929245567","-0.18548641097998944"
"-0.011883635263601235","-0.04437061119129627","0.01356696391360229","0.037510655495301304","-0.055033289640179464","-0.18188614279450366","0.7392283740920167","0.5796239005934973","-0.19897311816240892"
"-0.0011272239512359473","0.0013186334418109525","0.016473809121174597","0.01165769396886061","-0.06980008022212972","-0.17354197495323304","0.6902534249776355","0.6135483907305402","-0.21925402199176589"
"0.013132076035915805","0.032727118903513076","0.009584560927416616","0.03345252284835452","-0.03506037040306419","-0.16933047597430173","0.6279787519196057","0.6591222388313089","-0.22923177612811568"
"0.012643148248990113","0.026470680480044428","-0.03176303661074455","0.029658738087471333","-0.005934383683890022","-0.15745274815679153","0.5793462849668639","0.6903902854159539","-0.2463353800749191"
"0.007514328578084977","0.006959825019729747","-0.009412645349419404","-0.021891717000735018","0.018558480939307256","-0.14390579262044428","0.5409026623228831","0.7097774491401045","-0.24892602931446056"
"0.008631643420019219","0.0076692341399149325","0.012567814160410603","0.04823637467439704","-0.024462914840178884","-0.14043923824330798","0.4974074277947265","0.736341884664082","-0.2548238237788755"
"0.014843323290155742","-0.007448644630550466","0.0054176095956769395","0.07164948373164469","-0.022848365971748264","-0.11508156048855385","0.4523710235391943","0.7574228357909083","-0.27932079022934614"
"-0.002735107277367411","-0.014588336695547145","0.02834461005430994","0.05424570879718957","-0.024140005066492755","-0.1349270423406075","0.40736315946379853","0.78281746131016","-0.28604771760255154"
"-0.0006579845315689911","0.0021863266657304956","-0.0010436701496809267","0.09229217459682967","-0.0713022438261892","-0.13320460429307077","0.35376470116729064","0.8032891363928583","-0.31904094976555203"
"0.003251797066565017","-0.0011189642053538458","-0.035282816142464535","0.0830504678078138","-0.03731599014572461","-0.13119049481414335","0.30872829691175874","0.8162179740492529","-0.3686011960872142"
"-0.011883635263601235","0.002498924090346907","0.0491184073047484","0.1134988948624771","-0.013320628178750618","-0.14868092693300894","0.2536457492481485","0.8343134725598522","-0.4024235611590051"
"-0.040054407416333405","0.12731313079022938","-0.052004900394586176","0.16469993962603502","0.02467160616467888","-0.07913502732256986","0.20624051004127963","0.8432820159294152","-0.4449283557473751"
"-0.07546065453665722","0.14406478325441238","0.0685870051701149","0.12066507815002325","-0.016280951015749588","-0.009846705118095399","0.19730743365852813","0.8356782508986987","-0.48799633495303674"
"-0.03724881508196111","0.011057729047445045","-0.03927440479290855","0.09794686378336856","-0.054005993350364295","0.15564667967650736","0.21420322029938693","0.8110391276741655","-0.5396685235895424"
"-0.05600198489592315","-0.06346264026241935","-0.13269261030026677","-0.09251709677836296","0.003054221418335593","0.15798005112763264","0.27253934849856803","0.784669660484309","-0.5381354099091376"
"-0.05011188169101296","-0.08717368599424186","-0.013930322043750398","0.0631890427247079","-0.10823109196392096","0.18724573191243868","0.3129237033918367","0.7621508178933409","-0.5473497360087142"
"0.02543402417809317","-0.06975836558336661","0.05345237071391251","-0.015090647872652956","0.011443860548194395","0.3293330755638154","0.39469131948315483","0.7081080327791941","-0.5765884040564373"
"0.03126342158395558","-0.04716839953316585","0.012022937257813381","-0.164138361413884","0.13061133819048734","0.28572031355925265","0.5118772991239752","0.6620223928013578","-0.5113059205020508"
"0.035215861311150204","-0.04824738611034625","0.041355268415867064","-0.17571993959043322","0.16572144451466342","0.2842816639314474","0.6218140730101034","0.6233942916036475","-0.4215249060954791"
"0.04955555546460852","-0.06277652266002505","0.08378844445728706","-0.09722039530565312","0.142137950798244","0.29171140242025","0.7060646847733043","0.5778813711072915","-0.35943380203907843"
"0.06513561675536823","-0.04724977953508583","0.07702028001966178","-0.07494843157834342","0.11443735746732647","0.27480234241125095","0.777786157456544","0.5254714457914075","-0.30633800784219667"
"0.04231843979974528","-0.04884230198645091","0.03263748849242764","0.00795551491106878","0.13084085739237208","0.2586027534515805","0.8479664604124081","0.4674196243068988","-0.25581565446599464"
"0.024848295252145297","-0.03555350891431108","0.04109723475624631","-0.023442470688781435","0.04778814702209142","0.2457534444470731","0.902050101771238","0.405370951972911","-0.2147767042842976"
"0.011811314732307792","0.010815272765862766","0.02743982212486306","0.02722726099684665","-0.05592287440886379","0.16639910757966572","0.9325310141571113","0.3651099909769378","-0.22733885005333"
"0.0034831353818553477","0.08175857006029971","-0.1702118734936663","0.12354280587999295","0.09402439451901147","0.2005640801106689","0.9562193636704772","0.321912319448268","-0.2355159778160613"
"0.0004937849530680459","0.2563270927995404","-0.13428757563967011","0.04821805353377877","0.11004166902847172","0.12521431316613868","0.9737144940942045","0.2885971053553531","-0.20910105486336983"
"0.02800335610536043","0.06997530702367946","0.04029056642228628","0.04596978784933679","0.12263040152908812","-0.07638188550059181","0.9841602000241951","0.27986008688255865","-0.18411755947962785"
"0.017068108790394783","-0.05266014655928297","-0.006850262551534994","-0.11994515293681433","0.040847169778887235","-0.3508328779217135","0.9555629395273358","0.33449996251995084","-0.14882935000116404"
"-0.23788968442136796","0.34260392586953076","0.3408868364444637","-0.3163085207776287","-0.21676834819864574","0.3368613516983581","0.9356989741522723","0.3595777644962563","-0.14386393895870964"
"0.030016491657567906","-0.12651530450862564","-0.2740391067265025","0.1321537419705798","0.12807079805928032","-0.4484048547335483","0.9003662311431795","0.4173249479587009","-0.15854272024772972"
"0.054246308964006375","-0.06118961262258548","-0.13708920323846502","-0.08483137828899873","-0.008065271612008948","-0.13464916617962044","0.8637491800279398","0.4607419588632568","-0.15582379006758298"
"-0.04952123067325036","0.0436586981269363","0.16450955677845255","-0.030958064300976015","-0.055129845994075805","-0.18646026030975854","0.8325833033187884","0.49712792421857643","-0.14939253461845567"
"0.00028869779412271564","-0.07802966060609538","-0.03643937477862874","-0.015663837843424545","-0.00989208616990677","-0.20769709371966222","0.7787279834010511","0.5464792837929383","-0.1564041831037363"
"-0.014722041543404766","-0.021850800315164474","0.001447314985104537","0.01719512785544256","-0.08786878152912535","-0.18350216018464108","0.7294676324853041","0.5857166610347766","-0.17868439232447847"
"-0.007880333920988134","-0.013460241496518484","0.036534047270817153","0.06612696848813761","-0.0612208107447827","-0.1891483672855481","0.682461955800348","0.6251002645272056","-0.1902390633892448"
"0.009822789639173757","0.048332435823409514","-0.02383413823501945","0.09711586919103989","-0.06357615262343443","-0.18292275882768938","0.6294057609264352","0.6566242070503845","-0.23175672049563975"
"0.014539794294916615","0.037308251770215274","-0.028882078275173025","0.03838614428627435","-0.013901549193176144","-0.1686210049249731","0.5781190572209907","0.6874657604041399","-0.2593965699909405"
"0.010549618530476045","0.012327257077396698","-0.0036352800611146045","-0.013059618569827606","0.02131904292611412","-0.14421323007515335","0.5260046882915851","0.7175883680258245","-0.27264079490758164"
"0.0016800090804079074","-0.017706032631171122","0.011668036593286451","0.030016000329527594","-0.03778294300473151","-0.14062645977021415","0.48168178853946775","0.7437506813606777","-0.27459629705095534"
"0.003361723783759697","-0.01171057145523896","0.015806178341670415","0.08876666368071402","-0.061293623732966825","-0.15263228652718644","0.43287808050590626","0.7676586733322573","-0.2920863082212894"
"0.008211624918499147","-0.0036939397143804543","0.012582845247378804","0.07556497321234923","-0.06728486634768242","-0.150578761989963","0.3738855281635835","0.7904212263408766","-0.3303672181799723"
"-0.002182192296850775","0.010290512063827048","-0.007411423131681108","0.09143893290517881","-0.055694938098026524","-0.1459159605935421","0.3163199848280905","0.8095037520429631","-0.3719490157566699"
"0.0017735288248869694","0.044807839878185644","-0.005755080853824261","0.07633184381251396","-0.03866777910027339","-0.1108917397916853","0.25952502635628494","0.8269290469050217","-0.42459113345628907"
"-0.00628885756757229","0.046519626125467936","0.029217790948104252","0.14808004777946157","0.03205262711908279","-0.09529717197685904","0.220967242991758","0.8344840698522081","-0.455394203218711"
"-0.09536231244071318","0.1520203799938309","0.05125741448636186","0.14444199271383368","0.05094126598867358","0.01059098798485618","0.21805614461782588","0.8319251104668707","-0.4706784079713195"
"-0.048225079828715815","0.07475147127429334","0.050785605367637834","0.10496647794596854","-0.0567713040103136","0.06297005310504013","0.2182844660589188","0.813427489767147","-0.5290931679981777"
"-0.05990684440224248","-0.07139719044961719","-0.035153381782460594","-0.03415117738016019","0.01874051340976757","0.15708138779848305","0.27156898237392413","0.7889102217514392","-0.528498695346592"
"-0.07088310914899716","-0.09838167660349674","-0.02372558038469356","0.13313523164655855","-0.0423495836767142","0.1707564422742924","0.32730795418067604","0.7531944600446604","-0.5523088894443099"
"0.01091385332476297","-0.07865263855182762","0.058376304286578445","0.10746600498746109","0.0012685620276722755","0.2852473328597002","0.3947769400235645","0.6927908330298179","-0.6037933498750517"
"0.029470139466137506","-0.039134228998790106","-0.020038788775549144","-0.16464873604539296","0.14289298982789242","0.31539985245616703","0.4867048602435068","0.6541627318321076","-0.5690010557401475"
"0.0435637290288614","-0.05324804691798075","0.025825232866362326","-0.21283333587144287","0.15055734827979544","0.29316975957720326","0.6026636121384544","0.6165825854302973","-0.474542480206626"
"0.05633491659070573","-0.06012746328718164","0.011467204570183572","-0.12257816257424001","0.13071106032647867","0.2945492866175645","0.6953335770419481","0.5701191943051017","-0.39643190259170824"
"0.059005971748809866","-0.05268259621498504","0.035382081466782116","-0.0991558929466832","0.10586600244521685","0.2943522113260843","0.7969080781480564","0.5061695807134349","-0.32950679723688786"
"0.056026465503651944","-0.04460633257616793","0.04585206860052","-0.06362204071754868","0.1080440605265507","0.2646726724291699","0.8585548672430814","0.45061579100985066","-0.2804002274124884"
"0.015545541722384587","-0.03611895961730679","0.04657397830518713","-0.0448939090469729","0.0427323930164371","0.28849907516912315","0.9037054322191597","0.39833990642367484","-0.2534408926630817"
"0.015035284870928572","0.005974425444757326","0.03638970708290309","-0.006963389894388419","-0.011861519211182631","0.15441692985767105","0.9321029114550625","0.3538627552023363","-0.2494454106837406"
"-0.00783111300284128","0.06972976391443815","-0.021671331832373002","0.038968494827355066","0.022873441934740463","0.1606425383155298","0.9562764440307507","0.3175742740140771","-0.25249286522397413"
"-0.01493533218870792","0.19150371195983396","-0.15490939189965236","-0.00044407373595732814","0.0651619591592429","0.11089679324010396","0.9797935524632971","0.28127360730493545","-0.22275828183269153"
"0.045250365824027895","0.15722589390974673","0.054670306288530215","-0.06596714671668723","0.054233679367434055","0.014729174955356902","0.9890691110076874","0.25863290950514173","-0.21060757371462488"
"0.026726893628084624","-0.046760096420084586","0.010536947298929466","-0.16985717459258684","0.07042982056525966","-0.33317493180508984","0.9739998958955703","0.29990526873436735","-0.16802925224566406"
"-0.2208756537152624","0.27946426920747897","0.3137724256746065","-0.2989426967773115","-0.05195773233492387","0.2601990633125699","0.946116139902126","0.34819648799194663","-0.141991350106215"
"0.029329039500783118","-0.09878436730265248","-0.17049996932722344","0.045260497976829475","0.04238890565913373","-0.4779267333972786","0.9150073435532479","0.3913576029579688","-0.16304350398091855"
"0.05095507023725152","-0.09184742369071507","-0.1885205724813201","-0.09524563807758389","-0.04539190026997268","-0.142029635845553","0.8673452427251497","0.46139997699091495","-0.16363954103421885"
"-0.0418591744150524","0.05649709498155349","0.1808308120447555","-0.03175634257077206","-0.08066187858994435","-0.1936002981200853","0.8325262229585152","0.49759097401211366","-0.14998700727004127"
"-0.0017785807680463506","-0.05817574634458355","-0.020949004597512314","-0.0009191147391310409","0.029955296481170464","-0.19754771620843323","0.7976501228316079","0.529651079454125","-0.1390909493271632"
"-0.019168331149339763","-0.023484012767489546","-0.04512817810663503","-0.0037272221347512983","-0.07946363006700125","-0.18048887897790922","0.754925473167139","0.570606615140404","-0.15410138377969945"
"0.004378956092128612","-0.013012651485958605","0.04686791956145413","0.009775065905043245","-0.032624301080990924","-0.18368938171154725","0.7043808141452454","0.6064807886186563","-0.16909304541165932"
"0.00614434635633011","0.03187683819379744","-0.0020449075538404153","0.10050004559381459","-0.04544571856558703","-0.17219792146533827","0.6519525032343376","0.6451820029416621","-0.198167451279339"
