"AccX","AccY","AccZ","GyroX","GyroY","GyroZ","MagX","MagY","MagZ"
"0.004629982774677708","-0.044576867403058974","0.07100951535315633","0.057464994934399855","0.16513577482709543","0.04037734168975283","0.900166449882223","-0.1842742180132115","0.19718032805080174"
"-0.008027996675428816","0.004342896716609908","0.1313534841077664","0.19842392489266472","0.054246342495813914","0.19334521218375011","0.8753364931633937","-0.2028693228799958","0.24710038676684468"
"-0.04295844158699941","-0.005107987402914139","0.08798879820451161","-0.0392614669597562","0.10893206240418754","0.005567538805026511","0.8725680956901452","-0.1894408788674163","0.2682980300010152"
"0.04603625981710645","0.1862140118350354","-0.18418243377022037","-0.01873262889698476","0.12828923702383271","0.19720197563801714","0.8060694759719006","-0.21704108366641128","0.3504447640398562"
"-0.07813499108930448","-0.02091913960352887","0.10693214308637826","0.13780712250421737","0.0407996830474628","0.1909980454622212","0.7590637992869438","-0.2699140587758325","0.36804428333021916"
"-0.000144446285569857","0.048326823409484","-0.04819702502930904","-0.02301715849585731","0.09132239950096141","0.17835172400793833","0.7236454357374409","-0.3056054494408464","0.38303125175703495"
"-0.017166680478033255","0.029216553993102995","-0.13670507546038885","-0.10182292755954278","-0.014463792093241397","0.1978247335590945","0.6916518938043285","-0.34043166812319847","0.3822959829511265"
"-0.01493533218870792","0.018457556497889372","0.0045650129404251946","-0.004707534023118871","-0.027843970117598302","0.20537271722278516","0.6539217756637622","-0.3853718691380742","0.36870133205039274"
"0.00860211086913107","-0.0119210369774458","0.0028381080598565297","-0.05526236598401238","-0.06500392034826229","0.19730248403667203","0.6236691847189816","-0.42593746815611144","0.3517588614802033"
"0.018362618937657796","-0.04041806868425182","-0.037199279730909925","-0.06761343206652892","-0.011865951306115577","0.1982858897411581","0.56199385544382","-0.4855002942300573","0.3195478301745523"
"-0.00025601370003612524","-0.019017934386260416","0.008013394809046238","0.038113944482802906","0.04160854037272559","0.1927263957685023","0.5091659820109995","-0.5203021418706444","0.3274324148166349"
"0.007858875005113165","-0.009786355340875899","-0.027738045544815636","0.030106297379717636","0.03259872453046374","0.2172366497698917","0.45219978245837494","-0.5475124100013975","0.3502570358340923"
"0.0017062602367529083","-0.014584127385103004","-0.026168132017025936","-0.07316866363256862","0.022957335160256952","0.19296879837702297","0.3833894081490667","-0.5872737646411857","0.352196893960319"
"0.016792471648772248","-0.0274225242397202","-0.031859068555263596","-0.08862778035568451","-0.0034522522323350642","0.1460294054522748","0.332559347325808","-0.6268035943842055","0.32909068063421576"
"0.013977035130770596","-0.020482774420820016","-0.04190484501234342","-0.08024978448152995","0.0006757693303906391","0.1353479246540493","0.2833560767703339","-0.6565240798167657","0.3153708775963061"
"-0.021514528247674483","-0.012621185614653883","-0.01218087053272943","-0.060911820558946034","-0.004081134845499265","0.14594269232402352","0.23500901161895793","-0.6855987326425502","0.2968640053114177"
"-0.021662191002115107","-0.02341245448993922","-0.014769557732808188","-0.11413996866662539","0.006445723776668386","0.14498687716034467","0.18826019655523077","-0.7135157609844918","0.265763699223203"
"-0.015657238988195533","-0.09816840487432714","-0.0045091707562379705","-0.18086294549256185","-0.12320365838204375","0.0949671974297614","0.14328087265997147","-0.748476020396552","0.20392289944115416"
"-0.04259748818725563","-0.1451990304666674","0.15860567984149873","-0.13537417064320023","-0.1143505487534825","0.014486378196253324","0.14870350688592276","-0.7634154689985686","0.12930093765001505"
"-0.014525157870817231","-0.01332133425186197","-0.06458926042851743","-0.09959036570991647","-0.038428762552103764","-0.15602001078773067","0.17715806648209909","-0.7578954280387697","0.07615821140169235"
"-0.062613994900321","0.042821045348553084","-0.14510160765290236","-0.04527080108254874","0.08094338290262848","-0.18388251549719783","0.24536909700853857","-0.7328785536668772","0.06634941265053004"
"-0.044041301786230856","0.09544865072811391","-0.04658535848216323","-0.10061634958453958","0.012920223028179927","-0.1774145044308185","0.29908171602559297","-0.7114320369135743","0.048003673742255636"
"-0.030784467832003958","0.08002854346775949","0.011237980493918531","0.02755180691637029","-0.022223124007993266","-0.25935052761661614","0.3837604304908425","-0.6707811392493591","0.03892075738671365"
"0.017576724944579243","0.04521614299126691","0.04234982533692958","0.10987000036715835","0.027818393567071113","-0.33613106117729247","0.48753252546746784","-0.6145327748554691","0.06214117203798989"
"0.02668915759083868","0.056717382228129984","0.03285506347629232","0.20660300552582095","0.038143591869789675","-0.37174256634776015","0.5891641069338495","-0.538056445796532","0.12997363038733564"
"0.04783282332946764","0.06420293930128657","0.012619170374218617","0.19520463875545443","-0.009265577893313788","-0.4019936235899671","0.6908527687605039","-0.44712808897088063","0.1791114882460291"
"0.07289283345531686","0.06623603624580462","-0.019967808642643758","0.15266033293402909","0.014696226783453612","-0.3352836374239277","0.7729914071935973","-0.3638400537385934","0.20514313277861934"
"0.05126680271884845","0.07011421426833599","-0.03583395599796517","0.07704375099082388","-0.02493145059023326","-0.30420486395750407","0.8273889905339297","-0.29126309136207496","0.22375951318353665"
"0.035299536871999916","0.06656997487437281","0.0021203736571250146","-0.042050206292437144","-0.12464883790839391","-0.16082667714693216","0.8711410866833157","-0.24271597616596205","0.20542472508726517"
"0.022721951588199996","-0.03176653261806936","0.07750461504419265","-0.06592526982384547","-0.08666736722408727","-0.1403288760800791","0.8975407533096577","-0.21517669897137987","0.15572368261128003"
"-0.0032043466970343376","-0.14223848212095788","0.0022209984337732383","0.07756982945714848","0.0007069522840260152","-0.13387466028410336","0.9213718037237066","-0.18521250312116855","0.1374671146007435"
"0.0002443989677905085","-0.302641272112197","0.22155253182276866","0.029700614980313088","-0.0035036961913781964","-0.0281220881229265","0.9421775950432772","-0.16765316752940174","0.12983283423301273"
"0.02587044965232886","0.024290257669981576","-0.015462657854119596","0.09982739800254382","0.15375478819570707","0.16777272236128254","0.9179184419271796","-0.17353877411567747","0.19264356307817487"
"-0.08856982573644347","-0.09917302696699445","0.207202019070074","0.22487180002803867","0.014769039771637736","-0.03706142334446725","0.8764210200085841","-0.21021719197217853","0.2394973944334079"
"-0.01355714648059523","0.04719030958956707","-0.10615856649945954","-0.13461515196044332","0.23687239709893443","0.07683627061358528","0.8541882196821836","-0.1977635896302038","0.2799528227755223"
"0.03443488940988634","0.10751253446100993","-0.23489565108015031","-0.0017904158408199068","-0.006760177943360861","0.19772225440752478","0.8046424669650711","-0.23807329270970723","0.33453479860136803"
"-0.06674855202465908","0.007265701578670354","0.16253046366097296","0.09076235935520414","0.002428346298161604","0.21966067585509788","0.7713646169258123","-0.2686955066875767","0.3530416708862565"
"-0.01060389139178231","0.05241687005770357","-0.1047431391432874","-0.029599682589421434","0.04475374488407035","0.19229874238599037","0.7263852930305533","-0.3052520693352522","0.3758819359208609"
"-0.010554670473635397","0.010498872930811818","-0.10507716329813631","-0.0609811791627152","-0.02597615868157072","0.19541450274429192","0.6846310094907284","-0.3511427409789674","0.36505627605514424"
"-0.004631753323293943","0.009725341981527613","-0.0019225712071270166","-0.0377395036355385","-0.010193468625347153","0.16780622516083415","0.6430479670317232","-0.40432035411045264","0.35958087005369793"
"0.015192791808998577","-0.029936885678351233","-0.02696143938479201","-0.09199363561784096","-0.03983278691121941","0.1945907280259048","0.6113969072602495","-0.4456292699023259","0.33724121356779724"
"0.012205082077482863","-0.050263645813087766","-0.02101580942848209","-0.01089366715287771","0.01347740067689324","0.1876319994837398","0.5750937981265124","-0.47833520795111284","0.31501106520192534"
"0.007348618153657148","-0.0202709057951318","-0.021604527001403227","0.05431114144225482","0.034346236246882766","0.1786591614626474","0.5209530764074096","-0.5101150464128255","0.33318941312672695"
"0.0003920617222311602","0.004174664609192575","-0.022022057194964317","0.0166546542072036","0.051460454252247344","0.1935817025335263","0.45862132298910663","-0.539823346324503","0.35917412560787626"
"0.0014946102887213133","-0.00035104566999515807","-0.009224756762316915","-0.06970858536151821","0.017393473128361238","0.19896777024967946","0.38281860454633504","-0.5851778550493856","0.36252194527733195"
"0.015683360293195857","-0.027405686997943646","-0.04282341143817781","-0.08819199893954996","-0.01753966597670648","0.16017546987472178","0.3258809451738466","-0.6218075308223566","0.33805470245944064"
"0.0034093040046350217","-0.02086582167123647","-0.03674834712186396","-0.09315048478259458","-0.008795775830421428","0.14785235189846643","0.2856392911812608","-0.6559148037726378","0.3162000105050966"
"-0.002520175934792698","-0.042466599767065065","-0.006304550588550658","-0.07614454033013618","-0.016091953824680354","0.13012740018273944","0.24208697629283127","-0.6865857598340375","0.2864138018572289"
"-0.02980004946906631","-0.053734923826019236","0.04388508385865371","-0.12695037191749997","-0.027081016632712458","0.11023856176656016","0.20341503220775786","-0.712930855982129","0.2556263761119539"
"-0.03608392001915157","-0.13044960667041214","0.06857030396237246","-0.18418692386187652","-0.09933207849498277","0.04397593651218083","0.17578813783554287","-0.739397807339046","0.17751579849703616"
"-0.04044817476150844","-0.10103354218330292","0.11040599429680653","-0.16110228668285642","-0.08252810713492446","-0.027617575376737247","0.1844072722367915","-0.7518392241601382","0.0997024572079113"
"0.0041902759058988995","0.023924047661341676","-0.16545620458900548","0.0083348933871571","-0.011913912904854251","-0.17593643974471718","0.232725797208031","-0.7380208434793168","0.06625554854764808"
"-0.09552638216786945","0.0557380159981275","-0.14516423718193652","-0.03219343263980793","0.09943946479244399","-0.1376171200693119","0.2823000901052803","-0.7096042087811906","0.09139548410285994"
"-0.02064495869374622","0.11533343326621608","-0.014239294386985608","-0.00919346530350226","-0.011020370908551227","-0.23940650811882244","0.3460588525304127","-0.683393153362807","0.08388635587230504"
"-0.002920506069054005","0.06167594993132311","0.016653764634599427","0.04113954999062005","-0.002786804835974051","-0.3189066807019251","0.4625313276678188","-0.6228433000973741","0.09325712214335168"
"0.0291485628009112","0.05511784425935801","0.047915920347292466","0.08592950419068479","0.03679813447943083","-0.35081317039256554","0.5687864183163271","-0.5562372429533092","0.11526825426916565"
"0.034797483506901705","0.06006659023818148","0.009530699532447234","0.21208626118228888","0.020062227434414208","-0.3937164613477997","0.6521237443151573","-0.48491538922769445","0.15656845953721749"
"0.050531770341188345","0.06399247377907973","0.0033783921303245775","0.19780885802905138","-0.009249115826419988","-0.3494336433522043","0.741283267061851","-0.3964606931412024","0.1987603737826477"
"0.06405111585886528","0.07152854257756595","-0.034648170248251675","0.07965320487602602","0.002898781517472957","-0.28372874117271385","0.7953669084206809","-0.3211419885661084","0.22110003026854846"
"0.06059088531313948","0.06126904992172322","-0.031758861308808936","-0.0069705874853455965","-0.05375114789171985","-0.2549754561457563","0.8564143537328377","-0.24878436556547612","0.22885946277345515"
"0.02171620416073202","0.03372191927181074","-0.001221538012137948","-0.0440550625372364","-0.08548494761161897","-0.08393183991719733","0.8883793554858136","-0.21874705658996946","0.20554987722444107"
"-0.012113332881620005","-0.06294349197430914","0.062034286312367154","-0.06413372400195894","-0.08316442933601181","-0.08894346457953818","0.904333316182165","-0.20993692499187971","0.16130859673275524"
"-0.002808938654587737","-0.19276423848541308","0.011811249449677907","0.08085585689232533","-0.010053382767645084","-0.08154328738445761","0.9216286653449357","-0.18696721812825692","0.14749492959196367"
"0.005350248876893731","-0.18873733149385555","0.12851010348961536","0.037167788435159395","0.07446619273633621","-0.015834837849720524","0.9255957503839211","-0.1755859416239473","0.15528565013116433"
"0.043599824368835784","0.04541257747865996","-0.03511162876310449","0.06607723967788802","0.14251626175859194","0.22973122324973486","0.8860390607146131","-0.202808395275583","0.21951998453670257"
"-0.09746240494831349","-0.10851208373905259","0.15903573594086667","0.2168104981559999","-0.02045820049005195","-0.039948576364651815","0.8412880582604471","-0.2361114238476153","0.26465297400576676"
"-0.03885669840809257","-0.01661441812265831","-0.03291959524690877","-0.16616677341090674","0.18420961194924151","0.09719217747057257","0.8431431699693253","-0.23049389872075585","0.28031263516990307"
"0.04518145653862226","0.11382650012721511","-0.11463860473068527","-0.02840880844923389","-0.026545999458663882","0.18708610092633973","0.7915139841022419","-0.2682811989775697","0.32502323617599854"
"-0.059168530630039254","0.002288893530219295","0.09109522284460612","0.03281520888541898","0.04999311425123246","0.19526669627568183","0.7480472897542217","-0.30789632736676736","0.3447659858154991"
"-0.0013077006511078356","0.03227672268599043","-0.11978675201729348","-0.04346747738455046","0.010943983555399895","0.1770549685899988","0.7172238952067091","-0.3386769531161101","0.3399632725513734"
"-0.007338903821372441","0.027781179131652352","-0.1079205439162873","-0.01000600788992253","-0.011630258829145658","0.19175284382859026","0.6847737103914113","-0.38040017661799036","0.3339872580012234"
"-0.004615346350578295","0.01201478593209361","0.011817094872387763","-0.0013997829497803657","-0.03655778533398121","0.17654257283215036","0.6412213955029817","-0.4185408569803984","0.33930622383119974"
"0.010063972138093472","-0.015469485681853107","-0.015212139737982942","-0.0642056999115307","-0.03429899980922583","0.17779794243887906","0.6048612060089714","-0.4558894784854401","0.32119045197498614"
"0.010277262783396624","-0.028968744276199773","-0.03215133969075635","-0.033553123004263816","-3.985571217552118e-05","0.182251844026331","0.5602243642753515","-0.49483440322609706","0.3065632959425511"
"0.004392081670301112","-0.026141490761221235","-0.009930382789435163","0.03867012196585752","0.029795424485374887","0.1819089330191555","0.518584241456073","-0.5236897166759956","0.30610961944528847"
"0.001474921921462548","-0.005562873551577187","-0.03296552356820048","0.009868634587486552","0.029383872813029822","0.18130194112139658","0.4579363586658285","-0.5567124782677292","0.32181621266086574"
"0.013263331817640809","-0.014334374965417557","-0.010702813647523178","-0.03707994257328078","0.012192093146338666","0.16879751387697947","0.4005135162310181","-0.5912462444488998","0.33381517381260656"
"0.010538133649575104","-0.01889586438338045","-0.043908989941436646","-0.0400976961636901","0.007289088126766263","0.13776800923342586","0.3478283436988812","-0.6210154719649902","0.32403766309573817"
"-0.0014816145618934881","-0.008058714024254024","-0.03934956022774955","-0.0399157934104087","0.008967110926200873","0.1430082412338837","0.3000235419701001","-0.6482866677001562","0.3158558421278627"
"-0.01756044782320827","-0.004161594104724052","-0.0013426217682706648","-0.0487191014774874","-0.006384083030479375","0.1413961653495759","0.25219020006118253","-0.6749120308285466","0.2993044719863481"
"-0.02709289897098778","-0.034265459918405225","-0.03442270394372868","-0.13424872914807795","0.0070204715160087396","0.1497344209321021","0.19508129960787443","-0.7061191498087788","0.27209952616773364"
"-0.011227356354976153","-0.09125531402157316","-0.016114004956074898","-0.12675276532940294","-0.09918961830070948","0.07461917358443329","0.1576936636289472","-0.7368632189954737","0.23045515252244803"
"-0.029668793687341245","-0.12258801786424599","0.13501939920723277","-0.12607750043232954","-0.11958358655645471","0.006124473578749487","0.16074746290356223","-0.7525094278086788","0.16837969248319443"
"-0.01877456380416472","-0.052630681386174015","-0.04170025521749848","-0.09479153552083104","-0.05059961181618517","-0.15609292864557833","0.2048991215748602","-0.7431631332917565","0.10743060167852397"
"-0.044467883076837134","0.021695919332911942","-0.15509310518481925","0.02256322205659565","0.11016988320331768","-0.19075058940528197","0.27105525913146566","-0.7164159149545406","0.08756269990184755"
"-0.07135891135775038","0.08639161775581293","-0.09398338605521817","-0.055431182208280715","0.04277354818367161","-0.17379620207924246","0.32336940932182706","-0.6913868550617656","0.11603481110936811"
"-0.022909120928502825","0.0883910402167779","0.0016648482159498665","-0.011837598490589001","-0.02507707656660151","-0.2656963520022778","0.39514796236534","-0.6545622109546738","0.11659799572665977"
"0.00576206389205598","0.040047109765866944","0.02184324741037021","0.11810404442216939","0.002464436214044171","-0.3384368420876105","0.4996050216652434","-0.5962301224898662","0.12859695687840056"
"0.020579200951539044","0.07108235567048744","0.04767584048599484","0.18939421987366026","0.06663246494235274","-0.34324547919972676","0.5952717054830788","-0.5221665265656759","0.18361696518436202"
"0.040955020367076655","0.06759143420881668","0.006114049958536839","0.2266908275608526","-0.01006272182482522","-0.35662689149123067","0.678609031481909","-0.43328533724829416","0.22889075080774907"
"0.06157038158426242","0.059271030564239637","-0.02955012658487077","0.15307910186244666","-0.004980216960468475","-0.30899379354047235","0.7555248169500074","-0.350655320143665","0.2570499816723299"
"0.05567371559026595","0.06076673887538957","-0.03322439228820836","0.05508324665402476","-0.03125035165177742","-0.2935036756301305","0.8111210878560757","-0.27966247548187934","0.2817049526959851"
"0.03268262472385734","0.05604669876403086","-0.04079838999940653","-0.020924622506670622","-0.018211286648152667","-0.16463614253124392","0.8479093800521346","-0.2289219665269058","0.27796603259785463"
"0.01435603620050161","0.020313862403753696","0.10874422412643339","-0.0061480991368754075","-0.1536489847892933","-0.07264139646829809","0.8763068592880373","-0.21146011510219953","0.24131210042245865"
"0.005258369829686228","-0.09642995966089865","0.05066285149073087","0.02779652500891432","-0.1101843795165125","-0.0984976747104971","0.8995956462794914","-0.19943300599111427","0.18075411004646297"
"-0.03185092105851973","-0.355173466455024","0.09033949319426056","0.03878397476827106","-0.0404168737077399","-0.04003331873998829","0.9098986513087988","-0.1767679371495555","0.18638595621937912"
"0.016685826326120683","-0.04034230109625737","0.08278637199274044","-0.06519765881071989","0.1944350881159688","0.02924455847403773","0.9132663925649158","-0.1681040318020564","0.20880383279101483"
"0.03151116687196156","0.12622853179912347","0.07914968400682335","0.08403719209539777","0.17874863783543207","0.3326636479898304","0.8675164838059694","-0.20886459915421454","0.2644652458000028"
"-0.1797433731171847","-0.19557044544817093","0.0525179381407228","0.04163422078731334","-0.06868572492470311","-0.11122676778720161","0.8664890373210522","-0.20076122776731317","0.2752439736142785"
"0.09118988942778447","0.1577731042674845","-0.21459115776727453","0.024959365518885092","0.23307345858498002","0.15454305804421836","0.8109783869553928","-0.23198053226842796","0.3255238447247022"
"-0.003222394367021544","0.05215869901712985","-0.08821311878020388","0.015153629329406773","0.08512063237693084","0.20383552994923984","0.7650001567553535","-0.2644671309413289","0.36422714314635385"
"-0.03359006016637622","0.03144748852849549","-0.017024220778038075","-0.05890958161994939","0.037138456054639245","0.15719174996171192","0.7308946414921336","-0.2981722817024857","0.3813886299566011"
"-0.013475111617017109","0.028958382952529272","-0.1084842096775948","-0.0744236617649201","-0.05471829432173075","0.18453594665458628","0.6995860638822994","-0.34167459125321953","0.36408634699203085"
"0.005161568690664019","0.00011773120313354177","-0.06394626393043334","-0.03286738888398","-0.03905875318900119","0.18888736909046852","0.6758406340086598","-0.38479914965659395","0.34032308494575414"
"0.00492858967810213","-0.005194979818759632","-0.0010077625530346696","-0.021690184453934048","-0.02849295544706551","0.16487768632943878","0.6312323324551766","-0.425011368569037","0.3313121310690883"
"0.01420509205151781","-0.0354061830487663","-0.007711627340851529","-0.013730957508197068","0.0053900937371033075","0.19753897438644824","0.5947579822406202","-0.4627255557005555","0.32356834258132855"
"0.0006857465338408757","-0.0370309768802031","-0.0058114474299550065","0.02394254221457111","0.01990868700280855","0.1879670274792561","0.549093694022083","-0.4933233986366598","0.3282928357597193"
"0.006385528855249824","-0.011472464794448954","-0.014715278807645244","0.05879589493502703","0.0741258711611278","0.21587683025867854","0.48108244475659934","-0.5256881421007352","0.3578287401332351"
"0.006383888157978264","-0.011675493868204488","-0.020331059911041904","-0.030395343553414868","0.03392993590139526","0.19376498255460287","0.41064528017950613","-0.5607824422425036","0.37660156070962236"
"0.015850711414895247","-0.005190910818663632","-0.04170025521749848","-0.05770169499204488","0.014973232716762786","0.15372519558457565","0.34642987487218824","-0.5981919913519581","0.3749902269434824"
"0.006641477629613626","0.0011530952930778665","-0.05825950269413129","-0.05700941760725454","-0.00012596498515848756","0.16522848034827348","0.2924318540537683","-0.6293259972068952","0.36061337518539927"
"-0.009209298710953972","-0.005117949437631927","-0.018452174040017002","-0.08100880316428684","-0.011060892919366742","0.16032721784916154","0.24639654349345574","-0.6643837407860159","0.33888383536823113"
"-0.015509576233754851","-0.02651471628726803","0.019147672480739817","-0.14104063770585087","-0.03199431044409349","0.12798125025852033","0.2012174383372403","-0.6968825249797993","0.3045295737134425"
"-0.025599864453865674","-0.09079509607968086","-0.0023826894804313344","-0.2642503083637161","-0.09406421708896599","0.07667466887457153","0.17224915549860587","-0.733378160023062","0.22502667857244277"
"-0.05514882231471056","-0.20460643186825125","0.09522042115698968","-0.1675670320153031","-0.1463803490992606","-0.04741772991175046","0.1912854556497087","-0.7476108484138904","0.11988323932752751"
"-0.028864852024275543","-0.06827809141051183","0.021669137319655234","-0.09396970149881151","-0.04074611504561594","-0.09248884907326654","0.21283329165283102","-0.7454661967385601","0.06070192246046687"
"-0.022515353583327753","0.0553914494382269","-0.0980584807443744","0.05184694802909751","0.06877253363854706","-0.19276272813129458","0.2784471657868413","-0.719718191113714","0.05342745448711685"
"-0.08300786198584581","0.10091794809852897","-0.1093359712724594","-0.1091134328727129","0.05037775677577034","-0.16456913693214067","0.32722233364026604","-0.6932268687150318","0.06622426051335413"
"-0.010472635610057247","0.09684473869208594","-0.01083224800752711","-0.06638198968640091","-0.05115678946489849","-0.24758513271524973","0.4077056416254376","-0.6587540301382739","0.028669232950291536"
"0.011173083493669888","0.04528910437229861","0.0018481439709231852","0.027767734645085616","0.03474829057294293","-0.3424965930921021","0.515958544883507","-0.5978386112463641","0.048064685409128914"
"0.035529234490018685","0.05206749729084022","0.03631605475675891","0.1029354486431432","0.07949345470313587","-0.36340628151814874","0.613166398428718","-0.5278206082551828","0.0860295862214426"
"0.03506327646489488","0.0718119694808045","0.0018406284274390828","0.1629856043253255","0.004349976029803539","-0.3608640102580545","0.7040097918034702","-0.45714458713634365","0.11149804613674123"
"0.07016435389270803","0.05135051141185559","-0.007105373499800822","0.2114711943186755","-0.0011439222177935195","-0.3402302272400801","0.7793273271839195","-0.3730279364840425","0.14736977745478771"
"0.05791490806322065","0.07532113128773318","-0.030514621331996884","0.12405318051150188","-0.014401267896865898","-0.26189279887671046","0.8309565130510028","-0.29867188805867056","0.17607654891951313"
"0.055214320354228394","0.07574346543562824","-0.024389453392455695","-0.006361540425078253","-0.03025471318291187","-0.17240879202722204","0.8739380243367011","-0.2392796592770805","0.19958950669143813"
