"AccX","AccY","AccZ","GyroX","GyroY","GyroZ","MagX","MagY","MagZ"
"0.0007005128092849642","-0.025686885233254464","-0.027550156957713148","-0.05377966224683381","0.00903834102333752","0.1343251038912672","0.2630354685130852","-0.6668330304834102","0.2973020377915334"
"-0.00029539043455362657","-0.03724424860937269","0.0010051505101233479","-0.0706455808388526","-0.008727394937170249","0.11108204401409531","0.22005395722738696","-0.6924591808994307","0.27300687916225896"
"-0.03733084994553923","-0.05054566961284493","-0.057449494118622796","-0.1344973731993259","0.031113972727926553","0.12040961755985202","0.17915587909165986","-0.7202177974698989","0.24739762309263752"
"-0.06714231936983416","-0.18354584861275353","0.13884397578025237","-0.1506723230594556","-0.14692169783749906","0.05221565444896697","0.16089016380424515","-0.7436627396479414","0.18574455151635258"
"-0.01900426142218349","-0.05990436983364239","0.0767948137151388","-0.20066286388930643","-0.05530554690034619","-0.08406585111540385","0.1612326459658842","-0.7517417399930777","0.11290600767997025"
"-0.028192166142934787","0.05210538108483744","-0.14410788579222694","-0.04023903067703104","0.07056594919534304","-0.2073423581949979","0.2300430202751918","-0.7311603952224364","0.07246622335500284"
"-0.0954771612497226","0.06802639628804415","-0.08637598592853507","-0.08557861909564388","0.038096105138365255","-0.13507484880921763","0.27430883966703656","-0.7122606523335883","0.06261049255239956"
"-0.025124062245112513","0.09323315033101659","-0.016414626695438885","0.030165186760276363","-0.04565782596594949","-0.2531623634641387","0.35353637972619834","-0.6770079404203465","0.049555560243236985"
"-0.005665392604378447","0.04742322476747597","0.018044557709351417","0.1052949498241961","-0.02071146305764891","-0.3406637928813365","0.4610757784808529","-0.6245127164582845","0.061343327163493444"
"0.02695002845701716","0.07013666392403806","0.020252039842708902","0.1595307606658803","0.01582007942716512","-0.3714075383522438","0.5771772312764831","-0.5411393825798194","0.1237003795113929"
"0.04684348287471531","0.06967644598214576","-0.013508616548253697","0.13908960234749626","0.011981568637023692","-0.38074890716840415","0.6732149374360941","-0.45864340620489835","0.16654934247699665"
"0.07435961681609395","0.06285034754523727","-0.005210203951227039","0.1251603008660059","-0.009654969090994116","-0.3335887899171982","0.7548113124465925","-0.3852500139292486","0.1720403924955899"
"0.07065164098236217","0.06588946968590403","-0.08236769607034863","0.10048565041190023","0.04016019506428048","-0.3009925367063772","0.8081243689417343","-0.3136357077024524","0.19885423788552964"
"0.029137077920010288","0.06325023203743027","-0.013387532792120977","0.07467378058656053","-0.03452218744692065","-0.191485680242503","0.8468533933870812","-0.25218412589170996","0.21246453280341035"
"0.029155125589997468","0.05970739574694847","0.05861888932903744","0.07585025954483372","-0.19376894127874678","-0.08407373412706307","0.8733386805538326","-0.21649273522669615","0.19333189983264237"
"-0.011900042236316853","-0.07690016230358535","0.06885547708457468","-0.09515403237449253","-0.1038449008713511","-0.08774130530150911","0.9051039010458527","-0.20305210569323418","0.13364997441687812"
"-0.04820867285600017","-0.43472943384920926","0.15485625870332015","0.0175458468329923","-0.10408550031056821","-0.0007696142678100058","0.9224277903887599","-0.19083002824802797","0.11470506965187403"
"0.009811304758272816","-0.034008691981312886","0.06757491198092282","-0.06138555290921844","0.2800853226951658","0.07703334590506544","0.9075298163574625","-0.19240196044187804","0.1447885146255345"
"-0.08617440771996185","-0.11098294896976088","0.08279054729467605","0.25701231528408935","0.02549154372727404","-0.050831073960187094","0.8679731266881549","-0.232504509666378","0.19733676822227167"
"0.02069076836600531","0.03407971065956236","-0.12350277073998721","-0.08365620798362684","0.18745453859657757","0.02115619436110838","0.8561574921116083","-0.2213182014961893","0.22463557814376803"
"0.05002643558154702","0.099903504281492","-0.2333507893639743","0.010083777124461093","0.021502658287621917","0.173235649441113","0.8100080208307492","-0.2502588135922657","0.28840059203489654"
"-0.09280282469707533","0.005141122287166381","0.18634221059976194","0.1332268373496499","0.014262514636443815","0.1990663078954196","0.7759881261079387","-0.27710351609654205","0.31898464555726064"
"-0.005009113695753366","0.07254719570504704","-0.0419758251452488","-0.014750398118313657","0.034779948393892555","0.18748813452095928","0.7312371236537726","-0.30872494278678136","0.3419031306776"
"-0.010078868264882235","0.012835741779048422","-0.14146074436504966","-0.07152106962982563","-0.01594759416115009","0.2033822567788354","0.6986442379377918","-0.3537626279687175","0.3332989212467558"
"-0.021563749165821367","0.02572422942795084","-0.011191323973989645","0.007004516847690439","-0.024814316652719666","0.1774097041146631","0.644646217119372","-0.40276060743748515","0.3402917969114601"
"0.012267428573802247","-0.016851542611011353","-0.013195468903082878","-0.020558199694305227","-0.03900335200233936","0.2075405454290671","0.6122816528444838","-0.4393537266478083","0.32500759215885155"
"0.0075668308907750085","-0.029914436022649173","-0.028781871028718358","-0.006539255489075471","0.009830894570811256","0.21363017193580452","0.5747227757847372","-0.4722790040724813","0.3127583267327589"
"0.010026236100847529","-0.03246106884135192","-0.01029780935976892","-0.007162174270096648","0.04575888069922078","0.1996575337698601","0.512733504528073","-0.5117479062110883","0.3196104062431402"
"0.009821148941902199","-0.012980380105886891","-0.00017311969610605307","-0.0499256794524906","0.01683629547964792","0.17781962072094187","0.4529132869617895","-0.5487187765687707","0.32403766309573817"
"0.01690896115505322","-0.028908410826500485","-0.024631620904721128","-0.04902009164478755","0.008532765622772087","0.15632658943211394","0.3925508059729108","-0.5911975023653696","0.319985862654668"
"-0.002470955016645814","-0.006692231543739086","-0.047424594171221024","-0.05036146086862517","0.00217951582549759","0.1463861117298539","0.3434046157777103","-0.62096672988146","0.31225771818405523"
"-0.009865577619579081","-0.02232925860231469","-0.003276621624845629","-0.11092329983521772","-0.029051715986826307","0.1435501982854542","0.3016788724180218","-0.6477870613439712","0.2834101505650069"
"0.009389645559481184","-0.04926323303086459","0.021345968949838957","-0.11600610770388631","-0.039758391031987805","0.10096814005533272","0.2660321874274267","-0.6769835693785814","0.24154676067966346"
"-0.03564093175582964","-0.014306312895789977","0.03434731638807966","-0.2287465551513116","-0.03824673008164345","0.10447608024367984","0.236179159004558","-0.7088243354447067","0.18167710705813536"
"-0.06384451785399305","-0.10932167444780824","0.01147931294579684","-0.17197719229270092","-0.13943462318291394","0.028584356247579143","0.21945461344451886","-0.7338899519001296","0.0835421874950713"
"-0.01518143677944231","-0.11414835042375175","0.030371510378952252","-0.07870950001669397","-0.09453591862111534","-0.04472962293596086","0.22701776118071387","-0.7390200561916866","0.019090401251189985"
"0.01839871427763218","-0.0023828798213799836","-0.12944422539436148","-0.0026104177487776166","0.008917566436414719","-0.11125041682217926","0.26166553986652896","-0.7272732140609003","-0.013140967276752126"
"-0.0780365492530107","0.07163377533866937","-0.09495205610427986","-0.030431985834651412","0.10262740736207071","-0.08742598483514083","0.2961420774715244","-0.7078738648158671","0.014550507475133681"
"-0.021924702565565175","0.0927855603204567","-0.003807302500861779","0.013144323664743083","0.005364134323924617","-0.19851338513668607","0.34594469180986626","-0.6842826963872339","0.023237630196856835"
"-0.006616997021884859","0.06419732688736104","0.015955236620771723","0.026932814094053025","-0.025716564549783837","-0.24380128711883034","0.43673100482434557","-0.6365276400484872","0.04284427688717858"
"0.01755375518277736","0.04009060597378969","0.02615549924946915","0.06886990496927288","0.04300306738555635","-0.31658119226245907","0.5253197239683073","-0.5826067101431658","0.06128075109490549"
"0.02839712345053547","0.05545318599140757","0.024874099085430163","0.16265844109999922","0.056142645970696146","-0.3523700651952589","0.613794282391723","-0.521362282187427","0.09170836444579974"
"0.05284023140227711","0.05602144290136604","-0.0068135198945016235","0.15764630048800107","0.049448599730899","-0.3577108055943717","0.6958187601042698","-0.4411449982175443","0.1443661261625658"
"0.04877950565515933","0.05514310012202283","-0.039800492836795515","0.15519911956256074","0.005278341629151147","-0.3177636440113401","0.761261393157461","-0.3605134065376549","0.18310071261851138"
"0.05051208197392959","0.059206487804096194","-0.025349772837646205","0.07108021971957702","-0.011251631290588203","-0.2814229602623958","0.8180278114491297","-0.2819046113242701","0.2241819016465053"
"0.029886876573114445","0.06091546784441573","0.016498860932788264","-0.019250855445901535","-0.0691938329509445","-0.1336775849926232","0.8542167598623202","-0.23793925197999907","0.21998930505111225"
"0.005438846529558117","-0.009689120269616337","0.07631465399254354","-0.059062694009402075","-0.10920456995812178","-0.08342141491226367","0.8798173014448378","-0.21950255888468811","0.17049163479803797"
"-0.0001362427992120333","-0.136332819567834","-0.04094452556715291","0.011645000035717952","0.004215113712558159","-0.1268508968957499","0.8985111194343013","-0.19890902859316428","0.14419404197394892"
"0.002285426373614545","-0.33096993140123754","0.2444874653550793","0.056155033380193564","-0.027494151196105","-0.035900649877649016","0.9100698923896184","-0.18050889206050094","0.1415658470932547"
"0.014854808171056654","0.04613096646112597","-0.013888569024394285","0.09788273979120461","0.14716362987399617","0.19718423886178393","0.8830994221605452","-0.19547271170428276","0.2013416366119009"
"-0.05890601906658922","-0.05073649168631247","0.08138764584431078","0.14194246567234117","0.03636125655032607","-0.018228908490621695","0.8389477634892469","-0.23190741914313262","0.24641205001237715"
"-0.02602644574447201","0.009819349914780002","-0.017124428024492735","-0.181949127400645","0.1350323528861018","0.06289516449427766","0.8442276968145153","-0.22426709754976848","0.2606950376675784"
"0.0313946773656806","0.1147735949771459","-0.16910959378266502","0.016620629231769667","-0.007622378696923763","0.19196568514338888","0.7918279260837439","-0.2619203570768742","0.30540563867367393"
"-0.05618246159579507","0.012863242607283448","0.170889418136066","0.07292149435171313","0.0018138679935294799","0.20576686780574552","0.7524424774952556","-0.2966003495086357","0.3266971460107264"
"-0.0031600478707021597","0.028910677434162386","-0.11016268105571037","-0.10787413857517707","0.010482570815059185","0.16590050709222087","0.7264709135709629","-0.3360936226890077","0.31199176989255645"
"-0.011768786454591848","0.025303298383537166","-0.13270096090413802","-0.04886043599082834","-0.014908742766688307","0.19118526698912736","0.6897111615550406","-0.3793400363012078","0.29799037454600097"
"-0.005353660122781524","0.012208414212523904","0.019957681056248334","-0.037697626742696735","-0.053136986165297224","0.16104063040431976","0.6481851994563087","-0.41653024603477623","0.299539132243553"
"0.01737655987744859","-0.04254236735505953","-0.017550308821925046","-0.10735722067916162","-0.061002371780230324","0.18805374060750737","0.6236691847189816","-0.45821691297400885","0.2645434658857378"
"0.016275652008229995","-0.04171032699060182","-0.007922062558406315","-0.0014427067649431693","0.009123975429006241","0.1707820620621848","0.581743660098337","-0.4951512267690436","0.24871172053298463"
"-0.0018491307507235294","-0.008302573409317683","-0.016853033398678028","0.04209748391437531","0.021043619883852425","0.16473973362540265","0.535936670979117","-0.5228001736515688","0.25036998635056545"
"0.006369121882534205","-0.014614995661693343","-0.02341243273952275","0.04190642059078478","0.012842661366853355","0.18495177551960942","0.48482120835449216","-0.5490234145908347","0.2678756415380465"
"0.013842497954502474","-0.029022062208492173","-0.006989300105990844","-0.014870794185233717","0.010134967941032358","0.1665685923303387","0.4246870488067061","-0.5802183480501845","0.2851466364683227"
"0.015191151111727018","-0.02511441901285186","-0.037149176107682605","-0.03132579576624272","-0.00016601212865975686","0.13088219854910854","0.38393167157166186","-0.6081110053503608","0.2805003633756669"
"0.01595571604027525","-0.010227210454725157","-0.04478997864985055","-0.04864843422081693","0.01586123459439963","0.11823193558899608","0.3412926424476027","-0.6319946262801754","0.27353877574525665"
"-0.010062461292166588","-0.005566521620628773","0.0015262281916875807","-0.007594422323397688","-0.0076918676139081784","0.13763399803521933","0.29471506846469525","-0.6555370526252785","0.2589116197128216"
"-0.02302396973751218","-0.033185070237743454","0.005113230084570905","-0.08616620424832984","-0.018445712812284607","0.12401806614685403","0.2524470616824116","-0.6802858455377547","0.24320502649724435"
"-0.06942288857730634","-0.07155714424649438","-0.0009309369974194311","-0.14287275176767786","-0.062476043345435134","0.08491832831718725","0.2188838098417872","-0.7065943851231985","0.20969554176839322"
"-0.027978875497631662","-0.13517104988525222","0.1269443652637613","-0.13990210968171551","-0.11370156342401529","0.02227006390855433","0.20798146102961138","-0.7272122864564875","0.14328668897942354"
"-0.00889756622935705","-0.02352750897541229","-0.05719480070055051","-0.13706233288588368","-0.056074831949421956","-0.10542487120602526","0.23435258747581658","-0.7245558429040897","0.0789897785052974"
"-0.05667467077726391","0.055726791170276464","-0.0966555792940091","-0.06511259637213507","0.08089589617120406","-0.1628072838263079","0.29374470234005134","-0.7034627062563809","0.04795361288738528"
"-0.03473854825647012","0.0778846013482125","-0.03192169808429776","-0.08692260562528412","0.0311931172803006","-0.17289162649134845","0.34457476316331037","-0.681601881793071","0.038726771574090976"
"-0.016428366705830026","0.07086487463087372","-0.006554233644300185","0.01928766384462925","-0.005519824518554747","-0.24035246951792727","0.4096749140548622","-0.6463735409215945","0.04640641959154804"
"0.023824500154690148","0.04248149430605938","0.021454944330358404","0.06685065354255927","0.02256477818048167","-0.3071609933297067","0.49829217337896076","-0.5936833486254115","0.0646598587986552"
"0.03357844543413059","0.061694190276581046","0.04791090998496973","0.2114711943186755","0.04321042611277637","-0.32272994135664057","0.5894209685550788","-0.5266629837713398","0.11138853801671228"
"0.04630533416964274","0.04515580954156762","-0.012794639917264239","0.27074008421877876","0.028003591819626385","-0.3309873960696599","0.6757835536483868","-0.4454099305264398","0.1724784249757056"
"0.04415109865208086","0.07555825577608623","-0.015136984303141945","0.1828509553671353","-0.010483137687036176","-0.30122902705615345","0.7423392537269046","-0.3662893434359876","0.21571848836998414"
"0.05051208197392959","0.06550642243548759","-0.04394656765885715","0.06174167261586458","-0.03584073568947232","-0.27391439165700115","0.7981353058939294","-0.2998782546260439","0.237901704684415"
"0.023256818898729423","0.06426888516491137","0.031584059814073015","-0.079923929909105","-0.11559786689889753","-0.1801459679707337","0.8461113487035299","-0.25543765996735307","0.21452954306681293"
"0.02210012732227771","-0.027973943907902116","0.05387031843766717","-0.0911626410255123","-0.07932908432796536","-0.10202532242799223","0.877391386133228","-0.23308941466874084","0.16143374886993117"
"-0.005895090222397248","-0.12122560438382707","-0.044126105642088416","0.007904608313208016","0.034691306495233616","-0.13725253078007357","0.8892355608899111","-0.208852413633332","0.13971985306990997"
"-0.008749903474916398","-0.3120560964722496","0.225519068661599","0.07134587625854193","-0.001445304673233902","-0.037112662920252094","0.8963420657439208","-0.19068380199743726","0.14799553814066732"
"0.02364566415208979","0.01651004886573542","0.006270623781122249","0.10903638846902708","0.12697068878128104","0.15755633925095025","0.8876658509823987","-0.18767397833944532","0.20608177380743872"
"-0.05191664868973196","-0.062157754024736944","0.14458919124365296","0.2033444598015715","0.0201793613719278","0.026836298412149986","0.8443133173549253","-0.22540035099184638","0.24415931154321074"
"-0.04998062590928796","0.00929346672995918","-0.023145213415643646","-0.09172928773177735","0.18531763568247825","0.03815433240185646","0.8395756474522521","-0.20893771227950986","0.2734449116423747"
"0.047967360505735794","0.10611083408311238","-0.1653476467386796","-0.015201883369263881","-0.017477300069435726","0.15608812832942293","0.7842647783475486","-0.2529883702699588","0.32804253148536744"
"-0.06034983266556441","0.02486412699386556","0.13868948960863475","0.06944702089874838","0.04262000775206595","0.18544643450122467","0.7403414411173436","-0.2863279554046388","0.35441834439519143"
"-0.010653112309929194","0.029977036080010372","-0.10049685707477114","-0.03280457354471736","0.015183757226077758","0.17140481998326215","0.7092611849486019","-0.312599938427435","0.36826329957027704"
"-0.006748252803609863","0.01719195715768558","-0.11384112206098355","-0.02726373716059202","-0.012251068697967707","0.1927106297451839","0.6757550134682504","-0.354189121199607","0.3628661136545657"
"-0.007699857221116247","0.01591204616197172","-0.0025651501750175343","-0.030493492521012744","-0.022213626661708383","0.15842741203929261","0.6437043911748644","-0.39083098249346043","0.35557600166406866"
"0.018653022354724394","-0.0215028306517825","-0.0004854322808897454","-0.05600960679065752","-0.03161441659269805","0.18470346065234441","0.6122816528444838","-0.4322861245359244","0.3294504930285965"
"0.00804427379679976","-0.0376764044816374","-0.02476940586859629","-0.025096607956030945","0.005267894548237772","0.17408898545322216","0.5686722575957807","-0.46912295416389865","0.32336497035841766"
"0.009025410765194261","-0.04020620005856361","-0.014769557732808188","0.035708640450204325","0.02672619874430922","0.16869109321958017","0.5219805228923268","-0.5000619916847147","0.3314685712405582"
"0.013238721358567367","-0.021775032727170015","-0.018493927059373107","0.0027110884090890135","0.027573045454711557","0.16094406351149448","0.4724918505354872","-0.5271869611692899","0.34723774052472334"
"0.011276447421778333","-0.020620278561995154","-0.013892744326329904","-0.056004372179052304","0.008871662596037768","0.1435462567796246","0.426142597993672","-0.557736062021864","0.3441558691467665"
"0.008334677213866357","-0.01082296819291865","-0.0469945380718531","-0.062041188012772246","0.004718789643866614","0.133203745482745","0.37608312203410105","-0.5884192036041463","0.33483203492716085"
"0.0024527774953139615","-0.005578868931264906","-0.03067745810748571","-0.06772335891023853","-0.02080485362945029","0.15193772269085046","0.3249391192293391","-0.6195288384173182","0.3169039912767111"
"-0.007896740893703782","-0.026208839728327424","-0.007901186048728262","-0.06223355998926408","-0.029449021639744038","0.14086209130966462","0.2911760861277586","-0.6508334415646109","0.2948928591508971"
"-0.027568701179740973","-0.027078763886782358","-0.0031405067817447123","-0.14467869277147874","-0.022096492724194786","0.14151441052446398","0.24545471754894826","-0.6824426827339675","0.2622907274165713"
"-0.05662544985911702","-0.1318106170473497","0.04092187207495065","-0.15646965541223673","-0.10198342099951344","0.06072142402925133","0.21837008659932847","-0.7108349463903287","0.1963981271934523"
"-0.039529384289433325","-0.13661344026410976","0.1451486817030248","-0.14512363475792245","-0.0913305642499663","0.0022184413016124124","0.21017905490012861","-0.7271148022894269","0.12934786970145606"
"-0.00440205570527517","0.013793079284393266","-0.08352007940457723","-0.09084332971759387","-0.034207192128471925","-0.1682051760599499","0.257470133386451","-0.7175004263130884","0.07561067080154774"
"-0.08076010672380486","0.0596260157450285","-0.1232313761141725","-0.06947171918638201","0.07759556833720617","-0.15092758525588293","0.31689078843082213","-0.6965413303950878","0.06735062974793733"
"-0.016772913132858187","0.09069072682275796","-0.021379060696880246","-0.12083111095099783","0.027433751042533226","-0.19928197877345874","0.3725155995170276","-0.6729014198829243","0.047385735064949565"
"-0.009931205510441554","0.0639868613651542","0.02766069559725688","0.00021470213455960615","0.0011916335227646977","-0.27411146694848126","0.45239956371933077","-0.630568920336916","0.03818079537566105"
"0.02542417999446382","0.04056485495049576","0.04084212380798048","0.09663035896465572","0.06452721984920301","-0.3249371846212185","0.5567710024788245","-0.5637557093378479","0.07675268405327795"
"0.03699601785079578","0.05374420595108804","0.023358882012996966","0.26189359060595696","0.029542161917777924","-0.322158423011348","0.6467011100892059","-0.4905207288336713","0.14087751033878718"
"0.05923238797228552","0.05619963704350116","-0.0012361515689125846","0.22430907928047752","0.02898023559592217","-0.3428316210876184","0.7169384934053433","-0.418029065103331","0.18572890749920556"
"0.056899316452123316","0.06738517799705397","-0.05924904925287109","0.1550289946853911","0.01065700540849159","-0.2831769303565694","0.781924483576349","-0.33750714311138447","0.22551164310399943"
"0.04707646188727722","0.06856097871444951","-0.04531606669373752","0.01010379951385106","-0.05319238735195906","-0.26315408074218355","0.8260190618873738","-0.2756290680697525","0.22422883369794633"
"0.01891717461544599","0.0390972087089734","0.06362674647060915","-0.02874774955067188","-0.17580312788983743","-0.13765850588052272","0.8787613147797839","-0.22130601597530675","0.20310941054951073"
"0.005332201206906554","-0.06769720656922094","0.11675662854087071","-0.04456412851584404","-0.038253061645833364","-0.10316441761274764","0.9023355035726038","-0.2040025763220737","0.1629825065674831"
"-0.02548501564485629","-0.219605608084192","-0.0017885440149939095","0.09447893359491032","-0.008294949102998439","-0.08642878386025116","0.9238547993955893","-0.17978994632843","0.15101483345003627"
"0.013737493329122441","-0.16791527583019228","0.12036826471517414","0.05787983790411354","0.11585879362796439","-0.022393109399597797","0.9271369201112967","-0.1708945160841623","0.16144939288707813"
"0.0394472195745105","0.06081865370420059","-0.030426939991349055","0.10398106231128589","0.11162614296700021","0.24628554773406955","0.8896636635919598","-0.1903913494962559","0.22375951318353665"
"-0.11864380672418842","-0.1375900002871495","0.17572859307943903","0.17554867217785342","-0.013935897928906484","-0.10199181962844062","0.8483660229343201","-0.21405563105018444","0.2838951150965636"
"-0.006091973894984754","0.039398875957469874","-0.108020751162742","-0.09964794643757387","0.2325194467183617","0.08786854543064548","0.8362935267365448","-0.21535948178461825","0.3118822617725275"
"0.02741762717941253","0.0931054679142111","-0.17568986963318778","0.04378172019835483","0.006648650408955451","0.22356276662640534","0.786605073118749","-0.25259843360171697","0.3406516093058409"
"-0.03754414059084238","0.011338490054068968","0.06721416589368603","0.03373126591633248","0.03792040423209486","0.1708017695913328","0.7454501333617922","-0.28930122249998313","0.36494676793511527"
"-0.00020187069007456462","0.036039846223048726","-0.1236990099309609","-0.06404997021627541","0.014037744107701512","0.18071859825861525","0.7085191402650506","-0.32342068097114685","0.371298238896793"
"-0.012868053626538882","0.027285883602725585","-0.121820124059936","-0.029607534506829264","-0.011636906971545078","0.17777823490973102","0.6656803298800356","-0.3648027098883154","0.3759132239551548"
"0.0017439962739988508","-0.0008194016120794445","0.0239004186740457","-0.04447906607725922","-0.040122455972908436","0.17059089902944907","0.641192855322845","-0.403674521503677","0.3616302362999535"
"0.01873833861284566","-0.03963092763119825","-0.002498345344047758","-0.08539671634236248","-0.02259035473100886","0.17206305145680595","0.609770116992464","-0.44433760468877476","0.3326731605608763"
"0.01085806961752985","-0.04418259532479149","-0.025951016316374174","-0.030161094684081274","0.01896844972060483","0.16369326382764293","0.5693001415587859","-0.4819177510905851","0.32247326138103927"
"0.013963909552598096","-0.026375809042611515","-0.029416516922931218","0.0302790395626899","0.03767189033764035","0.14630728161326184","0.5233219113587462","-0.5077754264033743","0.3344722225327801"
"0.0022132356936658067","-0.006655470232526957","-0.0054385929671049585","0.01659183886794096","0.037918821341047376","0.15496874067381552","0.4649001626191554","-0.5333040926523342","0.3578287401332351"
