"AccX","AccY","AccZ","GyroX","GyroY","GyroZ","MagX","MagY","MagZ"
"-2.8091","-9.1069","2.6145","-0.006061","0.018811","0.004928","0.74021","0.30311","-0.056559"
"-2.8091","-9.0771","2.6295","-0.015045","0.0016","-0.002402","0.74244","0.30285","-0.055289"
"-2.8166","-9.0771","2.6219","-0.002218","0.004062","-0.015981","0.74108","0.30337","-0.055608"
"-2.8241","-9.0695","2.6144","0.00309","0.00425","-0.007849","0.7399","0.30285","-0.057228"
"-2.7941","-9.0771","2.6149","-0.00055","-0.006527","-0.007926","0.74122","0.30102","-0.057683"
"-2.8091","-9.0922","2.6594","0.004612","-0.001638","0.011096","0.74093","0.30286","-0.057726"
"-2.8166","-9.0771","2.6294","-0.000714","0.009924","0.007571","0.74136","0.30245","-0.055582"
"-2.8241","-9.077","2.6218","-0.000474","0.004163","-0.011459","0.74091","0.30298","-0.056137"
"-2.8091","-9.0771","2.6295","-0.006063","0.019706","0.004933","0.73872","0.30296","-0.057003"
"-2.8091","-9.0845","2.6146","-0.005988","-0.013713","-0.007953","0.74197","0.3022","-0.056354"
"-2.7866","-9.0921","2.6224","-0.009561","-0.001185","-0.007871","0.74016","0.30285","-0.057353"
"-2.7941","-9.0771","2.6149","-0.005802","0.015713","-0.015","0.74183","0.30286","-0.05637"
"-2.7941","-9.0697","2.6149","-0.007103","0.00461","0.012063","0.74101","0.30141","-0.0569"
"-2.7941","-9.0772","2.6298","-0.006202","0.013612","0.013931","0.74172","0.30141","-0.056347"
"-2.8241","-9.092","2.6292","-0.000548","0.004273","-0.00603","0.74123","0.30194","-0.057434"
"-2.824","-9.062","2.6144","-0.009607","0.004296","-0.003296","0.74039","0.30246","-0.057869"
"-2.8091","-9.0846","2.6445","-0.004183","-0.002916","-0.006076","0.74171","0.30167","-0.056352"
"-2.8166","-9.092","2.6368","-0.006035","-0.002846","-0.00245","0.74109","0.30404","-0.057212"
"-2.8166","-9.0771","2.6369","-0.006086","0.004434","0.003025","0.74143","0.30167","-0.056627"
"-2.8091","-9.0921","2.6295","-0.011351","0.005088","-0.007814","0.73948","0.3035","-0.057386"
"-2.7941","-9.0772","2.6298","-0.002567","-0.002618","0.008386","0.7389","0.30219","-0.05831"
"-2.8091","-9.0921","2.6295","0.010268","-0.009173","-0.007962","0.74112","0.30233","-0.057047"
"-2.7941","-9.0772","2.6298","-0.013228","0.013291","-0.000526","0.74025","0.30285","-0.058014"
"-2.8091","-9.0921","2.6295","-0.002414","-0.008249","-0.004307","0.74138","0.30246","-0.057041"
"-2.839","-9.0621","2.6365","-0.009599","0.005176","-0.004187","0.74128","0.30088","-0.056882"
"-2.8091","-9.0921","2.6444","0.004798","-0.010016","-0.004336","0.74302","0.30246","-0.054732"
"-2.8091","-9.0845","2.6071","-0.014996","0.007839","-0.004169","0.74048","0.30232","-0.056669"
"-2.7941","-9.0771","2.5999","0.004965","0.009553","-0.01145","0.73987","0.30259","-0.057755"
"-2.7941","-9.0921","2.6148","0.001314","-0.003009","-0.011524","0.7409","0.30258","-0.056395"
"-2.794","-9.0623","2.6522","-0.002326","0.002408","-0.008766","0.74023","0.30284","-0.056421"
"-2.824","-9.0621","2.6293","-0.016022","0.001712","0.003034","0.74159","0.30101","-0.056344"
"-2.869","-9.0769","2.6435","-0.000721","0.009939","0.007595","0.74062","0.30245","-0.056667"
"-2.854","-9.0844","2.6437","-0.007739","-0.008404","-0.011511","0.74058","0.30298","-0.057076"
"-2.8241","-9.1069","2.6292","-0.004151","0.002449","-0.006937","0.74196","0.30194","-0.056482"
"-2.8091","-9.077","2.6071","-0.011343","-0.002117","-0.009672","0.74074","0.30245","-0.056796"
"-2.7941","-9.0921","2.6148","-0.002323","0.004222","-0.007849","0.74095","0.30113","-0.055968"
"-2.7941","-9.0921","2.6148","-0.002549","-0.006239","0.006554","0.74062","0.30245","-0.056534"
"-2.824","-9.0771","2.6592","-0.006071","0.011605","0.003077","0.74158","0.30272","-0.05611"
"-2.7941","-9.0772","2.6447","0.005695","0.004397","-0.000632","0.74121","0.30245","-0.055852"
"-2.7941","-9.0623","2.6448","-0.009525","0.013156","-0.007772","0.74107","0.30273","-0.05772"
"-2.839","-9.077","2.629","-0.004302","-0.002722","0.002983","0.74106","0.30088","-0.056358"
"-2.854","-9.077","2.6437","-0.016738","0.000525","-0.011429","0.74133","0.30206","-0.056106"
"-2.824","-9.0771","2.6442","-0.011431","0.004306","-0.002386","0.74116","0.3014","-0.05663"
"-2.7941","-9.0771","2.5999","-0.006062","0.000808","0.001181","0.74113","0.30128","-0.05716"
"-2.7641","-9.0623","2.6005","-0.01785","0.006244","0.00666","0.74059","0.30232","-0.057064"
"-2.8166","-9.0845","2.6145","-0.0094","0.003981","-0.018677","0.74183","0.3026","-0.056365"
"-2.824","-9.0773","2.6891","-0.004057","0.002279","-0.01508","0.74047","0.30272","-0.056809"
"-2.8539","-9.0547","2.6886","-0.007856","-0.002846","-0.002429","0.74235","0.30194","-0.056602"
"-2.7641","-9.0624","2.6303","-0.009395","0.005757","-0.01869","0.74115","0.30167","-0.056768"
"-2.7941","-9.0771","2.6074","-0.027602","0.00144","-0.007806","0.7417","0.30313","-0.058105"
"-2.8466","-9.1068","2.6139","-0.003218","0.007819","-0.007798","0.74045","0.30114","-0.057312"
"-2.8391","-9.0919","2.629","-0.007783","0.007873","-0.004173","0.74084","0.30299","-0.057201"
"-2.839","-9.077","2.644","-0.013166","0.007796","-0.006874","0.74143","0.30101","-0.056747"
"-2.8241","-9.0921","2.6517","0.004809","-0.001031","-0.003365","0.74108","0.30207","-0.057707"
"-2.7791","-9.0623","2.6376","-0.014972","-0.006623","-0.009707","0.74167","0.3022","-0.056894"
"-2.7941","-9.0623","2.6448","-0.006095","0.001738","0.002997","0.74067","0.3014","-0.056115"
"-2.8091","-9.0921","2.6444","-0.002429","0.004371","-0.000605","0.74145","0.30219","-0.056238"
"-2.8465","-9.0769","2.6289","-0.002536","0.000945","0.006625","0.74126","0.30194","-0.057035"
"-2.8466","-9.1143","2.6363","-0.007755","0.001527","-0.007829","0.74157","0.30379","-0.057856"
"-2.8091","-9.0921","2.6295","-0.022195","0.000567","-0.007818","0.74242","0.30089","-0.055917"
"-2.8165","-9.0622","2.6444","0.000399","0.004199","-0.009655","0.73998","0.30272","-0.05802"
"-2.7866","-9.0921","2.6149","-0.033046","-0.003941","-0.006927","0.73993","0.30245","-0.056954"
"-2.7792","-9.1071","2.615","-0.00258","-0.008895","0.008339","0.74272","0.30246","-0.05514"
"-2.7942","-9.107","2.5998","-0.004197","0.004326","-0.002416","0.74134","0.30167","-0.055966"
"-2.8091","-9.092","2.6071","-0.009675","0.008902","0.003061","0.73943","0.30165","-0.05669"
"-2.8091","-9.077","2.5997","-0.00269","0.002986","0.019284","0.7403","0.30231","-0.055613"
"-2.8391","-9.0844","2.6066","-0.013231","-0.004694","-0.004244","0.74247","0.30234","-0.056738"
"-2.8465","-9.0769","2.614","0.007724","0.000486","-0.017825","0.74204","0.30339","-0.057037"
"-2.809","-9.0549","2.6744","0.00126","0.016857","-0.004149","0.74126","0.30312","-0.056792"
"-2.809","-9.0624","2.7043","-0.015007","0.00421","-0.006002","0.74189","0.30182","-0.057543"
"-2.839","-9.077","2.644","-0.009595","0.006969","-0.004175","0.74011","0.30206","-0.058136"
"-2.7941","-9.0772","2.6298","-0.004321","-0.001802","0.004778","0.7423","0.30167","-0.055537"
"-2.7641","-9.0773","2.6154","0.00826","-0.009775","0.007394","0.74113","0.30351","-0.05667"
"-2.8091","-9.0919","2.5996","-0.006044","-0.001017","-0.000632","0.74086","0.30233","-0.056922"
"-2.8691","-9.1066","2.5986","0.006761","0.007789","-0.011431","0.74178","0.30168","-0.057279"
"-2.8465","-9.0546","2.6589","0.008527","0.007822","-0.009638","0.74028","0.3018","-0.057727"
"-2.809","-9.0474","2.667","0.004848","0.000701","-0.006076","0.74192","0.30155","-0.057139"
"-2.809","-9.0474","2.667","-0.007825","0.000709","-0.003331","0.74173","0.30221","-0.057821"
"-2.809","-9.0475","2.7118","-0.021352","0.004223","-0.004178","0.74138","0.3022","-0.057169"
"-2.824","-9.0548","2.6891","-0.040268","-0.001292","-0.00778","0.74133","0.3018","-0.056101"
"-2.8241","-9.0771","2.6368","-0.014708","0.009192","-0.025862","0.74092","0.30219","-0.056122"
"-2.8166","-9.1144","2.6218","-0.016808","0.01504","-0.002303","0.74093","0.30219","-0.055988"
"-2.7941","-9.077","2.57","-0.003405","-0.006295","0.003841","0.74066","0.30245","-0.056002"
"-2.8241","-9.0769","2.5994","0.007549","0.005256","-0.003331","0.74258","0.30141","-0.05539"
"-2.8091","-9.0771","2.6146","-0.006902","-0.001095","-0.004249","0.74141","0.30245","-0.054916"
"-2.8241","-9.0845","2.6293","0.006733","0.004207","-0.010571","0.74119","0.30416","-0.055751"
"-2.824","-9.0621","2.6368","-0.000688","-0.000921","0.002979","0.74099","0.30245","-0.055195"
"-2.8091","-9.0621","2.6146","-0.011472","0.004377","0.001225","0.74124","0.30258","-0.055322"
"-2.8244","-9.0777","2.6383","-0.006329","0.014643","0.017593","0.74231","0.30173","-0.053966"
"-2.8544","-9.0776","2.6303","-0.009781","-0.00991","0.000266","0.7414","0.30186","-0.055458"
"-2.8244","-9.0628","2.6234","-0.011452","-0.002921","-0.007838","0.74076","0.30187","-0.056939"
"-2.7945","-9.0853","2.6163","-0.004295","-0.000999","-0.002429","0.74058","0.30291","-0.055637"
"-2.7795","-9.0778","2.5867","-0.011254","0.002189","-0.020487","0.73995","0.30318","-0.056856"
"-2.8094","-9.0553","2.6162","-0.006937","0.013298","-0.00413","0.74115","0.30186","-0.055334"
"-2.8469","-9.0777","2.6454","-0.011497","0.000743","-0.004185","0.74056","0.30291","-0.055903"
"-2.8245","-9.0927","2.6308","-0.008065","0.00463","0.010295","0.74313","0.30147","-0.05367"
"-2.7946","-9.1077","2.6163","-0.006229","0.004593","0.008468","0.74143","0.30252","-0.054938"
"-2.8095","-9.0777","2.6012","0.004803","0.006136","-0.006015","0.74074","0.30279","-0.05709"
"-2.817","-9.1151","2.6159","-0.006085","0.004378","-0.002377","0.74138","0.30252","-0.055604"
"-2.8844","-9.0774","2.6149","0.005686","0.002575","-0.006007","0.74142","0.30148","-0.057043"
"-2.8095","-9.0778","2.646","-0.007685","0.002244","-0.018673","0.74082","0.30252","-0.05602"
"-2.7795","-9.063","2.6316","-0.009681","0.001627","-0.004214","0.7407","0.30357","-0.055645"
"-2.7945","-9.0629","2.6164","0.000285","-0.002886","-0.00788","0.7406","0.30411","-0.056853"
"-2.8244","-9.0778","2.6457","-0.00603","-0.002921","-0.008755","0.74148","0.30253","-0.056132"
"-2.7945","-9.0854","2.6388","-0.007868","0.013326","-0.002324","0.74049","0.30225","-0.055096"
"-2.7945","-9.0629","2.6314","-0.006277","-0.001646","0.010234","0.74208","0.30121","-0.055424"
"-2.817","-9.0926","2.6159","-0.007885","0.006164","-0.002362","0.74222","0.30213","-0.055172"
"-2.8395","-9.0775","2.5932","-0.010557","0.008814","-0.004137","0.74277","0.30135","-0.055006"
"-2.8694","-9.0924","2.6151","-0.007986","-0.001777","0.003036","0.74133","0.3024","-0.056267"
"-2.8469","-9.0926","2.6304","-0.004262","0.004356","-0.004178","0.74048","0.30318","-0.056839"
"-2.8095","-9.0928","2.6534","-0.006157","-0.004534","0.000273","0.74126","0.30319","-0.05708"
"-2.7945","-9.0779","2.6463","-0.014125","-0.0066","-0.011487","0.7404","0.30265","-0.056301"
"-2.8245","-9.0852","2.6308","-0.003428","-0.002744","-0.00062","0.74176","0.30319","-0.055737"
"-2.817","-9.0927","2.6458","-0.00418","-0.000282","-0.011458","0.741","0.30304","-0.055227"
"-2.8095","-9.0777","2.6161","-0.011592","-0.009911","0.001154","0.74013","0.30344","-0.056192"
"-2.8095","-9.0777","2.6161","-0.010541","-0.001129","-0.007835","0.74236","0.3024","-0.055039"
"-2.817","-9.115","2.6009","0.012145","0.00598","-0.015074","0.74016","0.3033","-0.05579"
"-2.8095","-9.0926","2.6011","-0.000504","0.00145","-0.015078","0.74176","0.30345","-0.055742"
"-2.8095","-9.0927","2.6161","0.004846","-0.002938","-0.011502","0.74069","0.30397","-0.055786"
"-2.817","-9.0927","2.6384","-0.00603","0.004285","-0.006901","0.7391","0.30237","-0.05594"
"-2.8095","-9.0778","2.6311","-0.007967","0.004479","0.003051","0.74046","0.30304","-0.055377"
"-2.7571","-9.1079","2.6169","-0.002425","0.011507","-0.004175","0.74148","0.30332","-0.056014"
"-2.7944","-9.063","2.6463","-0.009745","-0.001881","-0.000613","0.74288","0.30267","-0.05516"
"-2.8694","-9.0924","2.6225","-0.01697","-0.01178","-0.002435","0.74147","0.30253","-0.056265"
"-2.8844","-9.0849","2.6298","-0.010604","-0.002827","-0.004194","0.7415","0.30305","-0.055743"
