"AccX","AccY","AccZ","GyroX","GyroY","GyroZ","MagX","MagY","MagZ"
"-0.12748069547809265","-0.013956462878946386","-0.15969072296911535","0.0015724408146379756","-0.08207182431892543","-0.789001517121177","0.1576486954186065","-0.8159570939966128","0.5219705235100255"
"-0.11496404414744484","-0.033011733737179215","-0.03731627107683637","0.004154824065188665","-0.018936648006275307","-0.7200780227831209","0.3999803846099789","-0.6950990932984386","0.5349308768505346"
"-0.0899114850994867","0.06144195636648313","0.07171665181783703","0.062396457357657434","-0.35463006613810083","-0.6007238871653181","0.5667453794139761","-0.5460747536099139","0.5450965007821823"
"0.011750682646701135","0.06513875162319888","-0.07204555151394718","0.17346021389748448","-0.43918525109359474","-0.4232944269168928","0.674996340953413","-0.4143328045899415","0.5288184277340775"
"0.08954802527427594","0.21477118789917216","-0.08761135709520931","-0.08557623057551178","-0.1240406814765688","-0.3296652574956884","0.7255134563384834","-0.3242400978147171","0.5183749652062274"
"0.09334114831906211","0.15086929293059853","0.07725152762489322","-0.14414125145842907","-0.12831750331397238","-0.05796593055474717","0.7361853014529247","-0.3266147774485639","0.4942520376771081"
"0.08081275059255015","0.05832268798887216","0.05026074705682703","0.08320436445013482","-0.2129995330133848","0.28108427014921283","0.6952533419930965","-0.37871261008223817","0.42276580121886514"
"0.07348376982878929","0.05625667906344152","-0.020090002753457376","0.009359737224586268","-0.14898362338447024","0.46608560724041054","0.6761944854440683","-0.46383168229101657","0.3301311445555545"
"-0.24234504192011452","0.023213000865452818","-0.06415628823672528","-0.12911273021132907","0.21997901710983253","0.6139313563627478","0.6328383731775654","-0.6051910838280689","0.24877346620870178"
"-0.17695035281414537","-0.08422985043102507","0.07664847399218412","-0.0594654986893748","-0.17671475636152398","0.8273757692864109","0.49201459978752327","-0.7396243364330676","0.13835713938842523"
"-0.12849165577787575","-0.06542075559859771","0.01020633782272146","0.1615991388325087","-0.011991539282178285","0.8787043574994351","0.19911006756035218","-0.8750734242147676","0.17526064234286345"
"-0.042531145716319066","-0.05831488980731012","-0.008107822732047437","0.06781962585124579","0.17794554093170234","0.5750284121994014","-0.1372898960601422","-0.9814722644757408","0.2792539945568095"
"0.00996850406108351","-0.08800558821078393","-0.00795045051693636","-0.029903309489281795","0.3694858908427719","0.14104337869557945","-0.3183768971012747","-1.0060897766799535","0.3906999585277191"
"0.07320840349951505","-0.11075246073869022","0.04502946331829221","-0.06970722892810956","0.07503616086090464","-0.12543329473073167","-0.34749459460673443","-0.9982401412236263","0.4668113904403935"
"0.19681611230566096","-0.18605947285217508","-0.04679164801816988","0.24919972488463085","-0.10196730273769196","-0.1160097056985249","-0.2554882432545543","-0.9459708039497299","0.5441976112062327"
"0.052500085282624794","0.17040756738376608","0.03950078326773644","-0.16221206143972736","-0.03873878783989423","-0.5347611908234744","-0.08930838878320259","-0.8673161374108678","0.5575502072707925"
"0.03401299126725797","0.11592683930994155","0.12590473817065062","-0.12176695076767932","0.13372459124524153","0.2125563578385195","-0.09209477131961023","-0.8978307707058003","0.46498092439482347"
"0.039487581995416694","0.0677417774488043","-0.21697049181564654","-0.17837662721415457","0.23835714519568693","-0.11221891350993182","-0.1688038825469124","-0.9107463893810009","0.4931243398454624"
"0.07932423190353619","-0.4223780704513329","-0.011676165425865232","-0.049135195487492504","-0.013648418833400714","0.36944710215092486","-0.34752245843209867","-0.9706806648063699","0.46823327031507744"
"-0.12063505001956144","-0.1180442569460925","-0.14290022285293372","0.005427579035634927","-0.007246827870509261","-0.8652056622695912","-0.13773571726596723","-0.9182794008861486","0.45071309530747866"
"-0.07309103134976225","-0.04305924722923078","-0.13868917368480402","-0.009890633565933487","-0.0766773327568059","-0.595142054877377","0.14416260394239364","-0.8208911505691612","0.44211644227203395"
"-0.1467852231072841","0.0627746308015397","0.025875695147627553","0.03889670238517421","-0.15048900723210698","-0.7489579376642078","0.371559282738621","-0.6892415502016161","0.47669917577583865"
"-0.06380945297842035","0.02840554919035366","0.053079816264525424","0.093776317801474","-0.34891008617649233","-0.49466907369443613","0.5012932536337609","-0.5492805711156071","0.4970140801922987"
"0.048943430666054555","0.12509871402665976","-0.06065568581397893","0.06616465928982589","-0.30190573201498927","-0.393589371610632","0.5848847297259898","-0.42902943299052715","0.5070979868897693"
"0.09548182305517615","0.21170697154420967","-0.06735949434745073","-0.1490705294075099","-0.07711051952377292","-0.2899614417432026","0.6237826299342407","-0.37120598390635545","0.5022112962859706"
"0.07337497124414596","0.1174225923781266","0.08607015437718053","-0.14935935428733885","-0.15028318368537127","0.13704144763348594","0.6513956808700403","-0.40744623365178545","0.44115217890874264"
"0.08153005099572959","0.03829413891891057","0.0921709092779432","0.06590471689797983","-0.20739921790452956","0.39111917272975727","0.5975070426159165","-0.4878951025806651","0.34689952100872257"
"-0.0005098587413349696","0.08433944291861636","-0.15210711701258164","0.008708437120571974","0.025114377589275805","0.6205567486001735","0.5520332796217439","-0.5990960727678619","0.24910033514541072"
"-0.1819473851530732","-0.02830738259425545","-0.03990403204185182","-0.027920045314456302","-0.35604211140058994","0.5102306199872149","0.4774418191221111","-0.7278432869162605","0.17135455854919174"
"-0.17333015212158873","-0.075557598787777","-0.0025510552520230357","0.053938702126666196","-0.013616348652862827","0.9317560330709106","0.2194227962507639","-0.8745193323002034","0.12524969502639718"
"-0.08545363158710981","-0.04511694641539373","0.0005507469773119283","0.09296568263875407","0.07273859568804096","0.7414398208881515","-0.10346321206815333","-0.9723561332146952","0.21778629100869523"
"-0.007946675270406019","-0.06986750482422294","-0.001168988501992435","-0.05929990575827287","0.2746634615210434","0.2702361004417793","-0.3721819438793062","-1.038820777633143","0.31431068801884227"
"0.06644074640696707","-0.12880536929775735","0.024322832043401597","-0.10814404393574693","0.17935997949124655","-0.006587833916212572","-0.45588487527299154","-1.0611559588559363","0.3755005529707539"
"0.1596859475429608","-0.1664484881804152","-0.041925913913160785","0.18824804774472698","-0.25516464052954363","-0.21334229949859804","-0.3760828794302769","-1.0220265155559927","0.45322998612013743"
"0.0804006639179719","-0.019727576800360483","0.1196759376355456","0.2263440493941662","0.17364717942080315","-0.6133194130672376","-0.2523396309884136","-0.9169601344229004","0.5806271542024429"
"-0.08127499568133968","0.45219082595129956","0.09464301612161719","-0.038894427998357184","0.5856245478858133","-0.060293311930458296","-0.16702059772361175","-0.8828043256894026","0.5314497226745843"
"0.09871695378364204","-0.0031357281480358045","-0.02848112230721458","0.3643734594644239","0.12627665080987505","0.3003294571245925","-0.2188194490754296","-0.900033945699425","0.5185057127809108"
"-0.16450109883681635","0.14122999538007247","-0.3134797255707719","-0.22234540142011583","0.8675788739431792","0.09484764930385768","-0.2243922141482449","-0.9319865794392982","0.4460061826188701"
"0.02339598248086924","-0.24056097527416892","-0.04392094750630119","-0.07610662551551976","-0.03649148190518693","-0.4442141635786549","-0.28661213618622755","-0.9551397058693053","0.4347128608555766"
"-0.11084317740166234","-0.07730160531658448","-0.08399510055112147","0.024431389653740698","0.010686146963102845","-0.5967437980556558","0.004815613296647568","-0.8793082695617946","0.4095112658353181"
"-0.09024847186608106","-0.040973502673039376","-0.16515538020249995","0.029996082338445234","-0.07838136026001313","-0.7411676412971246","0.25010086797661196","-0.7627510775338099","0.4463657384492499"
"-0.09384941617197512","0.056455074088457735","0.06443044217332425","0.04168963897312021","-0.20959865789813553","-0.6057232673884306","0.4992870582075472","-0.6103494156993695","0.4619900736239368"
"-0.020193737187778345","0.04591001495775293","-0.032473254745662206","0.0952628031829937","-0.37111988284750796","-0.4215956083944759","0.5977299532188294","-0.4829478533434841","0.4735448905365975"
"0.05481277732079526","0.1816257153951542","-0.034028389627271644","-0.0332286466057125","-0.16716550111180928","-0.31935100218101453","0.6388012318054779","-0.3835147400084618","0.480588916122675"
"0.11482626917391903","0.20834152714079324","-0.017398979180101318","-0.13374355578458666","-0.1381348078338545","-0.09423570600834745","0.6776712681883642","-0.3609288981576514","0.454161562589758"
"0.07645503029081846","0.10404495087454631","0.08158442667086482","-0.06762672704374165","-0.16603107830770783","0.37971281979352967","0.688064475049165","-0.429979304844066","0.3839337715378443"
"0.04572568845474494","0.010105425888072606","-0.02397680733139758","0.022624308655610867","-0.14446029195039486","0.5301553343715614","0.6489715280633656","-0.5456789736709393","0.2653293778530091"
"-0.2460518963526525","0.00942392339638078","0.04015340295244904","0.08716993005018638","0.07339435908112914","0.6167950790148219","0.5422809407443172","-0.6874737331408635","0.2169527752200875"
"-0.15047282115315957","-0.0664968668337642","0.03281349675159914","0.08305802651102147","-0.19639244474827944","0.9446427850052442","0.3859370166264846","-0.8071971646806441","0.17141993233653355"
"-0.11739034886692427","-0.045389090376410736","-0.009192699695273787","0.13651951176736107","0.008555394594977282","0.8082519264912038","0.07135442826606204","-0.9238994760195863","0.24195824887832063"
"-0.034684168151336014","-0.04750703517226447","-0.019569559207420748","-0.03049154949453344","0.2100875203812433","0.4142473734706613","-0.18691536903356207","-0.9794405941223384","0.33938153546441713"
"0.01453226770010433","-0.083741653249048","-0.025738467429688227","-0.13304074857700288","0.27279668981809163","0.0656085556494598","-0.36390638774617556","-1.0115515398378014","0.41261652073405297"
"0.11116659288870423","-0.13801879271081405","-0.023935502288061336","0.049165389612693004","0.02249850390808829","-0.19965224909152146","-0.33701779626984185","-1.0097045667892537","0.45213497518216256"
"0.13450148224636427","-0.11455416645366062","-0.022204820972272873","0.26659661014632824","0.2554692191394113","-0.3799017480871589","-0.21294018192360964","-0.9345063783841023","0.5648393845594016"
"0.029980703900123112","0.3041112722009768","-0.23989479086725984","-0.24202400323246198","0.1784457400162112","-0.22438461989430772","-0.05768294699497596","-0.868740945191176","0.5534970324556017"
"0.05324338180779865","0.09972804132497884","0.012412935847830087","0.006639006856597509","0.32303199500393415","0.20969020830284194","-0.0961350259974015","-0.8908650437798495","0.5314987530150906"
"0.09778340415824233","0.005949517536816702","-0.05348926079514124","-0.2867052121420014","0.25645047093198853","-0.38067835084026375","-0.0779956756853877","-0.8876724189387887","0.5343425127644584"
"-0.0010432606518871802","-0.27095384664576294","0.1689280713096785","0.17397047118518227","-0.3972786196593831","0.353745165236586","-0.18644168400237293","-0.9303374963602379","0.5282627505416725"
"-0.06947083065720568","-0.18513501435864405","-0.2157106879938912","0.0193808052551317","0.06287103193000243","-0.7683244688197602","-0.0689677962674269","-0.9138730508988994","0.492012985460652"
"-0.10047361318388717","-0.007144554114253508","-0.1582326549393461","-0.0009268571454819174","-0.1399991862397512","-0.6052378906677401","0.2046549688078032","-0.8174874430939807","0.4849199295340682"
"-0.1420962929549568","0.03061697855296896","0.027541940595811488","0.0467787333557064","-0.16657675003626293","-0.7224563687145046","0.41968010914238096","-0.6839117136900931","0.5142237297100237"
"-0.06272146713198712","0.026992893514845528","0.06025656754419718","0.07260834235880988","-0.32588656850675407","-0.5000810241301356","0.624284178790794","-0.5168661941135971","0.5249450308340767"
"0.026643572091505783","0.10558640750870373","-0.08636807529078848","0.10984172036715992","-0.3717182071112745","-0.38346926698423434","0.7108013565462512","-0.4009158646587065","0.5034207113517937"
"0.08215973483959448","0.20915172671939347","-0.02748567076281119","-0.1129481644369019","-0.13986755490172256","-0.3610448624883316","0.7214732016606925","-0.33315833910627535","0.4784315811403961"
"0.08315240157204817","0.14460582695757349","0.0709380517509489","-0.08093481475666046","-0.14137533204641436","0.0884042733366908","0.7414237006213713","-0.33545386275232736","0.4384881970745648"
"0.07301487681355656","0.06206934168119409","0.10507873532051829","0.05834039329525949","-0.20219858340387037","0.3964340478213187","0.732200774425862","-0.40570480192029773","0.3730817228391079"
"0.01759307036011428","0.037594043385607276","-0.1131068950945036","0.050804952180522035","-0.01884689936671032","0.6150962604924051","0.6916867723464949","-0.5209295348204018","0.30028801063402916"
"-0.22271315571766004","-0.017231538867826635","0.019367672519569536","0.06140001152224754","-0.2884075366244151","0.46717770486196425","0.5715658212019613","-0.6549538148217936","0.2774562154049104"
"-0.14943297627338264","-0.06610630908818255","-0.00278091781818921","0.07378578511891258","-0.06286561545201802","0.8860335459818621","0.35687504677175275","-0.7958778584259739","0.24452417003148572"
"-0.09471595357178919","-0.040252632791566836","-0.0350341674325091","0.07342667951832524","0.09267954675085374","0.7107397433044751","0.058871434502955705","-0.8944930265537822","0.32982061906568094"
"-0.022764464807226777","-0.06984153688901139","-0.0066113410119754525","-0.11306369438883346","0.24929451273734013","0.2709156278507461","-0.1630639345219128","-0.9373428012800861","0.4144960171201293"
"0.04271976649672321","-0.1083530235251433","-0.006339966877256352","-0.12753382086826412","0.2201297948243017","-0.038752293066212314","-0.2914883056249408","-0.9691767010382668","0.47405153738849637"
"0.1657497837029931","-0.1733871204689404","0.014753279603261458","0.15263594006181677","-0.2955156288779622","-0.15389335874842122","-0.216005202713658","-0.9378309298714879","0.5302566510555967"
"0.0821780284069239","0.01270263489619064","0.11239798899970006","0.18078673834914563","0.15314141025299474","-0.6008937690175599","-0.070165940758082","-0.8405218355422955","0.6077082456087778"
"-0.050089277481364096","0.35525771739363876","0.17181322858671486","-0.015924185305560366","0.333849697692834","-0.07150794106201311","0.01629550934664677","-0.8227249309530762","0.5620283117037048"
"0.0925145679215728","-0.0117419173641057","0.05076053808119554","0.32363952391254697","0.17704326794194233","0.244147101704663","-0.08741364865844536","-0.85813404282666","0.5669967195416806"
"-0.2039381787216883","0.022072489150961695","0.0008774698701015887","0.01698067050375308","0.32245760371071824","0.5035566900777199","-0.12706387215152629","-0.8803768753970257","0.5494765445340818"
"0.0008111293837149382","-0.23673849521102924","-0.09526311637324782","0.06046614441080059","0.020691564631513202","-0.6878975462013384","-0.0711133108204606","-0.8723425426358437","0.5409125783923078"
"-0.09461967163847654","-0.01965486658176815","-0.12417251620428237","-0.021951960547590663","-0.13537054973525292","-0.6301134476031302","0.14605734406715087","-0.81987531539246","0.49166977307710774"
"-0.12092389581949944","-0.039531762910094304","-0.06080231871782257","-0.028959814881840545","-0.01969651982125887","-0.8546001809225029","0.38309490643934874","-0.6970120296701484","0.4901171456277403"
"-0.10555729926279647","0.05651531969814852","0.08608461114234821","0.03886011790039587","-0.26588661133624086","-0.603757491669634","0.5639032692268405","-0.5431591747261352","0.4781373990973579"
"-0.004913794371056745","0.06794017247382052","-0.10469099251474466","0.08933130290090638","-0.32495318265527817","-0.3989285155382279","0.7538231029083852","-0.36896323091883343","0.46315045834925345"
"0.09778176736537603","0.17247461502660522","-0.11102718616252391","-0.15268084040537183","0.04837004507335546","-0.3276266752687882","0.7880398804554709","-0.2932241432637502","0.44929121543279493"
"0.09655571322657241","0.17575696203734467","0.10181976740128894","-0.20170405000833982","-0.1347099997480546","-0.10286085033501828","0.7401976923053517","-0.3053613947256342","0.4126492076277239"
"0.07814862949778842","0.07066576695362445","0.10280282743269145","0.06209607948263533","-0.22357790599677804","0.34384348013449906","0.7428726195403033","-0.36616638601674706","0.34603331832644396"
"0.05643320225844759","0.04392398727277385","-0.08061221750188341","0.08457243163092462","-0.13508335408864494","0.5723345713995688","0.7112471777520762","-0.4652828754005897","0.26531303440617365"
"-0.2945105933889221","0.004790184262884251","0.033424811392975505","0.003683076761468038","0.046405148191145995","0.5716307751545675","0.657860088354506","-0.629082999477495","0.22231342578211388"
"-0.17093273198210315","-0.08700738078125207","0.038794467026686735","0.0770504690105792","-0.161383295426769","0.9246938017848633","0.48323749479783923","-0.7719859427765478","0.16264350138589875"
"-0.11250885484797161","-0.04019030974705913","0.010375956983181731","0.18714088570538265","0.0766181302143035","0.834243849884182","0.15642268710258714","-0.8942951365842949","0.24251392607072583"
"-0.038304368843892614","-0.0685067850191379","-0.006044429292185553","0.008000142240271433","0.25994468463238535","0.43507003478828526","-0.12174188150698748","-0.9485565662176964","0.3685219011720183"
"0.01932710797907557","-0.09353883584566028","-0.02488964878912849","-0.1310093469222059","0.32140455300648907","0.0751122318405805","-0.27950686071838804","-0.9671186453555995","0.4540144715682389"
"0.11618095597562837","-0.14303579779368483","0.0012397151001604146","0.046834572832473324","-0.009572633948622733","-0.21274285924854527","-0.30405489086413945","-0.9607861663320078","0.5345386341264838"
"0.11985026045417443","-0.13747865965841388","-0.039367066478480706","0.300677945966145","0.3498369220206772","-0.4829714947257942","-0.1678007848338059","-0.8720786893431941","0.6355411355695432"
"0.013695577699617179","0.40816998218068595","-0.3376844809658087","-0.28029329980979856","0.3304512158746398","-0.19330837535209616","0.010555561321647169","-0.8168541951916214","0.5925088400518126"
"0.04177042663426023","0.09390291409832471","0.017819352970110572","-0.05113771465430659","0.36345478226400474","0.3341602145567229","-0.03444451664133621","-0.8647963384660636","0.5526144863264876"
"0.02451189008796315","0.06848134424362916","-0.22861851403646627","-0.28496263536703337","0.4263506288711482","-0.14922888846258517","-0.09945082121572633","-0.8858914092134035","0.5577463286328178"
"0.10500753389662569","-0.4671052420597005","-0.1384640611986215","0.012358509676890367","0.20652390106624952","-0.020107759782687102","-0.18766769231839242","-0.9207860071663202","0.5483488467024361"
"-0.1814467190998473","-0.03618605413743865","-0.14507906388892036","-0.05479712588173945","0.02666284078390373","-0.7094968102720672","0.07475381496047905","-0.8404954502130305","0.5330513804644581"
"-0.05614541108673138","-0.11912452305089281","-0.16351763523421803","0.005143375353883236","-0.11953410312187888","-0.6095334746458514","0.24932068086641795","-0.7747432096847366","0.5177375707796448"
"-0.15111791010635447","0.1316530208740541","0.04878202650538963","0.07087250483103785","-0.32236842183580655","-0.7042062040165404","0.47660590436118894","-0.6175262252594402","0.5355355843834461"
"-0.05278517161411902","0.0203866507970281","0.035907244497483545","0.16193610119230914","-0.3972786196593831","-0.4582172819705768","0.5890921673559657","-0.4751246032164218","0.5296356000758499"
"0.03759660482515575","0.14643396959646635","-0.150444589018298","0.005881034096966388","-0.34455428553627154","-0.3653647153024773","0.7478881081058371","-0.3090817261519944","0.4940886032087537"
"0.11167784995459454","0.22246808389587455","-0.07303893780618374","-0.15942971509737508","-0.09454329527287615","-0.2827778662769827","0.7740243762973402","-0.254820296518593","0.47535901313533196"
"0.0666034628742655","0.12096461874098156","0.09196851456559563","-0.1278611557320703","-0.1464467285060999","0.18356723319527726","0.7143957900182172","-0.30767011103631875","0.4327353037884877"
"0.07779238634453152","0.03858290235846296","0.09541955093633851","0.09117593113341399","-0.2210912703565641","0.44628223703623665","0.692522687107417","-0.39637758802513245","0.3586668027302441"
"-0.029513828332445334","0.09666382497001633","-0.1814295672769786","0.0082222485728599","0.09882314029120903","0.7147198324141375","0.6201603326369108","-0.5249401048686765","0.2910539631720019"
"-0.1457838910008323","-0.03598142680797167","-0.021283718505874717","-0.06332997558148622","-0.33395197958232764","0.6281043566069113","0.5357886694344873","-0.6907850919636167","0.22706936881122886"
"-0.14498475095433708","-0.09119756680698723","0.00924151396795189","0.1311858789865197","0.00474981294771629","0.9202526047905449","0.24597702182272854","-0.8528173989797694","0.21334087346945382"
"-0.06612984757125583","-0.045684086120413914","-0.024028438635567882","0.10045491177271888","0.1503412526985671","0.6183968221931008","-0.06913497921961122","-0.9265248162814502","0.3182494587061849"
"-0.005472229584270262","-0.08288575010447544","-0.029080045435590063","-0.09445952112945102","0.35641848892210964","0.20435106437524603","-0.2776399844189949","-0.9584246793627934","0.42425305488089093"
"0.06368997157222393","-0.11135491683559809","0.019052928089347387","-0.11877279951345249","0.2181289984862662","-0.11544666870252387","-0.33997136175843384","-0.9768416391897394","0.4744601235593825"
"0.19913650689849643","-0.18370158433496667","-0.014776108928250065","0.23087860000748078","-0.4119973965480411","-0.06849617851012835","-0.2766368867058881","-0.9306277349821525","0.5673562753720603"
"0.07330661107149397","0.11756801281531129","0.09009533085029713","0.02738125442639376","0.04734810723084213","-0.6521495507224804","-0.12923725052992394","-0.834664292445473","0.6277126245353644"
"-0.027318600252916336","0.1957522721502355","0.16089837088511336","-0.15790857073027592","0.06750445502861087","-0.008035712674032441","-0.06331143971851946","-0.8635958059845076","0.5134555877087579"
"0.08250153570285448","-0.09854753118926335","0.11482259504353737","0.3820302871179674","-0.014323089273223916","0.2184512581113061","-0.17869554055115952","-0.8764718466658109","0.5598219463809195"
"-0.22108599104467577","-0.0916047440311043","0.19733148435984407","0.20161101218481334","0.1628653761877293","0.4971011796925358","-0.26526844595734517","-0.9264588529582879","0.5284425284568622"
"-0.02443014225353608","-0.22862611225094215","-0.1867062865631833","-0.029237086766476343","0.06117897091207053","-0.829821699331251","-0.1586893139397529","-0.9220656956356711","0.4623496294543166"
"-0.09546695265162805","-0.05610346044469483","-0.13094860856359258","0.001264938592580081","-0.09336579312178352","-0.7070699266686145","0.14413474011702937","-0.823371371520068","0.44597349572519934"
"-0.16167040999742374","0.049902844675880326","0.04122320357485766","-0.04081029970122258","-0.07593541066973533","-0.8078098650479353","0.4036862733834012","-0.6990832780174483","0.4594078090239362"
"-0.08974780581285512","0.018994769469689206","0.10435589706213408","0.10125399394024565","-0.3184912806065991","-0.5514096123431598","0.5461540124699239","-0.555890096096481","0.46568369260874776"
"0.023716601318800445","0.10528517946024979","-0.1345276905686778","0.1759537353600078","-0.41573093995394456","-0.3942931678556333","0.6061448284787802","-0.4255465695275518","0.46653355184419093"
"0.0815849316977178","0.18494961110223213","-0.002045274996370771","-0.1910175294546685","-0.0900750096710673","-0.31262853459945067","0.655603118500016","-0.334160981618344","0.46932828125305226"
"0.08352886393130073","0.1343225246138011","0.10785443423271364","-0.14679844035285544","-0.14418745608611733","-0.049136928005386334","0.6865876923048689","-0.3426570576416629","0.4307904336150695"
"0.08424135023781452","0.057163479361028724","0.08976902100794085","0.13214862858594956","-0.22787387421062213","0.3649573674845374","0.6857517775439465","-0.40224832378658726","0.36342274575935896"
"0.04182338169758221","0.052742698070615046","-0.11813991462502449","0.036975054184712225","-0.03322463142502138","0.5863619586275254","0.6470210602878804","-0.5044123187005334","0.278649287023898"
