"AccX","AccY","AccZ","GyroX","GyroY","GyroZ","MagX","MagY","MagZ"
"0.06711953403682144","-0.1103992968198132","-0.14530417637510287","-0.007626824157834136","-0.32033411933900013","0.4766668197514642","1.6657225155985136","0.46663376157335645","-0.28180019185723326"
"0.0947641760370368","-0.16203393919445228","-0.07299143700634707","-0.023549162133044782","-0.20896204088148787","0.38223677874112044","1.721171528073025","0.36676529030546245","-0.31974967540914007"
"0.13535068889818208","-0.13309527219470482","-0.05099856668196595","0.06699454944453441","0.0064502505053409265","-0.024108477402978844","1.7534935654953538","0.3157360635070193","-0.3531883676344636"
"0.0985358474670809","-0.07355495162426254","-0.007426082991782792","-0.055189927718306823","0.041766938498427414","-0.4516646962412546","1.7317597817113743","0.37064393370741233","-0.37582404150155696"
"-0.013194040635946834","0.0015893973430571983","-0.1480778100351314","-0.04557494746880091","0.36852857202074535","-0.6002385104446276","1.6860631081142892","0.4781113798036165","-0.22094209887608116"
"-0.10160973999697677","-0.011865524735712661","-0.09704542899320659","0.034366965519856754","0.011573581511121447","-0.5099341715601534","1.5595613409613824","0.6024786292940311","-0.14360817714011542"
"-0.16741844141619047","0.03323558513970131","-0.007697870176935251","-0.07405885711753249","0.3607982225328811","-0.785822299600654","1.3787251143485268","0.7917669814408929","0.025884806956249548"
"-0.11316357199449782","0.03120177645393299","0.06646265030546727","0.016765014593480794","0.3337539658106314","-0.5940014195837543","1.1598547661137064","0.946675249555505","0.052815538651698295"
"-0.050358866894639594","0.06319842750419212","0.09112795693370314","0.17044680765126902","0.23593991517006993","-0.2368029832931751","1.0166904313930822","1.0257784666918714","-0.07962848581339303"
"0.03974272911869529","0.12132816983394322","0.09223699734728119","0.4076875639427729","-0.09125251182215993","-0.03215602343202793","0.9556965176711184","1.0403563611107647","-0.36962987515092277"
"0.11789381156926088","0.17651522574552184","0.16325069310311224","-0.08184268762892283","-0.2098643138712479","0.1587984591384392","0.8342381029091094","1.0443933164883044","-0.599140899061098"
"0.11265896285505071","-0.1274861981890108","-0.1795398615443456","-0.4052100603358218","0.17678479185999516","0.5026344743084078","1.0763747453229335","1.0192876756926899","-0.4487975316218256"
"0.07184408850447443","-0.24415493750744693","-0.07765684165117541","-0.09717832599824093","0.19436355872945743","-0.18387022501826872","1.129455332641499","1.0187203911134932","-0.21610770730215606"
"0.0177413445374158","-0.00041096464215865177","0.01858081144401416","0.09266530476373196","0.15114300721201435","0.11447143012137603","1.0857927182959914","1.0391822139584737","-0.1205688201361865"
"-0.17714291668077067","0.15278053296216837","0.4347817869868884","-0.03279059553797192","-0.1108751543766489","-0.10038542905949656","1.1420776455314259","0.9796964891306091","-0.008357982853377945"
"-0.09968410133072324","0.16304306095777155","0.06519045497071108","0.04955530320046209","-0.2145791090697286","0.3922355391873455","1.2212387733907666","0.9299469508015169","-0.01827028335907624"
"-0.13829315658910613","0.05068084401481825","-0.08384640239511101","-0.08154616075229842","-0.12075229132290768","0.5553221173393655","1.2920686174662488","0.8352895820634535","0.005112286028397064"
"-0.12301321377238453","-0.052472104384712163","-0.06533141671964132","-0.11094564527008781","-0.27316223438364257","0.674020994384236","1.4286013617502231","0.6874393895272197","0.003711652634599293"
"-0.06837321661744117","-0.0754433398728462","-0.04326213206508815","-0.1514774034060845","-0.42556739085026724","0.567505073028698","1.6097162266167202","0.5522937330320667","-0.0274013671060402"
"0.04432671196371177","-0.12315474659572481","-0.10639276030019774","-0.054652713441824964","-0.34280717868607313","0.39895800676890947","1.6857844698606483","0.4583751535134224","-0.14074807394391228"
"0.08743502196579597","-0.1345390893924668","-0.11029195639113884","0.012139965517819791","-0.225272360311765","0.34025169240138914","1.7150414864929284","0.39402133543617174","-0.2573830822850762"
"0.16923518968891196","-0.17602546268643351","-0.09196697391501583","0.13021350189109557","0.03938800122569147","0.037711528627771246","1.706403700630065","0.3311846737916565","-0.3689107634901631"
"0.09334249626612848","-0.0683707130386294","-0.028107311665021607","0.0837261747330258","0.1121298719173779","-0.3786883062854326","1.7041745946009386","0.36644866635428286","-0.3373515676509159"
"0.02094175600072914","0.007807263621850739","-0.11949885055078678","-0.041944418729350945","0.30544126164919655","-0.5483760078388439","1.6868990228752119","0.4363829815710737","-0.192092646522151"
"-0.19536908665686015","0.01485963546660254","-0.023619518706539104","0.0025366345384669714","-0.1805942908877865","-0.6425633604888423","1.5389421101919658","0.5835867335403158","-0.07397038451896144"
"-0.1810519631732653","0.026748794923856994","0.013373278105397672","-0.17450637382444656","0.38288835435114343","-0.8186823035914033","1.3411089501070235","0.7447747100199895","0.06667641591284047"
"-0.109716678781904","0.018284286762301292","0.077935126092108","0.013885430541586108","0.3407184602408745","-0.5430368639112481","1.0759289241171082","0.9407781284647851","0.15404684835045387"
"-0.04214601798306837","0.05579029494704214","0.08860834929019248","0.22936708313637594","0.22460526031727573","-0.20616115091598156","0.9620494698541281","1.0510424194630759","0.04131302076891106"
"0.0341111988392369","0.12341599182495155","0.06889964786230544","0.4494708965580284","-0.08246911163006644","-0.022639242069448593","0.9381980353424786","1.0782061159413576","-0.24115403957747789"
"0.1284463114603301","0.21275607612675615","0.08452328050423832","-0.17502625860813867","-0.23452006013254134","0.12853279371978088","0.8367458471918763","1.0878499537877027","-0.4658927770117026"
"0.09607200242180286","-0.14646356524160895","-0.10772897845212512","-0.36918397032515665","0.3110894426991531","0.5382125879350242","1.0392322661126199","1.0395252232389183","-0.23319478096861537"
"0.04620517248264207","-0.23043348054166576","-0.04348930980343749","-0.11755973501817088","0.1667114045552209","-0.19199057755542137","1.1130992671527864","1.00956468185855","-0.09776644311137155"
"0.011124850080168749","0.030004135281976464","-0.04999898463322894","0.08572099190304444","0.19960248598299768","-0.09014398025292625","1.0193096309773053","1.04405030720786","-0.06638212215326364"
"-0.07254222432988001","0.2521650146037991","0.14070846570235915","0.0522548530772634","-0.008282407506236468","0.11444958816894497","1.0165511122662618","1.0294987981182313","0.0944815220139856"
"-0.12968555175095292","0.07977635734324341","0.025084703567738554","-0.015898191066375758","-0.18117825536922272","0.42839610487879043","1.1667092671532693","0.9225062879487965","0.10234271994183536"
"-0.12471740399201887","0.06155725399882239","-0.08638046680378936","-0.07657837281924039","-0.19393931526683644","0.6512082885117809","1.3118519334747434","0.7976904878608778","0.13170535652639856"
"-0.11890197521993329","-0.06638676278846724","-0.018815742166534363","-0.0662288146253695","-0.3695403067911641","0.6640707716100801","1.4801494386737648","0.6383494844297516","0.0064508143242201325"
"-0.059120522826093064","-0.05040921161150691","-0.09802642377244228","-0.14102194275627633","-0.42903767158011347","0.5729898299725011","1.6183540124795834","0.5172935937620902","-0.09602913471276359"
"0.08483926104368623","-0.13444560482570522","-0.1099222762532795","0.009533032152483642","-0.31640911216869133","0.41628595569756155","1.6986018295281233","0.4210399126034963","-0.16688287977847477"
"0.09901167278151213","-0.16140032157529052","-0.0935076520314576","0.07885273626071188","-0.1844929717904896","0.4008024383075334","1.7440198648715683","0.331659609718426","-0.2811137670901445"
"0.1418834180734471","-0.14831248222867108","-0.06473042833909903","0.09973284957314649","-0.014816826455684105","-0.13514810979535272","1.782750582127634","0.28333487916964173","-0.32726766095344545"
"0.08901568246499017","-0.06975636206151752","-0.02209949311176546","-0.02681865977270856","0.07451202880584512","-0.4506454051278045","1.7532149272417132","0.36336158283028186","-0.3581894623661102"
"-0.036138025344357415","0.005800877075665811","-0.18282980824607714","-0.0011320190851204187","0.43075429545247024","-0.7354887336650454","1.695815446991716","0.48093461003496785","-0.19705451698139256"
"-0.07663420649566872","-0.03974677741364592","-0.11032913093014145","-0.08547610461717109","0.1874780431020316","-0.6048253204551532","1.5723787006288574","0.6235341220474734","-0.09781547345187788"
"-0.187050327618645","0.022762197510180368","0.0035689064938910033","-0.06497820289571013","0.3713047966046223","-0.8285839886934903","1.3667436694419735","0.8114240517432921","0.030184767818655537"
"-0.1011764712970697","0.03685863146041628","0.08050429978762215","0.044570185774614315","0.38580817675832435","-0.5511669239828145","1.1553965540554543","0.975210983155565","0.02635713256979395"
"-0.04310883731619512","0.08198467055363333","0.10969663916550995","0.20617444528611084","0.17900098493298658","-0.19097128644197126","0.9977987577962381","1.092678469043191","-0.15996960176708092"
"0.08305611963873549","0.15318563275146846","0.07145023428831827","0.4069462467512119","-0.26660460045276074","-0.11947286860065187","0.9233466164234261","1.097322286993825","-0.5304003616712101"
"0.10677902518764561","0.19332167341443476","0.08240020127675557","-0.09431318319033768","-0.2456129919827738","0.35321125084382643","0.8753093814957579","1.086715384629309","-0.6894711297206106"
"0.09615865616178426","-0.18495843239920548","-0.1019152936025493","-0.4565246139854328","0.12941904984317715","0.3858771041462995","1.132715400209096","1.0645912860406355","-0.4014505661395371"
"0.05740372414623936","-0.17120581391117048","-0.043536810603274155","-0.14565276832953392","0.20809390393437308","-0.2926795513790696","1.1588516684005996","1.0645517080467382","-0.21595898193595353"
"-0.004904166177725466","-0.08265827099202229","-0.18201816414452004","0.0345392976981547","-0.06508898841617466","0.15537655325757094","1.0689908316014531","1.0769791981305366","-0.1965315266826583"
"-0.11511809524074514","0.23765413240758693","0.1279782513461299","0.07678763836993485","-0.11712405298742709","0.1465426969410032","1.0878825051982972","1.035607001843071","-0.12844472716618816"
"-0.11509883885408258","0.12906661452698404","0.06136354270560841","0.009764958530986292","-0.1256489770975734","0.4117234145230705","1.202347099793923","0.9666489438090837","-0.08754525146048331"
"-0.13545283955638218","0.06290550919500588","-0.07241523165180652","-0.046410614121106024","-0.21172151238597936","0.6883396076446069","1.3486321829553238","0.8461207597267217","-0.04919045042705747"
"-0.11736146428693048","-0.05448825487453664","0.005989175508178001","-0.08798214182448698","-0.296592612552742","0.697367614649451","1.5110782848278894","0.6857771137835268","-0.0787786265779498"
"-0.03418350209811011","-0.06859715343367408","-0.06374117255119607","-0.13315627852893447","-0.35841147548510566","0.593351383405469","1.6846699168460855","0.5150508407745681","-0.18097093095062966"
"0.061021036380796576","-0.13799801836264483","-0.13950288303852795","-0.0032997460831966714","-0.24332499999813037","0.3991278886211511","1.745413056139772","0.42439084942014693","-0.3018045707838198"
"0.15502879042862666","-0.21283760764232185","-0.12415392893478107","-0.01109984706281738","-0.2083996160735473","0.3167594591199672","1.7440198648715683","0.36351989480587166","-0.3896996278648511"
"0.1091360069151399","-0.11523971994324547","-0.028865259210241617","0.07013888963627231","0.013467158141089937","-0.19676668448701623","1.754608118509917","0.34507654964966084","-0.393393246849662"
"0.08027260894666603","-0.03604998215693016","-0.014829805484587177","-0.05903129862003194","0.08639235538719445","-0.4235128464412035","1.718385145536618","0.4204726280242995","-0.33011142070281313"
"-0.04830806171507959","0.00921825734950533","-0.14977131681191727","-0.019429556597084455","0.42280854922965","-0.7203692488155353","1.6286636278642919","0.5331379839857019","-0.1820038367906299"
"-0.08562693906707264","-0.03417717466947342","-0.07498647059948749","-0.10498622524961702","0.2919430662586224","-0.5650486981945638","1.466496164245367","0.6705263934683768","-0.10844361692896874"
"-0.1801372848067949","0.011438308066610866","0.025050213856552792","-0.04995834639500502","0.3707304053114064","-0.732382322652626","1.275350322247803","0.8267935060401345","0.021849609932577823"
"-0.08993074148614923","0.02404085863999692","0.1012084527599126","0.045565668860424784","0.2981895715723455","-0.4678034722042149","1.0760125155932005","0.9576515465297306","0.007768096139157111"
"-0.023284387247115228","0.08537608289226131","0.06569024599507958","0.22505396493093022","0.16328659646942098","-0.15455347108856035","0.9802445478168698","1.0216095846680067","-0.15650805972733337"
"0.09487856860200558","0.1597918754692859","0.034269499529201615","0.4002455095391801","-0.2675619192747873","-0.07612144679217667","0.8819688357577729","1.0168074547417831","-0.5010148442610772"
"0.11237878242911081","0.12919126061599948","0.08750550463311486","-0.22777530916090016","-0.22938883124647913","0.3912405169099299","0.8216436538445473","1.0226122271800755","-0.5863439801889434"
"0.10563712145855729","-0.17671101617601837","-0.23004353803156657","-0.4338133509348826","0.23165112684739106","0.28533131645525495","1.0421301039504836","0.9907387494279972","-0.34202579344585365"
"0.07037001210545736","-0.1420697906038153","-0.016992124503239354","-0.023010022357364063","-0.04138338108574254","-0.34580403345864874","1.0253560810813096","0.995514494024956","-0.18251211798721229"
"0.035780727562878686","-0.0021243290074164905","-0.2948924560694638","0.04259751184538255","0.20136155931847144","0.10191716124071533","0.9755634251557052","0.9952902187262038","-0.1583679439772072"
"-0.05965007345931278","0.1917324357794881","0.1399257351311374","0.09675987881010713","-0.09297329240475262","0.35541971492296837","1.0293127442830083","0.9707386698451533","0.11573780896816732"
"-0.11130533068156317","0.13219315392645425","-0.0060592991077866015","0.025014815910995185","-0.18049137911441865","0.47067241725093606","1.1970529729747483","0.8670839038277368","0.10245222103563285"
"-0.1345863021565681","0.02134538696503839","-0.09142794309947791","-0.053052623607572555","-0.309324952885695","0.7435026719510863","1.30349278586552","0.744840673343152","0.0026460599009281932"
"-0.11014994748181106","-0.05808948812967391","0.003453871948199575","-0.09424386521917874","-0.3785391037182136","0.6809861503261453","1.4648243347235228","0.5954469390449179","-0.06309218630528826"
"-0.017276394608404272","-0.034591622915449705","-0.12327206625955234","-0.21003183404340803","-0.39438273022275283","0.5287962795536277","1.5821310395062844","0.4821087571872587","-0.16679135647619628"
"0.08764510914428422","-0.13943144838632218","-0.10707016301091209","-0.038205099285165404","-0.3024322573671039","0.3446443517236385","1.6941436174698716","0.38432472693129693","-0.2463022253306435"
"0.10484077358812814","-0.17261846958667862","-0.08194017464514353","0.07367121791658042","-0.14006380526023798","0.29001520180991863","1.7206142515657437","0.3153007055741474","-0.33694298148002977"
"0.1322244145235195","-0.10884122070712038","-0.028766127106234635","0.10120585646027415","-0.016367204287956082","-0.16143125922074525","1.7050105093618615","0.29250378108921726","-0.4106355832610581"
"0.08311677725672248","-0.057293830594792115","-0.03258271311050324","-0.03452450756654508","0.08549008239743443","-0.5007362827030678","1.6969300000062788","0.3669631802749497","-0.3686165814471251"
"-0.10852278280882686","0.02417796933791389","-0.18890164961650446","-0.053737138572767185","0.4836461603694365","-0.7085260568306861","1.6389732432490003","0.49086868650322735","-0.19402280759341725"
"-0.09840355161766466","0.0006065629311705858","-0.05073214915244721","-0.10813441643975263","0.2891907746452961","-0.6823642515854663","1.5358770894019178","0.6307505096014414","-0.06256919600655397"
"-0.18187998779975428","0.0007411807073072432","0.024003750583629142","-0.09690875611040056","0.4047630894344498","-0.8330251856878087","1.308508274431054","0.8097221980057019","0.06306451416220679"
"-0.08832283319982752","0.03518318028056729","0.11428769473233305","0.08506247117703443","0.3717595230450849","-0.4952272569232302","1.0740341839923513","0.9582847944320898","0.01571264564586766"
"-0.02998560980567744","0.08645738771447012","0.08767072480645983","0.29596047292893873","0.1761409949521823","-0.15746087764549666","0.9561702027023081","1.022599034515443","-0.19242605283759412"
"0.11552431319043592","0.17569463899283697","0.019982911140062835","0.3920621379440264","-0.36049364392301336","-0.12173229723546633","0.8554146101858076","0.9912004926901342","-0.5744132639990672"
"0.09500394693556534","0.13331496872759308","0.08751376564178212","-0.1663903947012529","-0.17811722843579283","0.5389163841800254","0.8260461382520711","0.9877835925503211","-0.6565717712408569"
"0.09551464556624245","-0.18646457264147523","-0.25546679220502244","-0.29706439783186656","0.15431173251292218","0.24347000117929976","1.0913654833688067","0.9860289681542008","-0.35374404482686883"
"0.0565525918557553","-0.15908398175442057","-0.05399524757601019","-0.12605118648514216","0.06229185404267638","-0.30039704123804917","1.0951828274436848","0.9918205479278609","-0.23040005155975404"
"0.0034174813184890615","0.04795732696983125","-0.2655658753007332","0.17497173076858935","-0.056236182609484264","0.10494591197782427","1.0489567411646825","0.9931793923850065","-0.20687039115076172"
"-0.07377463307628226","0.16887026561924254","0.25438201021585916","0.051824504006318245","-0.0372262241010923","0.18241446348363727","1.0598236330566724","0.9384430268248358","-0.05823001087174293"
"-0.11865164219332033","0.22421312914209043","0.017310681361424773","0.103554965482883","-0.16209649794917874","0.4521067576845231","1.183427562371715","0.8651973527852918","-0.042563182735283915"
"-0.1281835535912752","0.013718604393407186","-0.09710119080171051","-0.0759237030916281","-0.26076495563839885","0.6956202584549649","1.3408303118533829","0.7549594471162661","-0.03578882402199134"
"-0.11909453908655863","-0.05664047734486961","-0.00041104095677242495","-0.11257269209312425","-0.32380440006884637","0.6769575235444139","1.4826571829565316","0.6220961216025329","-0.1007589282269418"
"-0.039738969650251484","-0.07029130152687538","-0.05515591929375854","-0.1392601109893197","-0.3785630366887643","0.5735480132012952","1.597456143456526","0.5079795725315575","-0.1954120005744302"
"0.08641462603654824","-0.13292907740935095","-0.14164041903117838","-0.09904606022113484","-0.3134174908498584","0.369083069610407","1.6361868607125922","0.4274251622856179","-0.3158109047217974"
"0.1008124337802591","-0.16217935963163693","-0.09591573605796042","0.05488123398450803","-0.15452410606694883","0.26021307115951975","1.6531837941846788","0.3512507166976628","-0.3792234784433298"
"0.12557229575094675","-0.1189583282655389","-0.03152943450542911","0.14994986867940752","0.012614905059780813","-0.056966054510124674","1.6779825987587071","0.2979787369116976","-0.4203435906813132"
"0.09265485069840936","-0.05398136077920725","-0.0018257386910386537","-0.04384777468742376","0.026813618498372906","-0.46627453553403975","1.6643293243303094","0.35754361772735704","-0.4342845508319491"
"0.009340745855884873","0.005087693703015897","-0.08398477429028742","-0.11244753464519835","0.27104958296789317","-0.6075191612549856","1.6272704365960882","0.4734807545176151","-0.2980128911179962"
"-0.17224216627515548","0.012665241069486011","-0.07771879921617977","0.11352905133297625","-0.23088703520295065","-0.6287058551131275","1.4882299480293468","0.6124786690854528","-0.21454690812937094"
"-0.18502840701907883","0.03405617189238618","-0.02715523041612127","-0.07339648539312474","0.34148431529849566","-0.8147264833177754","1.2912327027053268","0.7817273636555737","-0.06413326386870621"
"-0.11776584840684373","0.04007346183960574","0.0651099101362054","0.004272279516319107","0.32796218693737084","-0.5996317895437645","1.0413499168402895","0.9304482720575513","-0.03937294191300476"
"-0.048105869655122965","0.06374271542622614","0.12824053837131502","0.13490209244031892","0.2607823386016586","-0.2201909650275415","0.8704053482316811","0.9938126402873656","-0.14042120500720334"
"0.04397432008778737","0.1418012899547265","0.13106993383984747","0.3890583591938052","-0.125850014050199","0.008052826798336403","0.8012751975034073","0.9819656274473963","-0.3919386800813072"
"0.12086410921195692","0.20018759548436763","0.10917619561947332","-0.05431863933082281","-0.26042989405068956","0.3083624418520209","0.7158168451117848","0.9598679141879878","-0.6493479677395896"
"0.12556266755761547","-0.12440120748587906","-0.20482680907479192","-0.5346228614911823","0.0033612219963667974","0.44196238422209094","0.9677058264030355","0.9498810670611982","-0.500459167068672"
"0.0469369151758184","-0.2168886055353231","-0.0676135203639686","-0.1670450644288652","0.21789206207781464","-0.18433618667013163","1.0417400103953867","0.95626631674332","-0.25803682015849405"
"0.04938825319795912","0.09177562084579484","0.49882525667972893","0.23805108452323318","0.25908309769256144","-0.1121630951870524","0.9801609563407778","1.0020844410119325","-0.134880776529987"
"-0.12623865853835917","-0.01454957051917811","-0.00029001717979724377","-0.024830581849885916","1.1916073622286114","-0.09342027311758737","1.0690744230775457","0.9324007864231586","-0.026795025228445138"
"-0.07810732007535269","0.15257278948047595","0.13256724166078618","0.10830132100807216","-0.16429593794278471","0.35859893244349134","1.116665836799388","0.9092740453224165","0.0239023468551099"
"-0.14088314059521712","0.056132032974426094","-0.08761342234737611","-0.0003250423708783178","-0.09314800308977247","0.6311864987832962","1.1906164293156465","0.8127828962004379","-0.014210571165151335"
"-0.1285397967445321","-0.03006281501455599","-0.08531273143354753","-0.11201429732545493","-0.29721486978705924","0.6921255460659931","1.3553195010427022","0.676080505278652","-0.03284536924692743"
"-0.06550401500472346","-0.088984060009555","-0.029344397712942","-0.11777153993004545","-0.41149480416647716","0.6670315696062924","1.5512021933521594","0.5378345725948658","-0.08219767565592521"
"0.051537265949498035","-0.11881290782835426","-0.12616548454525595","-0.061948429906304385","-0.3412036696591787","0.41997481877480963","1.620025842001428","0.44374448843599906","-0.2023743089263304"
"0.08915298050189405","-0.14597536805963188","-0.09872034850049112","0.022255575559029236","-0.21330587503643328","0.3343300964089646","1.6437100935608933","0.37084182367689955","-0.3104829410534419"
"0.15542739763254118","-0.1544097534163422","-0.07908393089844251","0.08539173154003943","0.004868999141058593","0.08662536765536001","1.6113880561385645","0.3141925217450188","-0.4061738222749811"
"0.09652037775704667","-0.07457601083678055","0.005609788685134634","0.0409897200143347","0.025533204573912407","-0.3755090887649095","1.610830779631283","0.34315042061331835","-0.38762401011674935"
"0.02908528192031523","-9.872618917501744e-05","-0.10350966827532819","-0.03794900789171706","0.28789839423556024","-0.5868178441175343","1.6169608212113797","0.4242721154384546","-0.2694118591559649"
"-0.20627782970118633","0.03607959340406988","0.03071499402490146","0.052079632650167164","-0.1414208046904606","-0.6174693840291416","1.491852245326677","0.5579006155008719","-0.1503351398575852"
"-0.20104009252897673","0.021667389361661574","0.003981750402036725","-0.07722534055005727","0.3416279131217997","-0.7894868938418675","1.3076723596701318","0.7029143851411218","-0.041917616585283785"
"-0.14848941332691848","0.035643332092515904","0.06890997412313951","0.004999059188928701","0.34974119013847454","-0.6375397114296952","1.0351641476094646","0.8856327903010075","0.03437359324258048"
"-0.06839247300410368","0.05346356795208757","0.11927321346301727","0.13875309083803833","0.2816040229807358","-0.3027996560054673","0.8721050415788892","0.9772954241674974","-0.021141826968064194"
"0.026340284001570853","0.1168097491071341","0.13832103419752445","0.2979341096077699","-0.03661114675794025","-0.12577063155161158","0.8060677754660283","0.9975461643783584","-0.22902720202557653"
"0.15981785379159918","0.21009695956109378","-0.0789765377857683","0.053264777407065304","-0.3151406647295062","-0.002659922804024412","0.7037239449037759","0.9989709721586665","-0.5218854258699424"
