"AccX","AccY","AccZ","GyroX","GyroY","GyroZ","MagX","MagY","MagZ"
"-10.707","4.3529","-1.8258","-0.79087","0.095515","0.22945","0.85822","-0.19541","-0.36623"
"-8.786","0.031642","-1.5274","-0.58576","-0.17147","0.38903","0.85335","-0.19277","-0.3695"
"-8.7865","0.2034","-1.3476","-0.20961","-0.083111","0.26441","0.85499","-0.18909","-0.35494"
"-8.4863","2.8815","-1.1794","-0.10261","0.029353","0.30634","0.85438","-0.19589","-0.34548"
"-8.9756","2.2859","-0.91844","-0.3721","0.046741","0.44047","0.85809","-0.20061","-0.33107"
"-9.2165","1.3535","-0.58463","-0.13557","-0.010611","0.52111","0.86335","-0.20601","-0.31277"
"-8.4465","1.073","-0.9215","-0.11019","-0.10783","0.58033","0.862","-0.21899","-0.30319"
"-8.8586","1.2074","-1.17","-0.003457","-0.096279","0.66251","0.86542","-0.23311","-0.28588"
"-9.3694","1.7753","-1.1509","0.29531","-0.14382","0.85293","0.86182","-0.2614","-0.27966"
"-9.6762","2.1168","-0.58719","0.45397","-0.092732","0.9487","0.86159","-0.29068","-0.26577"
"-9.2288","2.2166","-0.71337","0.53378","-0.18809","0.99128","0.85896","-0.32572","-0.25199"
"-8.888","2.6018","-1.0521","0.61706","-0.14","0.92638","0.84771","-0.36494","-0.24742"
"-8.7284","3.3541","-1.4399","0.37428","-0.11779","0.88782","0.84393","-0.40081","-0.23171"
"-8.8788","3.5187","-1.4956","0.034351","-0.093531","0.86329","0.83335","-0.43163","-0.23135"
"-8.7963","3.5036","-1.3964","-0.025863","-0.15067","0.92819","0.83071","-0.45561","-0.23049"
"-8.8509","3.8791","-1.5479","0.029572","-0.030098","0.96263","0.82722","-0.48478","-0.22848"
"-8.6576","4.1341","-1.3643","-0.008582","-0.059136","1.0331","0.80898","-0.52053","-0.23136"
"-8.6013","4.7052","-1.5663","-0.10958","0.083559","1.0253","0.80295","-0.55406","-0.22893"
"-8.9624","5.2434","-1.4766","-0.4034","0.043662","1.0763","0.78202","-0.58769","-0.23919"
"-8.8738","5.3942","-1.5801","-0.68792","-0.003529","1.1148","0.77123","-0.61933","-0.24765"
"-8.9062","5.8591","-1.5962","-0.92009","-0.041917","1.1535","0.75455","-0.65032","-0.26785"
"-8.5503","3.6912","-1.1815","-1.1159","-0.057808","0.97821","0.72691","-0.67858","-0.30148"
"-7.7432","0.88066","-0.89215","-0.50313","0.23623","0.12115","0.72139","-0.6901","-0.32226"
"-8.3069","3.1419","-0.50077","0.26513","0.61891","-0.62477","0.73158","-0.67824","-0.31233"
"-10.491","6.5534","-0.53336","0.37918","0.7992","-1.0313","0.76535","-0.65733","-0.27707"
"-11.461","6.8594","0.72236","0.30669","0.58239","-1.0494","0.79504","-0.6302","-0.24124"
"-9.0095","3.6303","0.39997","0.20093","0.33474","-1.1516","0.8037","-0.59988","-0.22457"
"-7.2866","2.5437","0.030595","0.60421","0.16429","-1.2563","0.82924","-0.55668","-0.1895"
"-7.4897","3.4801","-1.7002","0.84047","0.13507","-1.1134","0.83418","-0.52264","-0.17434"
"-9.283","4.6167","-2.5928","0.63768","0.12745","-0.98795","0.83782","-0.49933","-0.16461"
"-9.7379","4.5245","-2.4968","0.056846","0.08524","-1.0589","0.84698","-0.46491","-0.15768"
"-8.3628","3.1334","-2.1226","0.21595","-0.037988","-1.0565","0.84887","-0.43362","-0.16727"
"-7.641","2.2658","-2.0171","0.52464","-0.139","-0.90209","0.85789","-0.39944","-0.1639"
"-7.9381","3.1518","-2.5492","0.16176","-0.075063","-0.97386","0.8575","-0.37379","-0.17741"
"-9.6401","3.2099","-1.9082","-0.35528","-0.045346","-0.91535","0.86286","-0.34218","-0.19343"
"-8.2132","2.1691","-0.94801","-0.35147","-0.001938","-0.80055","0.8677","-0.30919","-0.21145"
"-8.143","1.5993","-0.93098","0.17759","-0.038648","-0.63853","0.86501","-0.28724","-0.23178"
"-8.8857","2.0479","-1.3065","0.22463","-0.048844","-0.5132","0.86941","-0.26465","-0.24756"
"-8.5596","2.3362","-1.7805","0.24412","-0.016468","-0.50412","0.86607","-0.25176","-0.27026"
"-8.6335","1.844","-2.5468","0.12034","-0.046205","-0.43918","0.86618","-0.23724","-0.28583"
"-8.7762","1.9936","-2.5723","-0.13446","0.017536","-0.49166","0.87053","-0.2197","-0.3012"
"-9.0474","1.2847","-1.9092","-0.36607","0.13764","-0.58271","0.87124","-0.20015","-0.31715"
"-9.3294","1.1168","-1.4645","-0.45038","0.10967","-0.67821","0.87923","-0.17049","-0.32698"
"-9.4769","0.77101","-1.4296","-0.57841","0.051807","-0.67869","0.88185","-0.14521","-0.34154"
"-9.6234","0.39372","-1.0194","-0.37213","0.014678","-0.64369","0.88533","-0.11287","-0.34909"
"-9.9799","-0.057182","-1.1462","-0.026025","-0.16511","-0.54265","0.88696","-0.087953","-0.36066"
"-9.2941","-0.02227","-1.6726","0.21556","-0.26961","-0.49399","0.88315","-0.073726","-0.38089"
"-9.3398","-0.020824","-2.0637","0.40615","-0.2945","-0.50652","0.87932","-0.057963","-0.39401"
"-9.5761","-0.48738","-1.9179","0.32998","-0.2062","-0.3851","0.87532","-0.05525","-0.40974"
"-13.137","0.34695","-2.1404","0.47742","-0.015419","-0.41084","0.8725","-0.051606","-0.41304"
"-15.556","0.30661","-1.9639","0.46078","-0.066819","-0.059924","0.87519","-0.052976","-0.41186"
"-12.706","-0.14494","-4.2846","-0.04319","-0.006833","0.10252","0.87077","-0.061823","-0.42179"
"-12.097","-1.723","-2.9726","0.011017","0.1002","0.072987","0.87243","-0.069468","-0.41458"
"-11.423","-1.3881","-1.6989","0.01723","0.087617","0.091537","0.87423","-0.088688","-0.41498"
"-12.009","-0.2921","-0.69898","-0.1806","0.13932","0.17247","0.87585","-0.098205","-0.41277"
"-8.5528","1.3656","-1.044","0.11842","0.054607","0.29917","0.87724","-0.11374","-0.41162"
"-7.8809","1.2277","-1.5106","-0.018097","0.20588","0.38486","0.87772","-0.13402","-0.40747"
"-8.2406","1.4883","-1.398","-0.028692","0.12776","0.41085","0.88039","-0.14502","-0.39033"
"-8.2085","0.94957","-1.6744","0.25205","0.086024","0.46693","0.87654","-0.15859","-0.37797"
"-9.3158","1.1787","-1.9295","0.26547","0.13586","0.50882","0.87771","-0.16679","-0.3559"
"-9.317","4.2615","-1.9629","0.037126","0.33358","0.8523","0.87883","-0.18104","-0.32395"
"-10.583","3.7361","-1.2824","-0.029825","-0.15843","1.1877","0.87477","-0.2089","-0.2984"
"-8.7693","-0.053232","-0.94176","-0.1884","-0.41802","1.058","0.87151","-0.23065","-0.28138"
"-7.8408","-0.7149","-1.4626","0.033113","-0.16974","0.9651","0.86355","-0.2597","-0.27405"
"-8.533","0.24969","-1.4175","0.13917","-0.048034","0.99177","0.86409","-0.28385","-0.2529"
"-9.5965","2.2701","-1.3211","0.099637","0.031059","1.2381","0.86259","-0.31905","-0.23524"
"-10.1","2.8383","-1.3468","0.13913","-0.022376","1.3323","0.85176","-0.36337","-0.22564"
"-9.2376","2.2561","-1.2163","0.3331","-0.097945","1.2001","0.84592","-0.40762","-0.21277"
"-8.7866","3.091","-1.3657","0.18673","-0.11561","1.1348","0.83039","-0.44984","-0.20906"
"-8.9554","3.9677","-1.31","-0.062087","-0.13633","1.1172","0.82172","-0.48345","-0.20372"
"-8.7901","3.9294","-0.96152","-0.20137","-0.18726","1.1363","0.81013","-0.51892","-0.20616"
"-8.2439","4.9241","-1.5594","-0.2278","-0.086281","1.1301","0.79045","-0.55486","-0.21714"
"-8.348","4.7816","-1.6739","-0.34975","-0.12923","1.0962","0.77797","-0.59078","-0.22436"
"-8.7246","5.2836","-1.8996","-0.58769","-0.11203","1.0805","0.75372","-0.62399","-0.24452"
"-8.6219","5.6663","-1.8454","-0.91434","-0.098422","1.1354","0.7411","-0.65201","-0.26269"
"-8.4469","3.9537","-1.0747","-1.1378","-0.087712","1.0398","0.72478","-0.67876","-0.29263"
"-8.4199","1.7923","-0.72666","-0.61487","0.17435","0.33535","0.70913","-0.68961","-0.32073"
"-8.6495","3.02","-0.37246","0.24627","0.53467","-0.50095","0.72764","-0.68499","-0.31302"
"-9.9744","5.0465","-0.1912","0.34454","0.6669","-1.1128","0.74893","-0.65983","-0.29048"
"-11.253","6.7281","0.013887","0.44862","0.56519","-1.3125","0.78837","-0.62958","-0.25525"
"-9.8191","4.197","0.44311","0.39687","0.46159","-1.2467","0.81492","-0.59661","-0.22287"
"-8.0902","1.9404","0.045118","0.47827","0.16566","-1.3446","0.82433","-0.55949","-0.20553"
"-7.9493","2.8776","-1.5512","0.83122","0.15979","-1.3763","0.84692","-0.50948","-0.17904"
"-10.172","4.8808","-2.0258","0.61672","-0.028819","-1.1125","0.84871","-0.47605","-0.17034"
"-9.579","3.1557","-1.4417","0.023699","-0.076735","-1.0594","0.85387","-0.44985","-0.1695"
"-8.1745","3.1313","-1.451","0.1472","-0.1233","-0.97767","0.85907","-0.41504","-0.17816"
"-8.3873","1.104","-1.1154","0.52469","-0.22659","-0.82875","0.85234","-0.39275","-0.19236"
"-8.4739","2.9009","-2.2446","0.66075","-0.23553","-0.79672","0.84985","-0.36768","-0.20649"
"-8.682","2.5267","-2.6235","0.28688","-0.14164","-0.75559","0.84392","-0.35123","-0.22683"
"-8.1751","2.8723","-2.2761","-0.033242","-0.034067","-0.75126","0.84658","-0.33248","-0.24268"
"-7.1933","2.5732","-1.5582","-0.085175","0.016661","-0.65391","0.84896","-0.31322","-0.26184"
"-8.1589","3.1302","-1.1581","-0.22811","-0.019572","-0.55518","0.84786","-0.29453","-0.28511"
"-8.9444","1.9567","-1.0675","-0.17697","0.045938","-0.43492","0.85301","-0.27747","-0.30492"
"-9.0014","1.2232","-1.5106","0.072972","0.053567","-0.38472","0.8512","-0.26753","-0.32505"
"-9.2002","1.944","-1.8755","0.039745","0.057206","-0.41368","0.85569","-0.25519","-0.33237"
"-9.1578","0.96926","-1.9036","-0.11551","0.067023","-0.45618","0.85842","-0.23918","-0.34413"
"-9.3476","1.6427","-1.7055","-0.34116","0.10788","-0.51135","0.86161","-0.22474","-0.35876"
"-9.2561","1.4317","-1.3733","-0.58094","0.085232","-0.56803","0.86876","-0.19773","-0.37324"
"-9.6695","0.45522","-1.4256","-0.42652","0.004345","-0.38612","0.8709","-0.17697","-0.38425"
"-9.8451","-0.24292","-1.4434","-0.13379","-0.09802","-0.31636","0.87347","-0.1561","-0.38799"
"-8.157","1.3542","-1.1598","0.05667","-0.1445","1.0197","0.80466","-0.28011","-0.23792"
"-8.8851","1.0734","-1.1605","-0.017231","-0.091546","1.029","0.80788","-0.32501","-0.23133"
"-8.5723","1.2128","-0.58217","-0.21063","-0.048628","1.0704","0.83378","-0.37971","-0.24661"
"-8.6423","1.7838","-0.71203","0.024429","0.030692","1.1084","0.82885","-0.39628","-0.23576"
"-8.7737","2.1345","-1.0626","0.12831","-0.037878","1.1677","0.8399","-0.41957","-0.24603"
"-9.0631","2.2268","-1.4512","0.093865","-0.068016","0.96993","0.85216","-0.44671","-0.24756"
"-9.3413","2.6016","-1.4893","0.11431","-0.01236","0.12504","0.85906","-0.48056","-0.27534"
"-9.4998","3.3469","-1.4075","0.32136","-0.050865","-0.62404","0.87233","-0.53183","-0.30685"
"-9.6178","3.5325","-1.5466","0.18187","0.0042709","-1.0359","0.86083","-0.56391","-0.3213"
"-9.9859","3.5145","-1.3681","-0.049561","0.1174","-1.0365","0.87489","-0.58624","-0.31867"
"-9.2885","3.8877","-1.5654","-0.21734","0.12015","-1.1548","0.87004","-0.61549","-0.27002"
"-9.3372","4.1321","-1.4628","-0.22703","0.057198","-1.2631","0.86981","-0.63419","-0.23299"
"-9.5853","4.7094","-1.5885","-0.35797","0.029958","-1.1174","0.87523","-0.65473","-0.22285"
"-13.137","5.2427","-1.6086","-0.58278","-0.15177","-0.98139","0.86586","-0.71166","-0.1837"
"-15.546","5.4024","-1.1924","-0.89422","-0.26679","-1.0601","0.85607","-0.67864","-0.16257"
"-12.705","5.8732","-0.86177","-1.1342","-0.28512","-1.0633","0.86842","-0.64421","-0.16032"
"-12.117","3.6867","-0.50214","-0.62075","-0.20843","-0.8989","0.87981","-0.61858","-0.14759"
"-11.421","0.88989","-0.52892","0.24521","0.0040384","-0.98074","0.88749","-0.60429","-0.15374"
"-12.012","3.157","0.72159","0.34703","-0.085918","-0.9418","0.87157","-0.54808","-0.18959"
"-8.5612","6.545","0.40925","0.44705","-0.018944","-0.81113","0.89203","-0.53683","-0.17573"
"-7.8889","6.8668","0.025831","0.38693","0.10114","-0.64879","0.90758","-0.51075","-0.18209"
"-8.233","3.6437","-1.7083","0.4782","0.079949","-0.5087","0.89565","-0.46053","-0.20767"
"-8.211","2.5611","-2.5984","0.83644","0.14244","-0.51508","0.85824","-0.44853","-0.23337"
"-9.3111","3.4683","-2.4876","0.622","0.047493","-0.44766","0.88891","-0.40154","-0.24057"
"-9.322","4.6223","-2.1287","0.017861","0.21556","-0.50392","0.86702","-0.39316","-0.27505"
