"AccX","AccY","AccZ","GyroX","GyroY","GyroZ","MagX","MagY","MagZ"
"-0.06931234331709203","0.109212153267215","0.008372608901962236","0.041400989872911624","-0.6174573942291935","0.3434887128524925","0.15964101860084356","-0.16373453294909243","-0.887496978276124"
"0.40855349343500985","0.1117620573437959","0.11091724742048044","0.014726606053457717","-0.4430134232426766","0.4839452211988906","0.20657255519056514","-0.2773732619453709","-0.9152415322398059"
"0.3204484733093887","0.13901655971006457","0.04944942137751061","-0.06119279404806494","-0.34038878733377087","0.5943441979255488","0.2445522833083329","-0.3952730205578177","-0.9029686471923419"
"0.30774181769457326","-0.04681891176054895","-0.08658893085220082","0.09381708674890148","-0.011739211604552642","0.13405298985060568","0.2579623046951728","-0.42370242979585104","-0.9110542029189007"
"0.03864747556561202","-0.41515832173739897","-0.0816690651659436","-0.0742968182670624","-0.3673434255611536","0.04807072111531783","0.2825461644829733","-0.48868876772497954","-0.8979606386281412"
"-0.43128059758083254","-0.3804206837896066","-0.25787954382559003","-0.7502965872300061","-0.15278092325946235","0.1954573842051412","0.3115953137140962","-0.6604150247956379","-0.6866357334795591"
"-0.3376066752397238","0.251430170081139","-0.011662629254262915","0.03543189699023662","0.20201733805911054","-0.32978387879074117","0.2691361430961334","-0.5711024913329343","-0.7683212958889338"
"-0.01691686967398968","0.22614896031684747","0.24197474389344387","0.27391581106836127","0.17022698400355948","-0.20504109340908633","0.2445522833083329","-0.47745002029820743","-0.8408021945127105"
"-0.05342642636283792","-0.25487314538589206","-0.15112659044320714","-0.20561686168591242","-0.22119734719873288","-0.10495676560287495","0.24231610032245351","-0.47750638312381827","-0.8376780178478925"
"0.23154344297743804","0.003320659353324775","-0.34670141648368","0.11778672535589327","-0.02069424091597549","-0.06514866742552518","0.2356146278932517","-0.4366095168606996","-0.8581763471292952"
"-0.038350909357852486","-0.3617640991890954","0.06652664111493237","0.21641665853446845","0.22225570430292618","-0.32889746364914024","0.2021001892188064","-0.31441491093671803","-0.8925143127408168"
"0.3434721436629708","-0.2280671186109818","0.14835498569007824","-0.1041889162185833","0.221002000199327","-0.3247877207198997","0.17528722297356286","-0.25769136324211706","-0.8746925169006164"
"0.08706367766294634","0.4440696569520763","0.08359369584060564","-0.06394417279867294","0.2528819045479923","-0.6106163122888464","0.13059186936972067","-0.09886092067118521","-0.8651707724982907"
"-0.0042206038021135855","0.3481599483429925","0.12503644873909878","0.21184657179617042","0.5579797531881685","-0.3278498821181574","0.10600800958192018","-0.009322935906038957","-0.8402612922841748"
"-0.20504394507665763","0.19939418789523528","0.3564226111694149","0.0303488413323337","0.2862841638795995","0.005442211123783345","0.10154979666703409","-0.013482512436108148","-0.8187744175506209"
"-0.1788514031265761","-0.039002622882587545","0.39771288889168105","-0.13893090213727763","-0.1074684749436628","0.04597555805335205","0.10824419256779955","-0.046127861029821235","-0.8169558669546821"
"-0.12963519082291244","0.04465729528824854","-0.0862128254175076","-0.025984472747911616","-0.3531944792491056","0.31391468040089865","0.13730041832735876","-0.1233111144211037","-0.8651707724982906"
"0.12120437296162456","0.1070594704286945","0.12984449929612288","0.07269209396880948","-0.5020270664049532","0.4300350639506173","0.18422487838864404","-0.2246176571737626","-0.915017710627998"
"0.34743063572286015","0.16743709861386522","0.08277032988897995","-0.05750874453453896","-0.45761012102029575","0.5795974732970975","0.251260832265971","-0.3869538674976795","-0.9247632766421318"
"0.361726922007395","0.12640798879873005","-0.023992788505151363","0.06942774629859659","0.07772153121656153","0.28901447324138235","0.2579693812236092","-0.39902678474348985","-0.93041477234028"
"0.13152138770039132","-0.35772781886686944","-0.07617995882177234","0.004140792894338775","-0.2905092740691457","0.00721504140698516","0.2758376155253352","-0.4478482642874717","-0.9276543057946499"
"-0.21060245754920567","-0.3209784475521263","-0.2171686717729864","-0.394482691176801","-0.35561233716318974","0.20061470866536465","0.31606060315741863","-0.5985737325355859","-0.8092340213473111"
"-0.41461544990612775","-0.28958515615703545","-0.22276959324639078","-0.7790228467278796","0.07252761421593629","-0.08964595861158658","0.3004214753131356","-0.6645182385000963","-0.6834556014117893"
"-0.1510796202497146","0.3668934144734508","0.13277202267968088","0.5142650666723219","0.1715702384002729","-0.2846572897637859","0.2713723260820127","-0.5464268462805731","-0.8124701088180329"
"-0.06534346151426336","0.33031061980692655","0.14446178619041602","0.1559795930973841","0.05148329533409262","-0.12445789871809489","0.26242759413849526","-0.5097459193731343","-0.8391235324241516"
"0.004517170009873121","-0.016694165609586222","0.03489312455370828","0.008244544251177835","-0.18788463816023993","-0.06547100020428914","0.2601984876810522","-0.4523009275107165","-0.8969441154745139"
"0.013244554078920508","-0.33814865590699233","-0.3923118241990439","0.340601770616996","0.2561057151001045","0.010921868362770766","0.24231610032245351","-0.354364881729577","-0.9448792440033624"
"0.2617048667303482","-0.34317158253020696","0.0847525071799307","0.05567085254555655","0.2913885305871105","-0.255405590090956","0.20880166164800817","-0.2649959854412628","-0.9401976419563817"
"0.14104878197576806","0.1597617592074736","0.11265546442946803","-0.18934175687299384","0.1400485352240645","-0.40569324818965513","0.17528722297356286","-0.17973030285740704","-0.9326156848563905"
"0.14581767398492615","0.31120555961505697","0.14745029964446482","0.28291608393051965","0.610724875832449","-0.4939318463762908","0.12389039694051887","-0.0005754253712595058","-0.9202681926049907"
"-0.15185885097016527","0.2401413987672308","0.2101379270972505","0.14488081101866027","0.46153408750414454","-0.0130113404604537","0.11048037555367891","0.040095989589416244","-0.8732003728218972"
"-0.2272779949668498","0.034637069218468514","0.43054587683922413","-0.0922507304532333","0.035811994039102645","0.04428331096484123","0.11271655853955834","0.015544342753398577","-0.8683602304665525"
"-0.13043520102924178","0.013212749539859538","0.03792229805475093","-0.04165334156493349","-0.17194468598590726","0.2740259990288579","0.13282805235560002","-0.04956599339207348","-0.8840090914921183"
"-0.1359833237588505","0.09808995860152571","0.0039813238266252155","0.06924121214601299","-0.5537871358249772","0.29723395909986344","0.16411338457260233","-0.11028002913991158","-0.9483205012849083"
"0.3021936949649646","-0.0007668753221992976","0.22690003147046978","0.027364294890996198","-0.42384966051623174","0.5163396654646691","0.21773931706308938","-0.20321105600682154","-0.9799539557537517"
"0.4053846218385106","0.05675332266660192","0.07934472092974713","-0.09383627075019385","-0.6377853107661234","0.5428515365180053","0.2646637771243746","-0.31273529873351946","-0.9771188820041856"
"0.25455672358808085","0.06968223328604956","-0.0502185188161919","-0.0742968182670624","-0.061081423110492486","0.11431010715131282","0.2758376155253352","-0.3616807764938449","-0.9623559815253593"
"0.06485040725863289","-0.2726199652153618","-0.09365361401738422","-0.009662734396847164","-0.24313716901171886","0.1463822186383274","0.29148381989805444","-0.4065117679845898","-0.9631766607686547"
"-0.12725593968980312","-0.38250929868650446","-0.18377660817927777","-0.33786957586768035","-0.313344598813274","0.0633815281066062","0.318296786143298","-0.5328659504386405","-0.8706450760870911"
"-0.37174737053840207","-0.06477074900321116","-0.21261474650967394","-0.5417047711034024","0.10324336475411665","-0.17522531137341948","0.29147674336961815","-0.5746195316510415","-0.7769570797445202"
"-0.024854633279647063","0.3939941537798253","0.30422527584104553","0.6129882669271888","0.17389854602124286","-0.19384002934703853","0.2601984876810522","-0.4072332121524066","-0.9113526317346444"
"-0.08359823985868747","-0.0899238228842574","-0.05751699725159","-0.047855602138337984","-0.15018396475914972","-0.17288839872738074","0.25349701525185037","-0.39504756925537493","-0.9181512131933081"
"0.029920091496564633","0.08362341738313483","0.019421976672544052","0.10001934732230597","-0.2713455113427008","-0.08980712500096856","0.2579693812236092","-0.3335557265141093","-0.9577396607818223"
"-0.07010196378048204","-0.18908818292777108","-0.32563951214085984","0.059541436211666125","0.16574946934784807","-0.0309008096818538","0.23337844490737236","-0.27665181777755404","-0.970143108436174"
"0.3768128287553196","-0.37078486536956234","0.12801479718139913","0.07749534839783702","0.31171644712404034","-0.3564569162334593","0.19986400623292702","-0.18728292148923986","-0.9598659660939968"
"0.17438946706811692","0.22549546731229658","0.15324435634109004","-0.13846456675581864","0.253956508065363","-0.47991037050005825","0.16634956755848168","-0.06919152926971664","-0.9606306899343403"
"0.09024293900238504","0.32500579424057247","0.1626469922084205","0.18377318183233957","0.5608453625678238","-0.49514059429665563","0.1216542139546395","0.07731799962271772","-0.9361781788443322"
"-0.14154183623139854","0.2991992273549753","0.17081966165418655","0.06924121214601299","0.41595298830900224","-0.09157995528417037","0.10600800958192018","0.11793305175778275","-0.9014205477106708"
"-0.20742319620976696","0.08505853927548179","0.42565650618821227","-0.10647395958773231","0.07610962594050544","0.011485950725607706","0.11048037555367891","0.11394256370454572","-0.885958204694945"
"-0.10661152046933028","-0.006943024894621256","0.032260386510855756","-0.046223428303231534","-0.12143832066948243","0.22067992414342155","0.12388332041208253","0.052755080221577856","-0.9016630211234627"
"-0.14471070782789788","0.12954731793823918","-0.014529162567330141","0.0483027535185046","-0.604293501141402","0.2646783484447029","0.15293954617164177","0.008408809031084862","-0.9631859866691467"
"0.48555187835847424","0.02579569327454495","0.15120118897964854","0.04391920093279014","-0.3446872014032539","0.5495399416773576","0.2021001892188064","-0.12979283936633337","-0.982555881991018"
"0.3680750549433329","0.07585838285847152","0.04206962284812479","-0.13548002031448114","-0.38668628887382694","0.37137049821557555","0.23114933844992927","-0.23164046524485488","-0.9630554240622587"
"0.21566791576612326","-0.03499196973701063","-0.10955169239198397","-0.052425688876636026","-0.07370801443959869","0.12591408718681557","0.24008699386501048","-0.27243587842187417","-0.945597338341246"
"-0.05660568770227662","-0.4004098815758685","-0.11296713633946834","-0.11962461734487567","-0.37486565018274887","-0.026146401195085305","0.2624346706669316","-0.3538350711688365","-0.9137587140615788"
"-0.43762873051677054","-0.433520193806446","-0.2985090957842059","-0.8066765348483974","0.014140823105459365","0.017449107132741074","0.2646637771243746","-0.4808994252255819","-0.7484478019404948"
"-0.159807004318762","0.43936707003697495","0.15336633648207162","0.3732918808572708","0.24392687523656947","-0.3065759187197356","0.23114933844992927","-0.35877245469233315","-0.8402892699856508"
"-0.0018309629260648912","0.40723059051906146","0.2021583928747052","0.1867577282736771","0.10422841797837316","-0.17651464248847534","0.21774639359152567","-0.3139865534620768","-0.8610580503813213"
"-0.07883973759246878","-0.2246202633516841","-0.08528780934839729","-0.04463788800627099","-0.28262884827509355","-0.08070122400088653","0.21774639359152567","-0.2893785438004484","-0.8929526300639405"
"0.15057617625114483","-0.16107767885035526","-0.3735065524643831","0.19389265960999952","-0.07173790799108566","-0.11365975062950204","0.21551021060564635","-0.2443108284421386","-0.9047312423853289"
"-0.14154183623139854","-0.2682889723616717","0.03481180445972054","0.14049725843294583","0.17139113781404444","-0.20036726811700883","0.18645398484608708","-0.1712307887553146","-0.9165751360101609"
"0.32441735511221736","-0.16317910733557767","0.06468677398846014","-0.036150584063717475","0.13315316265426894","-0.25032884882542356","0.17528722297356286","-0.11409015615119442","-0.9086201428904902"
"0.16009318078358217","0.25892611925098724","0.14668792376332992","-0.030134857642896577","0.30016445931230484","-0.5713722964743335","0.13730041832735876","0.04492064746169158","-0.9052721446138644"
"0.09024293900238504","0.22949330686954897","0.19296922225409255","0.29485426969586964","0.7595574629882967","-0.49852508847367727","0.10154979666703409","0.18755241395211028","-0.8554625100861248"
"-0.17488252132374743","0.18185238547895796","0.3383492202806436","0.035431896990236626","0.3024032166401606","-0.08505271651420007","0.09707743069527536","0.18743968830088883","-0.8124701088180329"
"-0.18837879740195287","0.05539508230420207","0.292352542118838","-0.17735693756949794","-0.10639387142629206","0.18578740084222226","0.10377890312447716","0.10967026152325532","-0.8026312837989794"
"-0.11852855562075573","0.10941717068040745","-0.13010534614738087","0.008477711941907325","-0.4073724065832137","0.34284404729496454","0.12611950339796194","0.03640986079447705","-0.8511632699593158"
"0.05690225391003612","0.06863151904343834","0.19830585342203683","0.12650719698917626","-0.40396949544487304","0.36105584929512863","0.15293954617164174","-0.06134582394470833","-0.8861633745057689"
"0.5411266133410155","0.019850188291964468","0.13637043683863762","0.10925278787519385","-0.5288921543392217","0.6209366521735761","0.20657255519056514","-0.19941220156066092","-0.9247726025426238"
"0.374423187879271","0.08454599574250075","-0.020546849522421612","-0.04874163936311005","-0.15278092325946235","0.2840183151705408","0.21774639359152567","-0.2566204695555139","-0.9129100571168073"
"0.129931757030672","-0.1480462595243114","-0.12656792205891493","-0.022300423234385643","-0.21009311085256857","0.11326252562032992","0.23562170442168806","-0.3217195331358638","-0.9126675837040157"
"-0.12964558056585182","-0.37851145912925205","-0.16494084140937154","-0.1968963900526294","-0.4386254588800795","0.0408182335931286","0.2601984876810522","-0.4072332121524066","-0.8744407175873325"
"-0.45668351906752397","-0.42857414871317867","-0.2670687144462026","-0.8162830437064524","0.06106517669731506","0.07031168285003148","0.2624346706669316","-0.5260911388002352","-0.7120115087182746"
"-0.1471107384468859","0.4107287001316573","0.14915802161820696","0.5135655636001334","0.23730015354611653","-0.32116147695880504","0.22444078949229113","-0.3917785253699548","-0.8204530796391798"
"0.014834184748639878","0.25086637219485985","0.2527394913350686","0.27233027077140065","0.16673452257210458","-0.2541162589759001","0.20880166164800817","-0.3266005538337498","-0.8514616987750595"
"-0.07248121491359139","-0.16144927291176656","-0.04152743377125404","-0.10745326388879618","-0.2357044946832379","-0.03339888871727454","0.21327402761976694","-0.3100186105390841","-0.8767069114068871"
"0.11564586048907656","-0.24887638605001347","-0.3902076667671116","0.15178257466425324","0.0735126674401928","-0.03742804845182411","0.20432929567624944","-0.2692119247969426","-0.8972052406882897"
"0.18946498407310236","-0.3420439867576485","0.09543593452756775","0.1410102273525507","0.2992689563811626","-0.30673708510911757","0.17751632943100593","-0.17557072632733792","-0.8961141103307264"
"0.19979238855480844","-0.06446322288342247","0.1319486567280552","-0.17413922343743096","0.09160182664926696","-0.36201715666713774","0.15517572915752118","-0.09820711189410125","-0.8953307346893989"
"0.09421182080521376","0.3372427710904956","0.14725716442124398","0.11153783124434288","0.3427008485415634","-0.5541274928104614","0.11941803096876011","0.05674556827481488","-0.8891383367627149"
"-0.026444263949366432","0.30279984567416734","0.12413176269348537","0.2378214525434358","0.5728451018451304","-0.27216689458668225","0.09707743069527536","0.13826875923812065","-0.8440196301824484"
"-0.19870620188365892","0.20317419645097073","0.32594790594751594","0.08187890098355148","0.3077762342270143","-0.03033672731901686","0.09260506472351657","0.14219161190062485","-0.8135705650760883"
"-0.17568253153007676","-0.03729841563542547","0.3017145179391746","-0.04463788800627099","-0.03878340012504962","0.09682355390336767","0.09707743069527536","0.10127220050726207","-0.8124048275145891"
"-0.064543451307934","0.023412365846182948","-0.07652556922122015","-0.008077194099886617","-0.2035559394552299","0.30094078605564906","0.1149527415254377","0.0402199878057598","-0.8517787793917873"
"0.13311101837011072","0.03850677289247564","0.13244674230373","0.02596528874661924","-0.590950507467382","0.37217633016248547","0.14623807374243997","-0.06152618498666245","-0.9047405682858207"
"0.32361734490588795","0.17329290847817402","0.07813508453167975","-0.06352447095535986","-0.3979696258062197","0.5737954832793462","0.18869016783196646","-0.20809207670470753","-0.9107184705011889"
"0.3267966062453267","0.19041186247974193","0.0339172834258556","-0.052472322414781926","-0.20158583300671687","0.5331009699603954","0.21774639359152567","-0.3098833397576184","-0.9010475116909912"
"0.15136579671453484","-0.3015658612404681","-0.10778298034775102","0.1051024029802089","-0.16916862689936618","0.005764543902547309","0.23114933844992927","-0.33825638617004106","-0.9087693572983622"
"-0.212192088218925","-0.42771563829543535","-0.23143018325608322","-0.3284496011622089","-0.3640300647159272","0.1888495622404799","0.2646637771243746","-0.4809670606163147","-0.818681158545701"
"-0.450335386131586","-0.3189667141851756","-0.15435906417921913","-0.7505297549207358","0.10987008644456955","-0.06917782716007474","0.251260832265971","-0.5223486471796852","-0.7185862685651303"
"-0.0931256341340642","0.4256309033530821","0.15090640363894303","0.5580073254531746","0.23864340794282995","-0.27627663751592274","0.22221168303484812","-0.3959381019000239","-0.8326140538807398"
"-0.015337628747209668","0.15567422453194954","0.1662962314261195","0.0632254857251921","-0.06323063014523399","-0.19110020072754483","0.21327402761976694","-0.3716119063664489","-0.836978575310993"
"0.05611263344664615","0.03026763559980484","0.010741056639354662","-0.13412764770825011","-0.2622113814450495","-0.05322235461125843","0.21774639359152567","-0.3509267493673247","-0.8686027038793444"
"-0.05502644677549661","-0.26447052304096275","-0.4328498910519237","0.1950118645255011","0.16628677110653345","0.04968238500913766","0.20657255519056514","-0.297889330467663","-0.8989305322793085"
"0.35219952773201824","-0.4083030519837771","0.1139159258862777","0.1497306989858337","0.34547690762810446","-0.3957815152426631","0.17528722297356286","-0.1879367302663239","-0.892253187527041"
"0.17279983639839766","0.051935413456579815","0.12413176269348533","-0.19461134668348035","0.1497199668804012","-0.369189060994636","0.148467180199883","-0.1065939003449723","-0.8825355992143833"
"0.08469481627277636","0.36584270023083965","0.12149902465063282","0.210214397961064","0.4913543351111826","-0.5832180260939093","0.10825126909623589","0.06876212269501458","-0.8745153247912685"
"-0.0732708353769814","0.2378990208104386","0.14450244623740988","0.24747459493963683","0.45275815877895015","-0.20931200272770892","0.09484124770939593","0.12993833361286042","-0.8408768017166465"
"-0.19631656100761025","0.13458305814977825","0.3724629997084931","-0.03036802533362607","0.09903450097774792","0.0304230014779907","0.09707743069527536","0.11762869249948499","-0.8248549046714009"
"-0.14472109757083723","-0.0009590791470672027","0.022786595561286066","-0.06767485585034483","-0.1859145317117269","0.22922174278066662","0.11048037555367894","0.044199203293874716","-0.8487385358313974"
"-0.14234184643772788","0.15051034843716515","0.007396767774109569","0.13224312218112177","-0.44175971913907736","0.33978188589670694","0.1350642353414794","-0.03309677574862912","-0.9031831429036578"
"0.4458630603301875","-0.007019906424568421","0.2052078963992448","0.03356655546440069","-0.36555241969886904","0.565011915058028","0.18198869540276466","-0.17545800067611655","-0.9252015939652555"
"0.35537878907145687","0.13788896393750624","0.007854193302790509","-0.10600762420627334","-0.48304240426473677","0.6667079067580592","0.22891315546404992","-0.31774031764774896","-0.9129287089177914"
"0.26249448719373825","0.10204935739380444","-0.07179883875818378","0.04321969786060167","0.01754373424380005","0.10963628185923528","0.2356146278932517","-0.342235601658156","-0.9207717912315584"
"0.06642964818541287","-0.3822273997433649","-0.08354959233940966","0.06555716263248702","-0.2285404712340996","0.03348516287624838","0.25349701525185037","-0.37869107726315193","-0.9220214618974855"
"-0.33523781384955387","-0.3953613277760049","-0.2586825797537188","-0.534103504385621","-0.2750170733603842","0.1831281554174195","0.2803029049686576","-0.5462013949781304","-0.7753996543623571"
"-0.4090569374335797","-0.20475920144866744","-0.16884420592078223","-0.670040268080915","0.15455568270856954","-0.13404729888632289","0.2579623046951728","-0.5344779272511063","-0.7486716235523027"
"-0.10026338753339226","0.43144827245241735","0.28254330578156894","0.5832827031282516","0.1387052808273511","-0.23139179807304056","0.23338552143580865","-0.3874273152328093","-0.8758582544621156"
"-0.05502644677549661","0.10527838165158528","0.05453192725174328","-0.04878827290125595","-0.10979678256463274","-0.2303442165420577","0.2222046065064118","-0.3754783962033425","-0.8766136524019671"
"-0.15106923050677526","-0.21542010693467378","-0.11026324321437654","-0.0653431789430499","-0.19728741893723392","-0.0649069178414522","0.2222046065064118","-0.3385494728632166","-0.9029593212918499"
"0.2601152360606289","-0.20195302560559603","-0.3557686069633111","0.20354580200620048","0.12383993217038917","-0.03154547523938173","0.20880166164800817","-0.29371848137247175","-0.9175357037608364"
"0.30060406429524517","-0.46247890341987674","0.1677904881531439","0.15915067369130517","0.32174607995283394","-0.2878000343567346","0.17975251241688528","-0.1713998772321466","-0.9331845647864022"
"0.1775583386646163","0.02523189538826577","0.08381732609907187","-0.23462292241266125","0.016558681019543536","-0.369108477799945","0.1574119121434005","-0.11046039018186578","-0.9299764550171563"
"0.060881525455804185","0.35741135911330096","0.12311526151863882","0.24957310415620226","0.48150380286861744","-0.5774160360761579","0.11718892451131707","0.06489563285812103","-0.9110915065208686"
"-0.05502644677549661","0.3213282943914332","0.13962324059814651","0.18997544240574407","0.5117718019412266","-0.22373639457739633","0.09260506472351657","0.13392882166609726","-0.8804186198027006"
"-0.23203649723306846","0.1900274548300061","0.4224138674404518","0.028017164425038776","0.19324140933391618","0.02075301811507172","0.09484124770939593","0.12173190620394346","-0.8618134483211728"
"-0.11217003294187833","-0.12700634749543827","0.21793449110832339","-0.053591527330283495","0.028558420296850143","0.24751412797552172","0.10601508611035652","0.04818969134711174","-0.8613098496946051"
"-0.1232870578869744","0.162811393228711","-0.08874391334287546","-0.021600920162197165","-0.6375166598867806","0.273059000692566","0.1350642353414794","-0.03309677574862912","-0.9277941943020297"
"0.2799700348177117","0.12894507928698642","0.20343918435501182","-0.022813392153990527","-0.4279689739994863","0.4978055306857411","0.18198869540276466","-0.16725157326719953","-0.9515192851536622"
"0.3633165526771142","0.15762188995727763","0.0474875741100568","-0.05107331627040498","-0.5063254804744362","0.7270647195816119","0.2445522833083329","-0.31328765442450424","-0.9590173091492254"
"0.2902870495564784","0.036174699817411726","-0.037430934036622523","0.08532978280634797","0.0677814486808822","0.10254496072642803","0.24902464928009163","-0.3336797247304528","-0.9639320587085061"
"0.054523002776926816","-0.4495884335654028","-0.09664212747143301","0.03976881603780518","-0.2924793805176587","0.018819021442487927","0.2736014325394558","-0.3863564215462061","-0.9612741770682879"
"-0.4408079918562093","-0.362045998132235","-0.24506146401077525","-0.8404392164660278","-0.025350856157915345","0.10995861463799927","0.2937129263554975","-0.5911451121200967","-0.7393737007617847"
"-0.29474898561493756","0.29604708462714163","0.04541391171336988","0.20583084537534954","0.2708815134639522","-0.3458199345342485","0.2467884662942123","-0.48554372205590296","-0.8218892683149468"
"-0.008189485604942294","0.3471092341003813","0.20628538764458212","0.39399717179404975","0.243747774650341","-0.25451917494935505","0.22667697247817054","-0.3835720979610379","-0.8823211035030672"
