"AccX","AccY","AccZ","GyroX","GyroY","GyroZ","MagX","MagY","MagZ"
"-0.12169742721725506","0.13896530535676643","0.16640804655535266","0.010576221158472758","0.46735485655656933","-0.14927752268292027","0.06578502194983675","-0.26059968504362874","-0.26957213757709936"
"-0.21775060069147303","0.1670398773758049","0.39327077875760175","-0.20976724658089735","0.043155118074469374","-0.011883175734779818","0.06578502194983675","-0.2155432422504411","-0.2562920552765"
"-0.15503811230960396","0.15721185513089278","-0.12907867996078587","-0.042306211098976074","-0.2575547662031096","0.33430222865771947","0.0568544430631919","-0.3100862459298169","-0.2951717344276226"
"-0.07248121491359139","0.04727126730645202","0.06931185433401185","0.23231869504221983","-0.36394051442281294","0.4308408958975273","0.07472975389335422","-0.46552364639898497","-0.3498681408131669"
"0.48000375562886577","0.0826111439054972","0.06358895271962588","0.05837559775801866","-0.12887099499796337","0.7696126463784554","0.12389039694051887","-0.6611477415285769","-0.3639689023570617"
"0.277580393941663","0.28689818256342947","-0.020607839592912406","-0.08231778682815694","-0.5156387109583158","0.6418882827932338","0.16410630804416598","-0.7625895550627013","-0.38380509270353286"
"0.2863181677536497","-0.01912874739124634","-0.13166059294489607","0.16353422627701963","0.09160182664926696","0.0720039299385423","0.16187720158672295","-0.7873215629406733","-0.4189917152598258"
"0.02198232789090725","-0.4630555148944805","-0.13170125299188992","0.026198456437348736","-0.46781885443531795","0.022525848398273537","0.148467180199883","-0.8244308473227533","-0.43292461059486476"
"-0.46939017468233946","-0.5784034369918716","-0.2076338907529259","-0.804578025631832","-0.2325702344242399","0.16048427770925092","0.16857867401592472","-0.7993944801864836","-0.2525989986816704"
"-0.35667185353341674","0.28201620541178474","0.017612604581317217","-0.034285242537881545","-0.005022939620985509","-0.29247385964881206","0.13282805235560002","-0.7591965129609376","-0.3285398063879769"
"-0.05502644677549661","0.4189037694827055","0.14067023680823845","0.39698171823538725","0.13163080767132704","-0.24750843701123884","0.11048037555367891","-0.7353550377276147","-0.38851467245198973"
"-0.04787830363322924","0.017607810335172273","-0.07347606569668057","-0.12330866685840167","-0.2520026480300275","-0.08086239039026852","0.10601508611035652","-0.7108597537172077","-0.37127108244229295"
"0.1656516932561301","0.1758171853781058","0.023111875937236955","0.13685984245756574","-0.14149758632706957","-0.023970654938428537","0.10154979666703409","-0.6905240462368698","-0.43092886788957807"
"-0.038350909357852486","-0.440426717913366","-0.37117876477398454","0.22541693139662689","0.2151812311469021","-0.08545563248765502","0.09260506472351657","-0.6619819113476151","-0.4597179227083632"
"0.45776970573867365","-0.10665836923608954","0.15669029532381978","-0.14005010705277918","0.10306426416788819","-0.27933879891418045","0.07025738792159548","-0.5641022283920863","-0.42481107716683"
"0.10057034348409112","0.40579546862671445","0.11489176701413038","-0.18057465170156495","0.21115146795676185","-0.5778189520496129","0.06355591549239377","-0.41657816863865954","-0.41323763465626556"
"0.005306790473263128","0.3290292609744739","0.039701175110732366","0.2311528565885724","0.5853821428811224","-0.6202057124570743","0.0568544430631919","-0.2936170282863725","-0.37280053012298"
"-0.1351937032954605","0.1533421514568856","0.0908413492172614","0.1110714958628839","0.460549034279888","-0.2711998962503903","0.061326809034950636","-0.24842531471171916","-0.3225246005706408"
"-0.21617135976469307","0.22324027576717986","0.4056924231142264","-0.05270549010551141","0.10297471387477397","-0.08795371152307577","0.061326809034950636","-0.21964645595489957","-0.308451816728222"
"-0.18440991559912415","0.13166156001178608","0.10874193490630886","-0.21643584253576087","-0.1551092308804323","0.1712018426031528","0.061326809034950636","-0.24426573818165004","-0.31344117349143874"
"-0.13042481128630246","0.12376838960387758","-0.10951103234499013","0.1260408616077173","-0.4105066668422117","0.40561835595924695","0.06355591549239377","-0.36323639048070006","-0.3849055489615881"
"0.3450513845897508","0.04329905492584868","0.23134214160454913","0.02596528874661924","-0.22827182035475696","0.6364892087489373","0.10154272013859776","-0.5263504077980444","-0.3900347942321847"
"0.4538112136787843","0.17939217652064882","-0.00532982693496902","-0.06417734048940243","-0.3934921111505083","0.9058788286009218","0.14623807374243997","-0.6770195132205479","-0.4001067667635382"
"0.37919207988842907","0.3465838769790757","-0.07866022168839788","-0.05569003654684892","0.10700447706491424","0.5414010390135675","0.17081485700180413","-0.750099552907372","-0.38357194519123294"
"0.2807492655381623","-0.27639997377109726","-0.1658353624432365","0.23875412330635382","-0.21860038869842027","-0.0205055775667159","0.14623099721400365","-0.8082547163724846","-0.4367948592990422"
"-0.2280676154302398","-0.5597468523913603","-0.1525191970527469","-0.1513354232840866","-0.5504737749797507","0.23389556807274414","0.16634956755848168","-0.8529166193863974","-0.39418481995112203"
"-0.46304204174640146","-0.23124488851546451","-0.12170904644314852","-0.6318474003394242","0.10933278468588416","-0.27297272653359217","0.1417657077706812","-0.7714497912487023","-0.2632118734415595"
"-0.07566047625303007","0.42272221880341454","0.1064141472159103","0.5108141848495253","0.12778014506741522","-0.23783845364831985","0.1216542139546395","-0.7432571058782339","-0.3817906981972621"
"0.007686041606372467","0.19174447566549271","0.13295499289115326","0.12100443948796027","-0.09349862921784317","-0.25556675648033794","0.10377890312447716","-0.7150869656380097","-0.4047697170095351"
"-0.2145817290949737","-0.2392918219832674","-0.13665161371339254","-0.18332603045217294","-0.18224296969404352","-0.05668743198297107","0.10377890312447716","-0.6987192010806645","-0.39033322304792856"
"0.35458916860806683","0.20412240198698575","0.046969158510885095","0.21179993825802454","-0.055797955816753016","-0.18102730139117088","0.07920211986511295","-0.6582394197270651","-0.43572238074246294"
"-0.12725593968980312","-0.2775019423670066","-0.1297699007596815","0.23045335351638388","0.1781074097976116","-0.08964595861158658","0.07249357090747482","-0.6296972848378104","-0.44968325377897783"
"0.47603487382603693","-0.18314267794519057","0.13154205625811657","0.0027884202881077176","0.3122537488827257","-0.264994990259184","0.05238207709143311","-0.5727933761012551","-0.42476444766437005"
"0.09579106173199374","0.34582787526792863","0.11731103981026514","-0.1601025284555155","0.1764955045215555","-0.5617828963061057","0.047909711119674375","-0.40873246331365104","-0.3984654082769472"
"0.041826736905050725","0.3639847299237832","0.049632391588982985","0.1416630968865933","0.5237715412185333","-0.5974812515542147","0.038979132233029574","-0.29414683884711307","-0.35469895726801975"
"-0.1312248214926318","0.21242560722127915","0.0978552073237025","0.06485765956029854","0.4982497076809782","-0.2300218837632937","0.054618260077312505","-0.24449118948409282","-0.30128952515037066"
"-0.21775060069147303","0.15086912891025195","0.3972249683277548","-0.03960146588651396","0.2112410182498761","-0.018490997699441118","0.05909062604907124","-0.2361720364239546","-0.27063529023318666"
"-0.16456550658498068","0.0924904205037074","-0.018686652372452456","-0.059327452522229","-0.18501902878058457","0.34147413298521767","0.061326809034950636","-0.3263863750964292","-0.2912735080219692"
"-0.08756712166151617","0.05852159785538663","-0.01998777387625602","0.16306789089556067","-0.4035217439793019","0.413757258623037","0.0702644644500318","-0.46563637205020636","-0.36471497439642125"
"0.5149236816479946","0.09602697088127685","0.12337955182409893","0.09750113626242746","-0.0866032566480476","0.7686456480421635","0.11941803096876011","-0.6530540397708814","-0.3687530893094546"
"0.35616840953484685","0.28942245946336126","-0.03783753450656113","-0.032653068702775095","-0.29668824429402746","0.6471261904481485","0.1574119121434005","-0.7423102104079743","-0.3869199434678588"
"0.23154344297743804","0.1079179808464378","-0.10733571983081855","0.06047410697458409","-0.08803606133787523","0.16797851481551312","0.1574119121434005","-0.7668731298091142","-0.41097144083671105"
"0.04897488004731809","-0.3802412935530632","-0.08753427694480809","0.009177215014095805","-0.3496124675245364","-0.012608424486998742","0.148467180199883","-0.7753726439112064","-0.4228712898644953"
"-0.32730005024389647","-0.5174620109204217","-0.23873882670322982","-0.5617105589679928","-0.39573086847836403","0.0994022161334794","0.16857867401592472","-0.7420058511496765","-0.2732745200724209"
"-0.42334283397517514","0.05260172004945521","0.010070165863955947","-0.2663337283518722","-0.057051659920352216","-0.24299577810854334","0.15517572915752118","-0.7136553498674981","-0.29943367095246387"
"-0.12487668855669376","0.421979030680592","0.07128386661321413","0.48325376380529933","0.08094534176867375","-0.1903749519753259","0.14623099721400365","-0.7179389246139107","-0.37631639460846167"
"-0.03835090935785252","0.17955875316886763","0.1354962458282696","0.07171278966774561","-0.07191700857731412","-0.1687786557981402","0.13282805235560002","-0.7019431547055962","-0.39246885426059513"
"-0.09629450573056357","0.008292331623241219","-0.029583544966807287","-0.18127415477375342","-0.2360626958556948","-0.053947603363477356","0.12611950339796194","-0.6896222410270987","-0.41203459349279836"
"0.1926442454125411","-0.34033977951048644","-0.420448576718796","0.2760143202849267","0.18759974086771977","-0.0525776890537305","0.12388332041208253","-0.67344611007683","-0.452434394424116"
"0.27361151213883433","-0.35644646003441677","0.11945585728919132","0.07357813119358154","0.28458270831042914","-0.23147238126773154","0.10377890312447716","-0.6206566876098553","-0.4308076311831821"
"0.21090941349990452","0.09942257178727647","0.10907738029400822","-0.24586160510582275","0.03733434902204453","-0.37233180558758466","0.08143830285099245","-0.48585935387932283","-0.39126581309712793"
"0.029920091496564633","0.39284093083061783","0.05169588897392145","0.14236259995878175","0.4224006094132267","-0.7534903164759741","0.06578502194983675","-0.3385607454283388","-0.3675313963450034"
"-0.07249160465653073","0.23502877702574457","0.061464465264196626","0.15504692233446613","0.5272640026499882","-0.3224508080738609","0.07249357090747482","-0.27274023768017197","-0.32120032270077764"
"-0.17648254173640612","0.2384243779317442","0.2517229901602221","-0.0018749335264821251","0.37878961666659744","-0.18610404265670336","0.07920211986511295","-0.2356422258632141","-0.28295480478311064"
"-0.2360053790358972","0.13662041869337802","0.2683529493807114","-0.16308707489685303","-0.02150019355400354","0.05532320863750706","0.08367448583687175","-0.23557459047248128","-0.27965343600894477"
"-0.1550485020525433","0.11904017551212713","-0.12849927429112334","0.038416443431574125","-0.2647187896522479","0.43680405230466063","0.08367448583687175","-0.33808729769320894","-0.3149146657691738"
"-0.035971658224743144","0.0890563788327342","0.12484331351587792","0.20354580200620048","-0.3623286091467568","0.3853113908971171","0.10825126909623589","-0.4687363274587944","-0.35749672741561794"
"0.5046066669092277","0.09880751954769913","0.044244935362296366","0.09451658982108996","0.03034942615913471","0.8407676072906008","0.15740483561496418","-0.6397411403616358","-0.34144685266889646"
"0.35219952773201824","0.3198547317341126","-0.015820119059385233","-0.03936829819578447","-0.4071933059969853","0.6916081139175757","0.18869016783196646","-0.733269613180019","-0.35285242897060504"
"0.2601152360606289","-0.03996364200692706","-0.10791512550048107","0.10668794327716943","-0.07881238114710971","0.007053875017603178","0.17528722297356286","-0.7458723409865701","-0.3900627719336607"
"-0.11059079201509833","-0.4786624654737541","-0.17909053776323527","-0.17115467699609346","-0.5312204619601916","-0.018329831310059132","0.16634249103004536","-0.7461767002448676","-0.3684919640956788"
"-0.4392183611864899","-0.3495399359274968","-0.06023105538843024","-0.7316898055097926","-0.01845548358811977","-0.06095834130159361","0.17528722297356286","-0.672149765087784","-0.2328560673401193"
"-0.1351937032954605","0.5039988095458886","0.03803411318398405","0.38686224045772727","0.15840634531248132","-0.27103872986100835","0.15517572915752118","-0.6766587911366394","-0.29493858691532276"
"-0.09153600346434487","0.23417026660800128","0.0638735730485829","0.057256392842517094","-0.15242272208700544","-0.10342568490374612","0.1395366013132382","-0.6729839349068223","-0.32065942047224205"
"-0.0978841364002829","0.09981979302533679","0.12071631874600099","-0.05452419809320146","-0.22639126419935812","-0.12058990537292731","0.1216542139546395","-0.6568078039565535","-0.36131102071684346"
"0.2037508806146978","-0.44858897367608963","-0.4663334397513684","0.2831492516212491","0.08927351902829703","-0.04927377807139986","0.10824419256779955","-0.6533583990291791","-0.4016921698471771"
"0.2672633792028962","-0.49460256934946556","0.114271701297474","-0.020481715246695602","0.18151032093595224","-0.35798799693258815","0.08590359229431488","-0.5800979983004009","-0.36225293666653485"
"0.2950455518226971","0.07334691954686424","-0.011123883631594254","-0.2688985729498966","0.07387086861264971","-0.24815310256876674","0.061319732506514325","-0.4781827370311465","-0.32180650623275725"
"0.07674666292417963","0.47933265202117437","0.04972387669471918","-0.14695187069837218","0.04897588712689422","-0.6766139487407684","0.054618260077312505","-0.3306586772777197","-0.32294426609278054"
"0.042616357368440695","0.23358084154507305","0.09644227069066583","0.2743821464498203","0.466817554797884","-0.6286669478996285","0.0568544430631919","-0.24853804036294053","-0.3041432507009208"
"-0.15503811230960396","0.17818769921814331","0.09184768538035948","0.07175942320589151","0.4518626558478078","-0.1654747448158095","0.07025738792159548","-0.2194548223478231","-0.2529160792983982"
"-0.22250910295769177","0.18611931039102542","0.38839157311833844","-0.07979957576827841","0.14327234577617673","-0.11994523981539935","0.07025738792159548","-0.16611304418986372","-0.23936554588353118"
"-0.1693343985941387","0.1526117769223876","-0.07260187468631255","-0.060493290975876454","-0.13737827284381507","0.30666219287870944","0.06355591549239377","-0.24836895188610847","-0.254799911197781"
"-0.0764500967164201","0.09302859121333755","0.03455767916600891","0.1775709212589351","-0.297673297518284","0.3868424715962459","0.06802120493571619","-0.3836397333517707","-0.2936516126474276"
"0.4283979024491533","-0.12931279339385307","0.04506830131392206","0.1315436191089333","-0.06036502076557867","0.6534922628287366","0.09484124770939593","-0.5429436236578323","-0.293026777314464"
"0.2728218916754443","0.2983022761722584","0.031813125993923275","-0.17805644064168644","-0.5785925670176184","0.5596128410137315","0.1216542139546395","-0.6571008906497291","-0.31272307915355524"
"0.3323551187178747","0.3200213083823315","-0.11213360537609418","0.10375003037397784","0.11273569582422487","0.612072500757567","0.15070336318576238","-0.7629953674070984","-0.32802688186091716"
"0.21328866463301394","-0.34282561564544467","-0.09624569201324289","0.15980354322534776","-0.23033147709638419","-0.042424206522665577","0.14400189075656059","-0.7714497912487023","-0.37373312017217936"
"-0.27013568459163606","-0.4579685203296433","-0.21289936683863095","-0.2787848830368271","-0.5061463798882077","0.20714194743533496","0.16857867401592475","-0.7789347744898023","-0.3146535405553979"
"-0.44000798164988","-0.28091035686133076","-0.04257442998134597","-0.6033543085322802","0.09151227635615272","-0.18392829640004657","0.16411338457260233","-0.7053812870678484","-0.2346279884335981"
"-0.14154183623139854","0.39450669731280624","0.08927593740799775","0.4142361273493698","0.09948225244331904","-0.3254323862774276","0.13282805235560002","-0.7017515210985198","-0.33116971032671916"
"-0.04867831383955854","0.18823355246457232","0.08904214213778305","0.1828405110694216","-0.02015693915729011","-0.18586229307263036","0.11271655853955834","-0.6819568967440446","-0.3476205987945964"
"0.0013379086704344556","0.08126571713142182","0.0663640009269569","-0.01633133035171064","-0.24268941754614773","-0.0534641041953314","0.10154979666703409","-0.6821372577859988","-0.37900225395015597"
"0.04420598803816006","-0.32589886546874464","-0.4194727355909433","0.22863464552869386","0.19422646255817266","-0.0028578579293887735","0.10154979666703409","-0.6781580422978839","-0.3977286621380797"
"0.30695219723118317","-0.3384689956151055","0.16162032602182552","0.1048692352894794","0.35944675335392406","-0.40238933720732445","0.07696593687923362","-0.6090572180991747","-0.37032916649260156"
"0.1862857227336637","0.015660144909844173","0.11483077694363959","-0.1936786759205624","0.14327234577617673","-0.31761581639240144","0.05909062604907124","-0.5110648094924246","-0.3290061014125766"
"0.06721926864880289","0.4755142027004653","0.03598078081079406","0.09661509903765539","0.3418053456104211","-0.7248026991659815","0.04345149820478831","-0.3187097582482529","-0.30431111690977675"
"-0.07408123532625008","0.2369380016860991","0.04289298879975049","0.20541114353203643","0.4839216607827016","-0.46532481226098876","0.05014589410555372","-0.2651312562227285","-0.26966539658201927"
"-0.15979661457582264","0.21166960551013206","0.26212179717890216","0.003907625203609282","0.3275668490052588","-0.10205577059399926","0.0568544430631919","-0.23212518554510692","-0.23721126286988045"
"-0.23362612790278783","0.15379062704824403","0.26971506095500575","-0.1996477688032374","-0.10039400178763876","0.04678139000026196","0.0568544430631919","-0.2198155444317316","-0.2377708168994001"
"-0.1224974374235844","0.07989466318069748","-0.10818958081768963","-0.02439893245095107","-0.2253166606819874","0.3988493676052037","0.05238207709143311","-0.3348182538077888","-0.27263103293847335"
"0.014834184748639878","0.06327543912378611","0.10254127773974502","0.1529484131179007","-0.4370135536040233","0.46073726112788504","0.06579209847827307","-0.4534507291531746","-0.316136358733625"
"0.3934675866870851","0.17944343087394685","0.008138813631747536","0.04946859197215206","-0.2398238081664924","0.7375405348914409","0.10377890312447716","-0.6206454150447331","-0.33232612198772643"
"0.3133003301671213","0.39627497250159105","-0.04455660727229671","-0.06417734048940245","-0.22674946537181503","0.7532542578561842","0.15070336318576238","-0.73838735774547","-0.3365973844130596"
"0.3585476606679563","-0.006071700888553433","-0.1635482347998318","0.26701404742276824","0.15222737508759956","0.04379981179669528","0.14400189075656059","-0.7509337227264102","-0.39951923503254255"
"0.011654923409201212","-0.48617122823192704","-0.10817941580594118","-0.00112879691614775","-0.6006219391237185","0.07305151146952518","0.15070336318576238","-0.7914924120358646","-0.4286533481695315"
"-0.45112500659497595","-0.5001124123290123","-0.16553041209078254","-0.7349075196418596","-0.2957031910697709","0.23462081682496308","0.17975251241688528","-0.7621611975880601","-0.26286681512335575"
"-0.33761706498266325","0.15135604526658394","0.020509632929629835","-0.286152982063879","0.07458727095756354","-0.30335259093209593","0.15517572915752118","-0.7093041397303526","-0.27501846346442377"
"-0.07328122511992075","0.3819621943430944","0.04687767340514889","0.4278064869498261","0.21625583466427287","-0.3195498130649852","0.13059186936972067","-0.6896222410270987","-0.33833200190457047"
"-0.04073016049096183","0.12147475729378723","-0.10441836145900898","-0.08833351324897784","-0.18000421236618783","-0.09633436377093887","0.11718892451131707","-0.6572248888660727","-0.3306288080981835"
"0.17597909773783635","0.14405229992160362","0.0847830022151761","0.2665943455794552","-0.20086943066180304","-0.11261216909851916","0.09931361368115472","-0.6494919091922856","-0.3924781801610871"
"-0.11455967381792702","-0.472114721839921","-0.2515060814593022","0.18097516954358564","0.1283174468261006","-0.038797962761570964","0.09260506472351657","-0.6373626291208646","-0.41157762436869066"
"0.41967051838010605","-0.17904232968134196","0.08504729252063618","-0.03475157791934052","0.31368655357255343","-0.3186633979233843","0.06802120493571619","-0.543653795260527","-0.3704130995970295"
"0.12834212636095266","0.11312029770619571","0.09451091845845741","-0.19209313562360186","0.09581069042563568","-0.4969940077745484","0.05014589410555372","-0.3964228222002758","-0.343647765185007"
"0.0997703332777618","0.43440821135538304","0.04019926068640717","0.13340896063476923","0.38461038571902234","-0.7440620826971279","0.04121531521890892","-0.2490114880980704","-0.3321489298783785"
"-0.13757295442856984","0.28967873122985177","0.0690069039815579","0.10855328480300537","0.36714807856174775","-0.28796120074611653","0.054618260077312505","-0.19936711130017232","-0.2972047807348773"
"-0.21617135976469307","0.21857612961705206","0.41702641121376527","-0.017963504186817088","0.2099873141462769","-0.016557001026857324","0.061326809034950636","-0.1950835365537597","-0.26362221306320727"
"-0.09550488526717354","-0.005046613822591281","-0.003306989597024422","-0.09570161227602979","-0.18600408200484114","0.3227788318169077","0.061326809034950636","-0.2730445969384697","-0.2936982421498876"
"-0.06692270244104337","0.12426811954853409","0.047884009568246955","0.15136287282094013","-0.567846531843911","0.4592061804287562","0.06355591549239377","-0.41247495493420105","-0.37035714419407756"
"0.35616840953484685","0.1558920555334665","0.09744860685376386","-0.015398659588792673","-0.2888973687930896","0.630687218731186","0.0993065371527184","-0.5674389076682393","-0.3839636330118967"
"0.35060989706229884","0.3237500625847688","0.04418394529180558","-0.12629321329973917","-0.26579339316961864","0.8547890831668334","0.15070336318576238","-0.7137680755187195","-0.35778583033086975"
"0.3609269118010655","0.05873942885690358","-0.16667905841835912","0.23390423533918037","0.07566187447493428","0.05951353476143862","0.14177278429911755","-0.7386240816130349","-0.40315633622442015"
"0.018003056345139226","-0.5354522889280574","-0.13864395601609175","0.02181490385163428","-0.41910349498117766","0.07023109965534048","0.1395366013132382","-0.7919094969453836","-0.40382780105984367"
"-0.4717694258154488","-0.7114981789187325","-0.24638291553807573","-0.8096610812897349","-0.3617017570949573","0.2643560156659389","0.15070336318576238","-0.7629390045814878","-0.22646782550310346"
"-0.3455548285883206","0.3076946364141366","0.017470294416838703","-0.15296759711919306","-0.03385813400376706","-0.21422757760385935","0.1216542139546395","-0.7103863059820779","-0.3033132455571334"
"-0.09789452614322224","0.6773922867533865","0.12617493005492691","0.30497374747352957","0.1627047593819643","-0.2239781441614693","0.10377890312447716","-0.6943229006830305","-0.3412883123605325"
"-0.06296421038115398","0.0024237081706079","-0.11487815854817982","0.14073042612367528","-0.15224362150077703","-0.10818009339051461","0.09707743069527536","-0.6864771953580221","-0.37254873080969614"
"0.14025916151237808","-0.04971478272189203","0.01056825143963075","0.2240179252522499","0.0014246814832389364","-0.12494139788624085","0.07920211986511295","-0.6705377882753182","-0.4288118884778954"
"-0.008189485604942294","-0.34723349002908194","-0.16567272225526108","0.20237996355255305","0.11766096194550742","0.0003654698582508831","0.07249357090747488","-0.6460988670905219","-0.4364031714783784"
"0.3323551187178747","-0.10817037265838372","0.056127834096252334","-0.06324466972648446","0.2450910290470544","-0.3389703629855142","0.047909711119674375","-0.5729173743175987","-0.40638309779465004"
"0.10294959461720046","0.13323763137570294","0.12160067476811749","-0.1849115707491335","0.15160052303579996","-0.4484023413758806","0.04345149820478831","-0.4417272614261505","-0.36632835518153617"
"0.11088735822285788","0.30474751109949544","0.1019313770348371","0.14073042612367528","0.5215327838906776","-0.7318940202987885","0.038979132233029574","-0.29414683884711307","-0.33932054735672185"
"-0.07962935805585877","0.3456869257963588","0.03692612690340133","0.1315436191089333","0.43538540191478975","-0.3538782540033476","0.045680604662231346","-0.23653275850786298","-0.2956846589546823"
"-0.20981283708581566","0.3289651930328512","0.39096332109070014","-0.010129069778306148","0.393117663564874","-0.056365099204207104","0.05909062604907124","-0.2279656090150378","-0.24985718393702427"
"-0.10582190000594026","-0.0078656032539872","0.1526141256126852","-0.07243147674122646","0.033304585831904245","0.2762823284802056","0.06802120493571619","-0.2974158827325332","-0.24379534861722818"
