"AccX","AccY","AccZ","GyroX","GyroY","GyroZ","MagX","MagY","MagZ"
"-8.1806","1.0031","-5.2477","-0.002501","-0.005499","-0.015285","0.48918","-0.32513","0.19445"
"-8.2257","0.85359","-5.1442","0.009905","0.003867","0.00196","0.48888","-0.32565","0.19393"
"-8.1582","0.98819","-5.2772","-0.005241","0.000852","-0.010723","0.48848","-0.32591","0.19379"
"-8.203","1.0029","-5.1584","0.019726","-0.008541","0.007263","0.48949","-0.32461","0.19524"
"-8.2183","0.82383","-5.189","-0.016788","0.014008","-0.023235","0.4896","-0.32474","0.19498"
"-8.188","1.0929","-5.2625","0.006089","-0.033611","0.010736","0.48931","-0.32448","0.19458"
"-8.2108","0.82387","-5.2113","0.001026","-0.006265","-0.009851","0.48989","-0.32526","0.19526"
"-8.2256","0.97331","-5.2037","0.012645","-0.006053","-0.001737","0.4888","-0.32474","0.19483"
"-8.1882","0.94326","-5.2031","0.024238","-0.004903","0.009081","0.48923","-0.3237","0.19548"
"-8.2031","0.95837","-5.2332","-0.036837","0.011539","-0.008743","0.48971","-0.32356","0.19484"
"-8.1732","0.9733","-5.27","0.020669","0.011253","0.010998","0.4889","-0.32409","0.19442"
"-8.2933","0.73424","-5.1009","0.023554","0.004646","-0.007077","0.48943","-0.32384","0.19641"
"-8.173","1.0928","-5.2622","-0.011698","-0.010673","-0.003546","0.48925","-0.32423","0.19562"
"-8.2484","0.74165","-5.1449","-0.000734","0.010747","-0.010616","0.48924","-0.32358","0.19561"
"-8.2181","0.98072","-5.1961","0.000893","-0.003373","0.000116","0.4897","-0.32319","0.19653"
"-8.1731","0.97306","-5.2028","0.027758","-0.035368","0.008861","0.489","-0.32293","0.19598"
"-8.2407","0.85387","-5.2043","0.005632","0.022422","-0.010562","0.49022","-0.32318","0.19655"
"-8.2481","0.94349","-5.1892","0.018963","-0.012335","-0.003592","0.48912","-0.3228","0.19598"
"-8.1883","0.82364","-5.1736","-0.000708","0.016108","-0.010611","0.48893","-0.32229","0.19702"
"-8.2032","0.95847","-5.2631","0.005555","0.003648","-0.007996","0.4898","-0.32346","0.19785"
"-8.2182","0.85355","-5.1441","0.017229","-0.01067","-0.009012","0.4889","-0.32281","0.1965"
"-8.1882","0.921","-5.248","-0.012974","0.036239","-0.032159","0.48965","-0.32227","0.19599"
"-8.2182","0.89853","-5.1888","0.002375","-0.029886","0.018028","0.48963","-0.32279","0.19574"
"-8.2183","0.85381","-5.2188","-0.01146","0.00697","-0.01787","0.49001","-0.32228","0.19731"
"-8.233","0.98082","-5.2038","0.009026","-0.008753","-0.001743","0.48963","-0.32112","0.1978"
"-8.2034","0.79388","-5.1889","0.004827","0.014157","-0.019675","0.49009","-0.32149","0.19678"
"-8.1882","0.95843","-5.2703","-0.013441","0.009044","-0.003398","0.48849","-0.32281","0.19623"
"-8.1883","0.85362","-5.2034","0.016358","-0.0098","-0.009923","0.48789","-0.32217","0.19724"
"-8.2182","0.88369","-5.2187","-0.016936","0.019645","-0.010537","0.48947","-0.32203","0.19729"
"-8.2032","0.91361","-5.2483","0.011357","-0.009056","0.027182","0.49003","-0.32124","0.19782"
"-8.2483","0.79399","-5.1597","0.006147","0.00229","0.012825","0.48791","-0.32204","0.1975"
"-8.1581","1.0331","-5.307","-0.01897","0.000202","0.003776","0.48791","-0.32165","0.19763"
"-8.1884","0.80891","-5.2334","0.018962","0.013791","0.003797","0.48781","-0.32256","0.19777"
"-8.2033","0.86119","-5.2111","-0.017057","0.003618","-0.005223","0.48939","-0.32216","0.19795"
"-8.1732","0.95825","-5.2402","0.002614","-0.028435","0.001733","0.48888","-0.32308","0.19795"
"-8.1809","0.8388","-5.2481","-0.041876","0.004651","-0.037726","0.4876","-0.32296","0.19843"
"-8.2032","0.9584","-5.2407","0.017006","-0.015697","0.008128","0.48929","-0.3228","0.19651"
"-8.1733","0.8985","-5.2404","-0.001589","0.017897","-0.010608","0.48958","-0.32267","0.19678"
"-8.1808","0.94359","-5.3076","-0.020573","0.0107","-0.008799","0.48901","-0.32217","0.19807"
"-8.2033","0.85369","-5.2036","0.013443","-0.009493","0.005469","0.48889","-0.32215","0.19649"
"-8.1733","0.91346","-5.2478","0.001104","0.01253","-0.010651","0.48952","-0.32294","0.19784"
"-8.1882","0.9584","-5.2629","0.009612","-0.022657","0.019851","0.48857","-0.32294","0.19741"
"-8.2483","0.7791","-5.1747","-0.011634","0.018026","-0.003307","0.48849","-0.32412","0.19782"
"-8.1731","1.0107","-5.2774","-0.006461","-0.006772","0.010942","0.49021","-0.32344","0.19629"
"-8.2108","0.80883","-5.1815","0.000962","0.007325","-0.002523","0.48847","-0.32438","0.19756"
"-8.1732","0.95833","-5.2626","0.002638","-0.014057","0.003638","0.48928","-0.32398","0.19785"
"-8.1957","0.94329","-5.2033","0.002592","-0.01581","0.005447","0.48831","-0.32659","0.19681"
"-8.2333","0.86903","-5.2788","-0.016072","0.001731","-0.010652","0.48914","-0.32371","0.196"
"-8.1505","1.0927","-5.2693","-0.017294","-0.019422","0.008158","0.48921","-0.32463","0.19681"
"-8.2108","0.86117","-5.1963","-0.016105","0.013445","-0.006965","0.48988","-0.32514","0.19684"
"-8.2102","0.99029","-5.2033","0.012471","-0.0097394","0.0040634","0.49305","-0.33465","0.20189"
"-8.1628","0.80836","-5.2309","0.020549","0.0065269","-0.011928","0.48144","-0.32945","0.19218"
"-8.2394","1.0869","-5.1948","-0.020405","-0.0018035","-0.017995","0.47814","-0.33352","0.19411"
"-8.2485","0.8186","-5.1697","0.029727","-0.0093057","0.01846","0.49347","-0.31684","0.19077"
"-8.1695","0.96918","-5.2519","-0.033259","-0.0065441","-0.024173","0.47914","-0.31756","0.19233"
"-8.198","0.93383","-5.2088","0.0040238","-0.017653","0.0084019","0.49304","-0.32889","0.19286"
"-8.1951","0.94989","-5.2177","-0.0019048","-0.022992","-0.026458","0.47755","-0.32943","0.20963"
"-8.1997","0.95906","-5.2441","0.00095158","-0.011527","0.0035168","0.49188","-0.3386","0.19249"
"-8.2214","0.72429","-5.1694","0.017388","-0.0029002","-0.0062848","0.50078","-0.3289","0.20141"
"-8.2223","1.1132","-5.3159","-0.024035","0.02253","0.017869","0.48475","-0.31034","0.20082"
"-8.2523","0.74981","-5.2365","0.016396","0.011854","-0.01898","0.48933","-0.33711","0.20044"
"-8.1992","0.99311","-5.2042","0.028497","0.0040874","-0.0013949","0.48297","-0.32144","0.20763"
"-8.1883","0.99105","-5.2416","-0.027187","-0.014801","0.03673","0.49919","-0.33491","0.21175"
"-8.2062","0.86296","-5.2292","0.012641","-0.0051872","0.0039186","0.49465","-0.31677","0.20287"
"-8.2143","0.94334","-5.2587","0.0022679","-0.021052","0.0083214","0.49138","-0.30977","0.20857"
"-8.185","0.82987","-5.2419","0.0046414","-0.037213","0.0037231","0.49223","-0.34171","0.21362"
"-8.2433","0.95461","-5.2999","-0.036894","0.022715","-0.00092304","0.48108","-0.3282","0.19083"
"-8.1444","0.86953","-5.2047","0.025201","-0.013554","-0.011021","0.49894","-0.32258","0.20363"
"-8.2062","0.92721","-5.2496","-0.0067603","-0.0041672","-0.040215","0.49014","-0.32873","0.18278"
"-8.2106","0.90513","-5.2563","-0.010566","-0.0047669","0.0029028","0.48812","-0.31744","0.18619"
"-8.1706","0.851","-5.1785","0.0093602","0.0022554","-0.017494","0.48909","-0.33066","0.20201"
"-8.1691","0.97817","-5.2831","0.010898","0.043773","-0.018172","0.50028","-0.31852","0.1846"
"-8.201","0.8003","-5.1738","0.0051561","-0.040572","0.013048","0.4918","-0.34403","0.1938"
"-8.1686","0.93976","-5.262","0.0014408","-0.0012944","-0.010287","0.49187","-0.32631","0.18552"
"-8.1781","0.8591","-5.1981","0.0022235","-0.016352","0.018333","0.48884","-0.32253","0.19709"
"-8.2112","0.85368","-5.2153","-0.0081572","0.013966","0.0020909","0.47999","-0.31804","0.20101"
"-8.2152","0.9936","-5.2355","0.03649","-0.02223","-0.015779","0.50247","-0.32373","0.1945"
"-8.1853","0.99839","-5.2739","-0.012456","-0.0010904","-0.00064355","0.49956","-0.32545","0.19939"
"-8.221","0.83377","-5.1089","0.017708","0.029588","0.013329","0.48757","-0.32703","0.18821"
"-8.2386","1.0954","-5.2705","-0.006139","0.002787","-0.00066834","0.47156","-0.31927","0.18307"
"-8.2408","0.83575","-5.1163","-0.005009","-0.05789","0.023127","0.47189","-0.3118","0.18959"
"-8.2272","0.98964","-5.2091","0.016922","0.030009","-0.004618","0.47959","-0.32674","0.19602"
"-8.1737","0.93843","-5.2026","-0.012889","0.011167","-0.0025223","0.49532","-0.32044","0.21383"
"-8.1863","0.9523","-5.2108","0.015506","0.025115","-0.0068834","0.4873","-0.33132","0.19502"
"-8.2214","0.96113","-5.2023","-0.027885","0.014046","-0.0011387","0.49929","-0.32521","0.18703"
"-8.2122","0.73592","-5.1835","0.016461","-0.0064968","-0.0018081","0.48346","-0.32881","0.19628"
"-8.2589","1.1058","-5.2425","0.0043317","0.033475","-0.017923","0.50328","-0.33908","0.21101"
"-8.166","0.73128","-5.1287","-0.02444","-0.035729","-0.01273","0.49307","-0.32379","0.18228"
"-8.1975","0.9512","-5.2447","0.006171","0.015198","-0.013832","0.4791","-0.32565","0.18997"
"-8.2175","0.97453","-5.1843","0.0016117","0.0025005","-0.019296","0.47624","-0.29905","0.19655"
"-8.1843","0.84779","-5.2217","0.0014886","0.010814","-0.0015844","0.50081","-0.31542","0.19724"
"-8.1954","0.9429","-5.2107","0.026837","0.000331","-0.035279","0.47471","-0.32475","0.2083"
"-8.2032","0.82335","-5.2029","-0.011677","-0.027522","0.017189","0.48381","-0.33406","0.18639"
"-8.1785","0.94582","-5.274","0.03224","0.018293","-0.011422","0.48492","-0.32444","0.1943"
"-8.1885","0.84987","-5.2063","-0.021412","-0.022199","-0.00089742","0.51222","-0.30823","0.20791"
"-8.1935","0.92323","-5.2166","0.010596","0.0095961","-0.011882","0.48864","-0.31521","0.1823"
"-8.1852","0.90117","-5.2502","-0.028151","-0.0079688","0.0063102","0.48977","-0.32448","0.19103"
"-8.1959","0.86367","-5.1637","0.02812","0.019652","-0.019175","0.49835","-0.30936","0.19288"
"-8.2443","0.99205","-5.3087","-0.016109","-0.011469","-0.00029215","0.4995","-0.32479","0.19862"
"-8.1816","0.79129","-5.2316","-0.030751","-0.025108","0.035596","0.49808","-0.31307","0.22482"
"-8.2087","0.97565","-5.203","0.00019802","-0.0030719","0.026764","0.48631","-0.33659","0.18919"
"-8.168","0.866","-5.2401","-0.00409","-0.01888","0.00402","0.48198","-0.33267","0.21083"
"-8.1788","0.8733","-5.2626","-2.2642e-05","0.010552","0.0079846","0.4766","-0.32772","0.19768"
"-8.2364","0.90909","-5.2444","-0.013708","0.028849","0.00551","0.4779","-0.33788","0.19699"
"-8.142","0.80007","-5.2314","-0.0027245","0.0018929","-0.00060431","0.49624","-0.32801","0.20864"
"-8.1971","1.0042","-5.2857","-0.0061255","0.01972","-0.050594","0.49423","-0.3248","0.20205"
"-8.2127","0.82458","-5.2156","0.013397","-0.03416","0.017","0.47737","-0.32374","0.19374"
"-8.1444","0.8587","-5.2554","0.005647","0.021465","-0.02201","0.49075","-0.32434","0.17813"
"-8.2247","0.97008","-5.2506","-0.021665","0.0069707","-0.02386","0.49149","-0.31852","0.20509"
"-8.2575","0.82989","-5.1733","-0.02345","0.010826","0.0088314","0.50292","-0.33038","0.18491"
"-8.1865","0.96061","-5.2801","-0.0099854","-0.028101","0.0014233","0.49265","-0.33358","0.20289"
"-8.193","0.90655","-5.1878","0.0064505","-0.016145","0.01083","0.49018","-0.31234","0.18578"
"-8.2045","0.94265","-5.2596","0.016246","-0.008638","-0.0041971","0.49997","-0.33171","0.20698"
"-8.1886","0.84403","-5.2203","-0.016311","-0.022339","0.015891","0.4833","-0.3445","0.20696"
"-8.2088","0.91031","-5.2945","0.021789","0.027381","-0.0035325","0.48356","-0.30157","0.19327"
"-8.2161","0.94957","-5.258","-0.02662","-0.015543","0.0030531","0.50146","-0.33716","0.19054"
"-8.2356","0.78144","-5.1892","0.0071365","0.013829","0.021057","0.49791","-0.31064","0.19175"
"-8.1907","1.0113","-5.1922","-0.001273","0.0016376","-0.00031862","0.47185","-0.32769","0.20252"
"-8.1777","0.80993","-5.2235","-0.0055761","-0.0063162","0.019151","0.4807","-0.32824","0.21832"
"-8.1898","0.97343","-5.2048","0.0093142","-0.005756","-0.0093996","0.48621","-0.33721","0.22077"
"-8.2114","0.93102","-5.1677","-0.016199","-0.015506","-0.012684","0.48613","-0.34602","0.18813"
"-8.1739","0.84976","-5.2615","0.010529","-0.034329","-0.020066","0.48315","-0.30455","0.21847"
"-8.2337","1.0812","-5.1987","0.022906","-0.020362","-0.026869","0.49314","-0.29779","0.1824"
"-8.1493","0.8524","-5.2313","-0.049452","-0.0050333","0.024268","0.50791","-0.33719","0.17494"
"-8.202","1.0101","-5.2578","-0.012563","0.0075309","-0.043602","0.49382","-0.33467","0.19842"
