"AccX","AccY","AccZ","GyroX","GyroY","GyroZ","MagX","MagY","MagZ"
"0.01480763402937859","-0.04153856494324262","0.04581838964601439","-0.06848068593843591","-0.11968248753929303","0.6489755555966045","0.2371999168330445","0.3913432245157777","-0.42728955558637804"
"-0.0060499211841463195","-0.044650562298994355","0.022366212140563897","-0.05387577451508509","-0.23676018617608344","0.7205443530624239","0.2874662577898385","0.2770683634692125","-0.4595188327458785"
"-0.022129004047363128","-0.08006667105790995","-0.0012412723278308543","-0.06217467606217039","-0.1803453879940596","0.6647745678550814","0.2871040280601056","0.1807355263228237","-0.507454162314243"
"-0.010912158816436424","-0.09574714905605017","-0.029924733571816176","0.008866905704638129","-0.08779659087464413","0.5871385613806303","0.2701628222387469","0.09870353763804623","-0.5481983752750111"
"0.007305345785654902","-0.06665163572762502","-0.0368226758089683","-0.03397188929647235","0.1347058430378187","0.479142241026986","0.25843215176047063","0.030325956847888337","-0.5742007991902065"
"0.005735950272658289","-0.12530489163124087","0.05075021182036148","-0.0686087316351601","-0.001678343612486401","0.39182296897475855","0.24369218814287447","-0.018831230839205498","-0.5902664074294505"
"0.01847116159192589","-0.13039460693270397","-0.001582658511004881","-0.001963160814308209","0.08543503656516792","0.034923039367404124","0.2405435758767336","-0.04051469442915408","-0.5993860507636296"
"0.010146625637711954","-0.10676378589019667","-0.0002460273086441463","0.019322077529566477","0.023482148997720553","-0.060827226323217874","0.2427169542551319","-0.04037485218404976","-0.5937802484990714"
"0.012107888619291166","-0.0974599940626038","-0.00012500353166896287","-0.006012100529670389","0.00945934289267584","-0.23376937878885926","0.2597138877272185","-0.02440381237996619","-0.5788586815383088"
"0.011638995604058434","-0.07714372027049828","0.008607047849785573","0.02661971949324475","0.030702726212855715","-0.38662421566872285","0.27456530664627105","0.020668926336910986","-0.5509604177902016"
"0.008324971459436137","-0.06620706467680335","-0.02323744705567888","0.053164651448724606","0.05648332209003036","-0.39887997786615886","0.2920637889749112","0.07167176780608915","-0.524255225661082"
"0.01238325494856541","-0.05428258882766119","-0.02117632539320049","0.04726395915381905","0.07188658193643735","-0.36453957487730343","0.29992138772758054","0.12657963800648217","-0.4908655637762649"
"0.013091889977746709","-0.06407250040241422","-0.01564764534264473","0.003878129830312526","0.09342625543203442","-0.3716018061633507","0.3059957016569494","0.17941625985957543","-0.4602869747471445"
"0.010620332749610325","-0.08381955705468264","0.013163035434816207","-0.008535563504735973","0.09292126975341543","-0.41230064419325213","0.3084477182889878","0.23152728515788218","-0.4293324864408089"
"0.015671282971193277","-0.08322852684926785","0.01581791709525305","0.02299593000099079","0.09524516119388485","-0.4586298521831638","0.29891829001447373","0.3007755818137839","-0.39530543012940916"
"0.02215875963780136","-0.08965299402060443","0.03237359804006819","0.05665846974505553","0.048774512275661666","-0.4785302977314758","0.26996777546119866","0.3703932730793952","-0.38030214593446937"
"0.027953006384558172","-0.07666175539297196","0.04098363432350747","0.07101691727095233","-0.031082630560736995","-0.4862720564264898","0.21460235446277867","0.4457233881308715","-0.37961572116738057"
"0.04477153449561633","-0.058610924268721755","0.009290026741350304","0.03130060804567268","-0.06204471456213028","-0.4350890812296728","0.14892731807965037","0.5108423807568061","-0.3923309228053579"
"0.05133411107020829","-0.05356587381582251","-0.010503102195116009","0.03423025507673772","-0.06872201334576537","-0.3296409886596539","0.08550925155101279","0.5582436247813165","-0.40589598367877855"
"0.060881427577493194","-0.037325527134521315","-0.0072924611765900526","0.05941963559622034","-0.08128682288486369","-0.15198825511971087","0.0380571569559907","0.5867002023935818","-0.4352161273015695"
"0.07549028531902545","-0.014296123471513414","0.004160807764899327","0.02987188764011878","-0.01096792613172641","-0.006199775228020489","0.012840395001501553","0.5909086624113437","-0.4579171749560048"
"0.0753371970450583","-0.026284999799980207","0.026925875874451465","-0.03281947802595482","0.03638441342158321","0.13830342710728133","0.02688376298499587","0.5798268241200581","-0.4547955766104344"
"0.0655886512971499","-0.03727255254668976","0.03777629770844841","-0.07244143779049034","0.027873849093767295","0.2955727652618253","0.07313771308936286","0.5562383397571792","-0.42820478860916306"
"0.048766271908759234","-0.04664074485360728","0.029865142758258318","-0.07957637507186496","-0.02391039794611418","0.4477869048703773","0.13655577961800075","0.5107236467751138","-0.4112239473471341"
"0.030555507041999788","-0.06522028313876457","0.0135223893118415","-0.058829121204151666","-0.08559236428692803","0.5528224272278094","0.20097694385974516","0.43786056000991175","-0.41027602743067826"
"0.008454952069408253","-0.08262710946976842","0.0032163679490161924","-0.03918999212538214","-0.12920780981845706","0.5423625588969282","0.2536395737978496","0.3567256725201431","-0.4278125458851123"
"0.009783642749123175","-0.061619049883627305","0.006802884861901933","-0.029342026472814198","-0.13683285423589844","0.5000862465247825","0.28289659043013005","0.2698783612445094","-0.45314488848005435"
"0.020176314630893366","-0.05162658841422421","-0.0131321682034677","-0.08703864721704571","-0.08203353156604437","0.5669711586359385","0.28412259874614937","0.1993107981253594","-0.47971933303449027"
"-0.007137907030579548","-0.08041048652011082","-0.025077586736308385","-0.08184557587772111","-0.07737138890277515","0.63688967525141","0.2814476715111978","0.12923136359761125","-0.5046267460117108"
"-0.01640022901525893","-0.09959248090217598","-0.033848712688759","-0.02993604297566241","-0.023446576976842323","0.4326916888569017","0.26601111225949986","0.060194149575829185","-0.5367579624901986"
"0.011487832968757527","-0.1205683402486548","-0.009651805251956094","0.034298610298297234","0.06199987180195827","0.26861008842746603","0.2555064500972426","0.015246741172960605","-0.5563210683522282"
"0.018714754883206956","-0.1144191331905606","0.0031405731944941927","0.05831247355687602","0.044473757467707445","0.028986882073358866","0.2569553690161748","-0.015351005909156546","-0.5545069457534935"
"0.01577430463983784","-0.1051018380366577","0.00863839837767778","0.023813304410906733","0.05581798550872191","-0.1809846604137635","0.26888108627199936","-0.009281060911751259","-0.5437856446294406"
"0.008737058134014385","-0.08785912905619081","0.017578957617893656","0.011684584957289471","0.04883195140498326","-0.2902041301035479","0.2867975259811006","0.020208502341237354","-0.5215585569332334"
"0.011762236478698663","-0.08184287782637972","-0.014988829901431697","0.0191227883624845","-0.00040223762272502677","-0.3529633400888342","0.290169048850154","0.06375616902659952","-0.5057871307370275"
"0.010348817697668579","-0.0634492699573371","-0.012935969247620558","0.017294526873167213","-0.00419776742235474","-0.37055824621386607","0.30794616943243486","0.11114422038647742","-0.4837561644028457"
"0.01048650086230571","-0.06638987894069262","-0.017884313439302142","0.012029249313885357","0.045524414874881576","-0.3807026196762983","0.31661181912066244","0.17528695582960838","-0.45077508868891464"
"0.006280906015208045","-0.07986412116325987","-0.0211949126627018","0.024467974138519033","0.06187781365214989","-0.4600859823452354","0.3105653690166579","0.23731886493154203","-0.4260474536268841"
"0.010398884302991174","-0.0816340956272789","0.0023977019900919103","0.028567361932891337","0.06504653895305773","-0.515443197339991","0.28802353429711997","0.30388905066704985","-0.41367546437245106"
"0.025039515082516603","-0.08295534417084238","0.005852868865168409","0.04208244080968758","0.04326035586078881","-0.51189994727895","0.25600799895379617","0.3801162669135349","-0.39803478575092877"
"0.0365981611767033","-0.07340953118707788","0.01604323610665224","0.06127292857512281","-0.004134823709806495","-0.5054444368937661","0.19217197504469719","0.4541930788249254","-0.39702149204713105"
"0.04330516065126428","-0.06758544267783223","-0.005900274690942076","0.07583259076730044","0.02134014813343618","-0.4382682987501958","0.11523995321448217","0.5291537992666921","-0.405618145082576"
"0.053504305847075995","-0.048315157316047797","-0.006044429292185553","0.11598406281152238","0.00840270224286405","-0.3285488910381002","0.04789308730950976","0.5754072814681764","-0.4298881636332141"
"0.0705587246947502","-0.026518711216884126","-0.006852562465059094","0.10586556452151462","-0.006871798221980365","-0.16022752495343273","0.007184038452593801","0.5940353239292422","-0.463637381348411"
"0.08118632449380334","-0.01699367258128887","0.018115923181264777","0.02189454445924304","0.03910559217319364","0.014987646695202438","-0.0023175259965560083","0.5975445727214824","-0.4764833305610719"
"0.07246703261300744","-0.02190265105367962","0.05449451399879166","-0.02258641253361493","0.041599407704572766","0.20043407423927337","0.02621503117625799","0.5823334304002299","-0.46821354646233604"
"0.06653317706294724","-0.0323313738346367","0.045275228326142836","-0.05056776689144412","0.029202128959329117","0.3621664513405668","0.08890863824543009","0.5415021333626959","-0.45306317124587714"
"0.04934588914730154","-0.04668021611512883","0.04689025552058982","-0.035804001784187356","-0.0012106933679264372","0.5007900427697839","0.1670388045663002","0.4813040046446774","-0.4406584950977732"
"0.02813594205785226","-0.04998229875662908","0.04378824676603818","-0.030628259937652478","-0.055061073755446686","0.6073302329613565","0.23318752598061782","0.40445673316046554","-0.44155738467372274"
"0.005852451411966628","-0.04800146465869232","0.040523083090308394","-0.07485312553706211","-0.10911368774412004","0.640845495525038","0.279998752592266","0.3101819516967441","-0.45260555473448466"
"-0.016015101282008237","-0.05581158085291704","0.043854334835376166","-0.09971998494073574","-0.17661184458815612","0.6904024587075417","0.29983779625148843","0.21762221663524542","-0.4774639373711988"
"-0.020116711641128198","-0.08534751036253005","-0.004282562668678226","-0.08113410392374246","-0.17334738740504563","0.6381516547252054","0.2892495426131393","0.11326823939230714","-0.5288640776686779"
"0.008695656902689947","-0.08940266312516515","-0.07546767435435468","-0.11429601387610368","-0.05971842982460578","0.5307863241084589","0.2619708575817086","0.047687503504235576","-0.5686767141598257"
"2.354316921725806e-05","-0.10958909724121295","-0.0419465664348289","-0.10202095648337309","0.01838921286453938","0.37595115020817804","0.24586556652127242","0.010997383894837922","-0.5781068829838782"
"0.01224846024192767","-0.1379356953181371","-0.021905359408085134","0.02206880213673984","0.05461894368413368","0.1522968379647895","0.23956834198899105","-0.013642555839250047","-0.5893838613003364"
"0.01215025266994873","-0.11344273882660644","-0.002955225101068146","0.12535161641397483","0.1222056525192072","-0.04238776470418443","0.2507417359599859","-0.03557799932367905","-0.576080295576283"
"0.000550205344437597","-0.11109523748348264","0.014534775924012748","0.06207104799305015","0.08196954242943184","-0.2151090707619116","0.26960554573146545","-0.02455157022384999","-0.5473321725927325"
"0.007609596694922966","-0.07343653783969789","0.02640997588318182","0.04025321657077086","0.006534973221090277","-0.38021724295560777","0.29111641891253226","0.011672848324021034","-0.5156422291788016"
"0.015552856193218688","-0.06469157597785749","0.01687016307424377","0.0013036411264771611","-0.019614908391681108","-0.44435977659486203","0.30006070685440095","0.05994348894781202","-0.5016032083471532"
"0.003868080766392393","-0.0600994063150476","-0.0020436227946373222","-0.04083918218920548","-0.013702746676550722","-0.3916964023999389","0.29992138772758054","0.1260519314211829","-0.4822852541876555"
"0.0055645684313617326","-0.07941020165576206","-0.01257661537059527","0.0051950750073726185","0.02639000491962616","-0.3921575102845949","0.3075003482266095","0.18433712376749148","-0.4591756203623341"
"0.009599744256495965","-0.08316516508735168","-0.007205307535150588","0.044296764888376236","0.016661491720486983","-0.47634610248836834","0.30148176194796883","0.26313690961731073","-0.4454798119142299"
"0.017533375561460427","-0.0860185218083964","0.004484432779438769","0.047983133104593144","0.01322088787412361","-0.5179671562875818","0.26991204781047046","0.3352480144984612","-0.4388443724990386"
"0.03299529123214299","-0.069811414084166","0.009760284659733401","0.05349968830932619","-0.003043001593285229","-0.5130405825725729","0.22998318606374876","0.398810272697763","-0.4328136406167589"
"0.04525775825884534","-0.06785135433439846","0.007437949903196629","0.06776089812568058","0.024808035566227314","-0.47421044491733","0.17238865903620296","0.4677419454024851","-0.43634382513321546"
"0.05227093428134062","-0.05608891840097636","0.005286576721028555","0.057562491618920165","0.060913314938958164","-0.4101407177861793","0.10696439708135172","0.5234281828161946","-0.4403806565015707"
"0.057569329071537154","-0.0332953035896893","0.0009720584193415795","0.04748635431128734","0.055442237871076494","-0.28110331659060034","0.04031412681048083","0.5795102001688786","-0.45095486660410455"
"0.06538260795986077","-0.022968375114761484","0.018899686378569938","0.03944643240644865","0.049109573863370955","-0.09835412748340666","0.014122130968249113","0.5991804631359104","-0.44842163234461024"
"0.07275395277427922","-0.01783399496473451","0.03462265764972647","0.0009554145963633839","0.060858269106691634","0.08011889271450336","0.02529552493924363","0.5941540579109345","-0.44332247693195104"
"0.06698473933018369","-0.019919739520925926","0.04551273232532621","-0.03801928861247544","0.02504257867762381","0.25645140157416807","0.06062685550089257","0.5730326018343296","-0.4293651733344797"
"0.05644186763244573","-0.0271512901186374","0.04077091335032584","-0.06390184884354755","-0.011506657298821844","0.4733662580507686","0.13109446984664158","0.5211194665055101","-0.41382255539397017"
"0.03317726408610395","-0.047244239667923627","0.0169851976199352","-0.055115795999150737","-0.061690506597980456","0.6416220982781429","0.22062094074141902","0.4332167420592778","-0.41120760390029865"
"-0.0010528888452184595","-0.07336382762110556","0.009433045453902037","-0.035526729899551565","-0.11390506844836286","0.6367197933991684","0.28136408003510566","0.3321081603159303","-0.4281394148218213"
"-0.009275365950120941","-0.07986827603289373","0.025454796756031264","-0.014156577041007156","-0.07282651779520416","0.5129487296230817","0.2971350051911729","0.2555115494597357","-0.452327716138282"
"0.01583977635449046","-0.06273670981513227","0.007479254946532869","-0.062166974065374955","-0.06849704342258914","0.5452262815490023","0.3010916683928717","0.18113130626179821","-0.47854260486233824"
"0.008891109227314667","-0.07758933003872841","0.0014390119342577736","-0.11664512289871251","-0.09153731417171282","0.637714815676584","0.29220310810173156","0.10772732024666443","-0.5034990481800651"
"-0.013088130509302881","-0.10833224917697408","-0.015414271847794977","-0.1303835596825765","-0.07703872061212091","0.45004390662158833","0.2533052078934807","0.04090515461667622","-0.5476263546357706"
"0.013556931715646925","-0.12563728120194867","-0.04431954117449591","-0.07524592737362948","0.0016890253439919435","0.2416304234078826","0.24519683471253453","0.01008313223580687","-0.5718146559522314"
"0.01849619489458718","-0.1034814388794572","-0.0424794014938664","0.028421023993777998","0.04357148447794744","0.07085790488372795","0.25277579521156346","-0.010062066657994237","-0.5690362699902055"
"0.01475660460472287","-0.1006976762247794","-0.02655217678341216","0.06972009356052032","0.08954432760871682","-0.04099230663219913","0.2541968503051311","-0.020563427705450478","-0.5570401800129878"
"0.00652161084848972","-0.10887238222937425","-0.028130029438856535","0.10837834097602654","0.14626546781378916","-0.2380843778357981","0.27576345113692646","-0.012691364719248045","-0.522310355487664"
"0.0021013072901047932","-0.08555733127903935","0.007013334057700078","0.13830059852630633","0.09967276074575758","-0.3612632820126423","0.30747248440124525","0.02679164199284622","-0.4765977346889201"
"0.003250913573858145","-0.045703821751174684","0.020537637872068543","0.0676713624129336","0.04487343807590353","-0.4290704098931102","0.32377282223923","0.07394090612287617","-0.4454798119142299"
"0.005625226049348714","-0.05123706938605101","0.027691258327471994","-0.027483919745914583","0.009093647102661702","-0.3716746126714543","0.33402670997321016","0.12113106751326683","-0.4242333310281495"
"0.003481027394475433","-0.08583778497932405","0.030359564126993113","-0.006092971496022497","-0.011124208429422243","-0.42785696809138385","0.3430267255658067","0.1829255086518159","-0.40378767903700596"
"0.007588414669594175","-0.08568717095509706","0.02125180207135214","0.042902703468401825","-0.059213444145986796","-0.5156858857003362","0.3265313409502737","0.25598648538650504","-0.397969411963587"
"0.019436869383052023","-0.0736515523432495","0.026220179209051796","0.025261279808449225","-0.06861910157239752","-0.5335477490217481","0.28172630976483887","0.3477810458993198","-0.40700733806358896"
"0.03140375087448446","-0.07064238801093549","0.0018293445937852457","-0.005327874389355595","-0.10049781834588122","-0.5337176308739897","0.22287791059590945","0.42993176856578963","-0.4117305941990329"
"0.03897825056819264","-0.06904691807153807","-0.0008191347849344809","-0.0050804477423021235","-0.09119267939578327","-0.4951301815790921","0.15006973491957787","0.5008951116239142","-0.41777766952814815"
"0.050257679055772574","-0.04735745986544596","-0.012021062537722838","0.061075564907239685","-0.06384447394754017","-0.37783889702422413","0.06597670997079502","0.563533883298942","-0.436000612749671"
"0.06665834357625372","-0.030221738778050657","-0.007785230343591399","0.08829923533031758","-0.052002440119071895","-0.2007661886655063","0.0025865072675213927","0.5917793782770875","-0.4682298899091714"
"0.07850679828971158","-0.020370542876198376","0.0042688204532235945","0.03374599202822451","-0.020528669207305436","-0.035068283756171145","-0.025555956350195762","0.6032569965073475","-0.4889860673901886"
"0.07730038566530374","-0.01466798430374276","0.03033065059665774","-0.012718229139458961","0.00484578415962445","0.139475611887749","-0.01945377859546296","0.5920300389051046","-0.4959974060825951"
"0.0731602625328587","-0.03186291228342039","0.02437962647798893","-0.058033890035022614","0.022709114048934127","0.3322187076739607","0.02822122660247164","0.5662911502071309","-0.4851780442775294"
"0.055811220969247705","-0.060504506104347724","0.03532277813427574","-0.03254509439011731","0.009034293335696058","0.49858157869064196","0.10963932431630294","0.5095494996228228","-0.4693085574003109"
"0.03836974874965653","-0.050315727044745344","0.027494439795974806","-0.024783407119513854","-0.016069238804600323","0.584177763384418","0.190249371094576","0.42808479551724204","-0.4713351448079063"
"0.016749640624295244","-0.037932138101063044","0.019525457785113977","-0.07895443883063327","-0.059258916790033055","0.6612798554661096","0.25511635654214576","0.33188388501717814","-0.46595815079904435"
"-0.004769371471087727","-0.057692698079641475","0.022188393929001387","-0.09126511795854277","-0.07777824940213642","0.7304217693284764","0.29256533783146443","0.23284655162113047","-0.4729531460446156"
"-0.01883616192806962","-0.1019752986371875","0.006166374144090472","-0.03005349842679286","-0.028937997069692047","0.6721765628456121","0.2938749376235763","0.14140819305339278","-0.4975173466382916"
"-0.01623654972862737","-0.08841172671749252","-0.03810313215239174","-0.024316473563790374","0.059273906456237715","0.5227533393810305","0.2899740020726054","0.05927066305155539","-0.5113275592142439"
"-0.007436381023848848","-0.10003289708336383","0.013687402959969779","0.01568577229251993","0.009332258819051815","0.4467918825929617","0.288302172550761","-0.005840413975599777","-0.5241898518737403"
"0.012868515892461291","-0.1128091212074447","-0.013109450429632767","0.03642339866423892","0.05559540888260075","0.16294114944953295","0.26093989604323753","-0.05264534955872194","-0.5370848314269075"
"0.014453316514787932","-0.11968543045146221","0.007278099385485379","0.032021707495645646","0.06571905542553136","-0.05560214592498426","0.2599925259808592","-0.05910052036339572","-0.5341266675496917"
"0.011428138170103672","-0.11655889105199199","0.005025115796710154","0.061754303374837734","0.14970702897897453","-0.2665662838059188","0.2926767931329209","-0.04296061445201638","-0.5063101210357618"
"0.011799786432690605","-0.06856806934623715","0.02581642241044005","0.09656058964302512","0.012201582658370855","-0.37883391930163973","0.30624647608522587","-0.006436722416987988","-0.47305120672562817"
"0.00028928130516023883","-0.049341410115608116","0.02380507332518183","-0.0004888060777413353","0.011625516057216389","-0.4308177660875961","0.325611834713259","0.04686032343177892","-0.4487321578344838"
"0.0014128914669191601","-0.06452434247509513","0.00648400992734616","-0.05242394811914486","-0.007166173759753525","-0.4031755618442701","0.3450050571666564","0.12461393097624231","-0.4158654862484009"
"0.008038051298164366","-0.07342303451338789","0.01747672763563646","-0.008492817422521287","-0.030197589309773468","-0.4355016514422598","0.34107625779032125","0.19125008003491245","-0.40270901154586647"
"0.01530156034727261","-0.08524156118686693","0.010270629122674317","-0.0006598866815600197","-0.03653216795512306","-0.48527703414907425","0.3262805665219969","0.2535722277587608","-0.40051898966991667"
"0.015661654777862015","-0.08711748482654903","0.017216712387834825","0.0078067258457459755","-0.03190353145062475","-0.5252478070979398","0.29153437629299367","0.3312374444501865","-0.39448825778763685"
"0.02505106891451413","-0.07597516318597868","0.00758788721050718","0.011583496249349338","-0.07846273235988539","-0.5568701004509282","0.23318752598061782","0.41545941546395615","-0.39775694715472615"
"0.04122161961437798","-0.06534389051037154","0.005145106947601932","0.032351930608250076","-0.10095015148928875","-0.4952272569232302","0.1533298024871745","0.5030982866175387","-0.40604307470029755"
"0.049374773727295346","-0.05969534524315594","-0.009186710463990031","0.04162898574835613","-0.0907068400936048","-0.4037822827451333","0.06798290539700867","0.5619375708784117","-0.4291853954192898"
"0.05624737812715412","-0.04443450907803429","-0.014565453207235237","0.07458101628804165","-0.11004707359559592","-0.24792781773140218","-0.007193695435269459","0.5984548665811238","-0.45901218589397963"
"0.08148191002907325","-0.002499929222316299","-0.017898770204469828","0.0707290551407228","-0.07234546508713581","-0.06884807663262899","-0.04717828483271902","0.6134549262682566","-0.4965694267218357"
"0.08515602860428495","-0.01358979563375935","0.012260644153049368","-0.020203607275026052","0.0310449676917302","0.10404553816094335","-0.03809467776403031","0.6097082095126315","-0.5019627641775332"
"0.07144548130055996","-0.022396041822699","0.02899711727254723","-0.05288703067647063","0.06390493625779109","0.2877096623866386","0.007072583151137694","0.5774917224801087","-0.4858317821509474"
"0.05893171842791151","-0.04482714425843287","0.02441163788657452","-0.07611625301151408","0.040141889798037365","0.46652244628903206","0.08043803533475107","0.5291801845959571","-0.4614146725787902"
"0.03661838038269896","-0.06302755068950158","0.024739806455880947","-0.06885808378141242","-0.05708340976697775","0.6118442364637785","0.1670388045663002","0.46721423881718577","-0.4377330181142283"
"0.01628267324772878","-0.06254766324679222","0.0309485740449679","-0.053513780665699465","-0.1077016424816309","0.6191006184381019","0.23363334718644288","0.37734580734071355","-0.44395987135853354"
"-0.007811880563768262","-0.06387618281221492","0.01726194141028801","-0.020394231695713163","-0.06665420469018805","0.6098056542368783","0.2667634355443299","0.2865538893399675","-0.4629509565813223"
"-0.004374615544505754","-0.07269177745783073","-0.009815786274000971","-0.010986242610084657","-0.05606147192446442","0.6631242870047336","0.2926210654821927","0.17840042468287426","-0.49339879803575915"
"-0.011672786089606566","-0.07683418248277664","-0.016428310661699672","-0.00887993903645203","-0.03117836244293965","0.6168193478508563","0.29390280144893993","0.08520744171901644","-0.5155441684977891"
"-0.012625977229402037","-0.08908897046780967","-0.01606482628034076","-0.014690903068690723","0.013404214428541693","0.47911797219095137","0.2692711798270965","0.021442016484374476","-0.5368887100648821"
"0.011550416225410757","-0.13334456437273567","0.016665703109729382","0.03152781695113813","0.048678780393459006","0.2909374175792307","0.2602433004091357","-0.028369527368490487","-0.5550135926053924"
