"AccX","AccY","AccZ","GyroX","GyroY","GyroZ","MagX","MagY","MagZ"
"0.004348527613622636","0.08908222660565321","-0.09033748995540115","-0.03938350479486754","0.20731368909442144","0.3897601179118238","0.1000263045656964","-0.15469720682329194","0.3703687106644237"
"0.01059818790494841","0.08250091310563887","-0.05952599287873275","-0.0745951086444149","0.18969662947207805","0.43888024204570597","0.08935445945125546","-0.21823703749271842","0.4250048534353213"
"0.019143209486448362","0.07177511714586171","-0.05402209585417875","-0.09378270816105183","0.13406204613000586","0.4778317238811215","0.07904484406654709","-0.2886462886362786","0.4653077933315324"
"0.01983066249030086","0.04640028957454693","-0.06323518577032713","-0.051428465033334404","0.1259104763604499","0.49712544852857027","0.06260518710174197","-0.3563378508655474","0.49596809959483"
"0.02700655498009457","0.05248094128368266","-0.0505421459531005","-0.011236557505936417","0.1490656253682168","0.45943594616695016","0.014985909554535262","-0.4198209530770543","0.5339175831467368"
"0.03975717140869219","0.06405640808358162","-0.04614315883779091","-0.0599526499866863","0.13511509683423506","0.36663191717091975","-0.03402655926087511","-0.47599531908216564","0.5662285775404147"
"0.05309607044983025","0.04430519656167935","-0.036539736262115055","-0.09081647664520846","0.1069531703872694","0.2350657032605431","-0.07833004158975634","-0.5365892277391587","0.5647576673252245"
"0.06237764882117217","0.03601830907697063","-0.0035801704067454604","-0.07431783675977911","0.07912630552801303","0.10250204018914744","-0.11304836799339561","-0.57565270771594","0.5673562753720603"
"0.06512938647524844","0.037459010122507234","0.02086353466399148","-0.01304363850406625","0.0053052971941971875","-0.03718452625838188","-0.12121246882507027","-0.5854284722086097","0.5725208045720613"
"0.05959895222576835","0.023623294241795257","0.03196674336320622","0.06725641733557933","-0.11335939671980773","-0.17725939408246363","-0.09685948545686728","-0.5643993647844323","0.5675523967340858"
"0.05382299904634095","0.03581887533454595","-0.000384399203820552","0.06935232321353811","-0.21999514030534373","-0.32915561193896337","-0.03932068608004935","-0.5174994420159563","0.5425959534163589"
"0.0430249802253244","0.04195250163151324","-0.04936495221801765","0.044658758737761865","-0.28689975947972335","-0.4829472258897597","0.0384751143364518","-0.44558622710429296","0.4949221189973615"
"0.017781782949407132","0.05232513367241337","-0.06922441705408197","0.02294201602342272","-0.2516464938585961","-0.621400935466735","0.10766099271545355","-0.36736691849830305","0.4364779531138048"
"0.0027781692812928983","0.06307482013258517","-0.0621467978784172","0.01858557408600264","-0.2337398452925897","-0.6250655297079486","0.14182204261181103","-0.2946093730501608","0.38115538557581846"
"-0.001775003345063519","0.061487659932455446","-0.020655881847163864","0.011027989730478313","-0.16473869789797196","-0.6023013615075624","0.15313475570962623","-0.2221552588885658","0.32328324033150235"
"-0.007128278837248286","0.06338020305067295","-0.04242983544186291","0.07174283046892244","-0.1739265652923717","-0.5841482721537364","0.1476455821129031","-0.14963254287088185","0.2670944701112373"
"-0.008274033843669105","0.09127288162009929","-0.04610391904662148","0.10914854065557042","-0.1710234959645762","-0.5023865635534156","0.1299520530067147","-0.0675504220605009","0.20580654447831292"
"-0.005674421644226871","0.09588894178330377","-0.08737385309602592","0.14011056777323444","-0.09205665963266223","-0.30782330506461436","0.12136999479457893","-0.009730930775718911","0.15363826217956772"
"0.005020575508145118","0.0964311522705209","-0.10117180282249699","0.08298389479186537","-0.060094177462251215","-0.12944978709444582","0.11387462577164247","0.024511949544353213","0.1174865577795601"
"0.003541685012462414","0.1002079287676882","-0.12200606668129657","0.026701553209196285","0.03370152742285384","-0.003299649321894538","0.1084690436510115","0.038442084129791707","0.11256718028209069"
"0.0059092577526211115","0.08866881707708539","-0.11289210886915516","-0.015855830084000842","0.09838038033602176","0.17591041542638408","0.11125542618741914","0.02835233421886893","0.1423122535226033"
"0.007182104911014674","0.0439364518816754","-0.06578990270067359","-0.07096843090336266","0.11124674530405841","0.28093865713300564","0.11819351870307444","-0.011672891009620368","0.18449468980489075"
"-0.0031518349914347855","0.04221945200548794","-0.04841080571695051","-0.05329427375702945","0.18757138168717916","0.2605042971919341","0.11872293138499165","-0.0470305514911373","0.2307793312428752"
"-0.00046749469067738854","0.05267414272165657","-0.05017659631957477","-0.03474208897601623","0.18876563691765727","0.29013654599009125","0.11560218294421538","-0.07626021925086598","0.2827351487327596"
"0.002924517819928166","0.06469002570274336","-0.05222532646905228","-0.032343879723836476","0.1259966350544323","0.3807563797430143","0.11312230248681242","-0.11932503441067929","0.3263884952302372"
"0.011906659378667665","0.07892980265534699","-0.06302659530147911","-0.015675795908907462","0.11321403548332296","0.40961202578806666","0.12028330560538025","-0.1723397572363111","0.3604482384353077"
"0.010673287812932293","0.08172395248410941","-0.06060611976197544","-0.009141614377577063","0.14904647899177623","0.4480053243946881","0.11760837837042872","-0.22536107639425912","0.40777886047076073"
"0.012500718907206873","0.07604112954241457","-0.05865652171650489","-0.044615086118169354","0.0946085441772372","0.5088472963332468","0.11064242202940977","-0.28970170180687727","0.4489970333897568"
"0.02752551460064989","0.06293459328244282","-0.056120392055659746","-0.05933263924465348","0.07361454241019523","0.5098908562827313","0.09966407483596351","-0.3591478884322663","0.46908312955052056"
"0.035355161417636664","0.048415401346962934","-0.06349953804767906","-0.06592554850154911","0.15565197886375937","0.44336997671209344","0.06494574843232424","-0.4303223141245105","0.4898066201378668"
"0.03645662673473367","0.05407121763603777","-0.08391868622094943","-0.08240108239659215","0.14761528735284657","0.3398876598608712","0.01465154365016632","-0.4916286266716577","0.5180317528226829"
"0.053774858079684615","0.024119801163040022","-0.031042034994061475","-0.07221904263302203","0.07989694717974438","0.20480489160909165","-0.03639498441682134","-0.5492409931217097","0.5258112335163554"
"0.0754671776550304","0.006312757014555815","-0.0026419263473627637","-0.02872779222837795","0.0528455105663295","0.012231434986761228","-0.054896564458568324","-0.5718664129664175","0.5260073548783808"
"0.07182675775647815","0.020275508034322678","0.01840010187941811","0.02815723060353422","-0.01690617478475702","-0.17704582832535978","-0.05135785863733033","-0.5610484279677818","0.5320871171011667"
"0.05776766985416126","0.04156921490779082","0.01464898436883745","0.048457768657112064","-0.0708329013483339","-0.3584723658686717","-0.025165862795098613","-0.5155601203149813","0.5262198196872415"
"0.03604646569882167","0.05442957514195711","0.004697566803053768","0.03041872941259494","-0.2338547235512329","-0.4867574331471804","0.03017169437795708","-0.4532907432496629","0.49879551589736226"
"0.02101878154737928","0.04664127201331008","-0.026923922173438322","0.022425982238128316","-0.2764889172901847","-0.5689074431240535","0.10350928273620588","-0.36954370816266263","0.43657601379481753"
"0.006262612447878628","0.05631173108609","-0.062136471617583136","0.07433647788978646","-0.21160663412733619","-0.5853131762833936","0.14725548855780596","-0.28730063684376544","0.384947065241642"
"-0.010401864569879252","0.06021523110708967","-0.025829338525027955","0.04533268345736276","-0.2441650472644587","-0.5964283031872069","0.15739792099033","-0.21498240712788494","0.33776353422770794"
"-0.006945343163954185","0.06191145663510788","-0.08487696322635022","0.09153311123480244","-0.22285752358320307","-0.5337661685460587","0.15976634614627624","-0.1419333037913649","0.2736318488454159"
"-0.0047597432777564475","0.08144038263159932","-0.10527958938228608","0.1015043088360974","-0.16642597232179374","-0.47588499460371236","0.14993041579275748","-0.07585916224603852","0.21260541836185873"
"0.003359712158501471","0.111938164461448","-0.10530437240828783","0.009051272252928943","-0.0917814304713296","-0.3566036654940132","0.13045360186326796","-0.01575206291398404","0.16551994802893735"
"0.003605231088448786","0.09437449180176641","-0.08914170895081701","-0.04386510418021349","-0.00683230882057177","-0.19462617314877098","0.11763624219579298","0.01298551845495306","0.1440283154403252"
"0.0112346114841452","0.09223577265774345","-0.09376580855230911","0.016391467748902013","0.06168156329363446","0.011429835332540808","0.11186843034542882","0.02189320561480538","0.1369679464074123"
"0.00725142790299981","0.08966183091957494","-0.06325170778766163","0.04579384051548966","0.14623196165501823","0.18849623379388966","0.1035650103869344","0.010340389196140285","0.16684376722260852"
"0.0009237792456907797","0.0611074893609584","-0.056642900853863185","-0.03671957665324514","0.16135520574598247","0.2674694531338433","0.09587459458644905","-0.012197959061993183","0.2117882460200864"
"0.0005165066677781536","0.05472976447300258","-0.06253506528577786","-0.03579148603939477","0.20939585753232912","0.28598657502818725","0.08982814448244476","-0.05251210364593385","0.2772274071492142"
"0.004672034909553224","0.05740238436497495","-0.06515173978112868","-0.00748154524328017","0.18885658220574977","0.34580925585329575","0.08977241683171655","-0.08761250716711737","0.3262904345492245"
"0.0038969653463861967","0.06738653609511035","-0.07264447464232265","-0.005696800035857113","0.13602215641810522","0.41058277922944775","0.09002319125999303","-0.124520305742951","0.367851819851765"
"0.00492044229749993","0.09441811793292178","-0.07017856355514912","-0.0008917167851027278","0.1343372752913385","0.4407004047482955","0.09581886693572114","-0.17157985975348006","0.40722318327835555"
"0.002257284022071323","0.0819992125973518","-0.06050492240580165","-0.04674179998330989","0.09834926747430589","0.5560016447483322","0.09442567566751717","-0.23687827261841649","0.4451726668302623"
"0.01934732718507123","0.05830710722774523","-0.058012163040459544","-0.03609956591121232","0.06018096604010785","0.5556133433717799","0.0934504417797746","-0.3202559130957072","0.47503214419862305"
"0.028263034209824983","0.05256092252413422","-0.0861285060394383","-0.03531877598607471","0.08047612506707043","0.5325822179750139","0.06494574843232424","-0.39335646782429395","0.5015085280720464"
"0.0347447339604343","0.04716790173940024","-0.10179757422904101","-0.07335123616195154","0.09077687559207598","0.44181677120588375","0.03320885134264151","-0.46249922316313585","0.5162993474581254"
"0.050761233566997875","0.04513305433622346","-0.06468912329576279","-0.11131149011787113","0.11886460983033457","0.2946748183285478","-0.010286580050681785","-0.5273015918378909","0.5243076364074942"
"0.069205000712374","0.022180515761441727","-0.0035659201667944582","-0.10597785733702977","0.12613305298657107","0.1293118233564892","-0.04776342516536474","-0.5748479551733586","0.5277070733492673"
"0.08028608841732982","0.019900531049867946","-0.008196835100437033","-0.045273606844179366","0.08692606063047424","-0.06413749555832733","-0.08345698545674658","-0.597077595079092","0.52378464610876"
"0.07308997672154045","0.024817819261526392","0.009767141296927215","0.037369781520478464","0.03884232949713634","-0.22802979906669366","-0.07749412682883414","-0.5756263223866751","0.5311882275252173"
"0.05893075560857838","0.03784437428104658","0.010058507072621055","0.05523552583709822","-0.02750225816635775","-0.4044375413180655","-0.04625877859570466","-0.5338451534956024","0.5349308768505346"
"0.03976583678269033","0.04524004222929502","0.010766083117492518","0.04047272347944087","-0.16970718258428974","-0.5338875127262314","0.005289298327836567","-0.46104803005356276","0.5189633292923033"
"0.013052414385088501","0.04565033560563746","-0.016417984400865615","0.025577061677062217","-0.22587068457553158","-0.633656697664171","0.06631107587516397","-0.3819052349232989","0.4712404645327995"
"-0.017863714401611608","0.056606726830093164","-0.029241135104601402","0.0300528845648116","-0.2053194427636769","-0.6856890821221965","0.11309443866144847","-0.2723797331444275","0.42046137521506716"
"-0.01573588367540146","0.05743873947427111","-0.050226162371578266","0.023428204571134797","-0.23056394010051667","-0.6010636508698016","0.12747217254931173","-0.19459050540545642","0.35964740954037083"
"-0.01242378516944543","0.06297614197878129","-0.08325574027540278","0.13769406627866548","-0.17322054266112713","-0.5338147062181278","0.12610684510647202","-0.1309213866226316","0.3033769220859286"
"-0.007070509677260662","0.09809621627628526","-0.10262574034793265","0.12569820626976957","-0.19719659255878175","-0.4310604544479414","0.11900156963863269","-0.06254248656601046","0.23296935311882505"
"-0.004692345924437595","0.11165771076116328","-0.0994535130197094","0.0332877232188959","-0.15049858042032724","-0.29491228429424604","0.11518422556375428","-0.014691372677532418","0.17839858413526916"
"0.012899326111121361","0.1003876268793521","-0.11416636945607817","0.03183397132375682","-0.057073836578757475","-0.11187186915463808","0.1072151715096282","0.014575234543167222","0.14415906301500878"
"0.014699798264068387","0.11426489145640256","-0.11659717125641592","0.04132668237413514","0.045806823927379406","0.09364391503654516","0.10715944385889999","0.015431438477815347","0.1383734828352607"
"0.006845118144420325","0.0845181023128718","-0.06341279745667297","0.005222031996156655","0.08655509958693895","0.2248776458932488","0.11537927234130255","0.0004340173236090138","0.16097646980868321"
"0.004144409914999778","0.04974392091238565","-0.054930806807576026","-0.046565616806614224","0.1563029556627374","0.290306427842333","0.12343191787152048","-0.030212542617648327","0.207015959544136"
"-0.0006725752086333883","0.0352268064117227","-0.05200847499153703","-0.0046103371129005265","0.16759931776265052","0.29290319329802733","0.12663625778838952","-0.06323378219275255","0.2540197126428801"
"-0.005115986431013355","0.05930427593986862","-0.06371845477736114","0.01061015640432576","0.15500339536183635","0.3481633329486449","0.12131426714385103","-0.10855982007057342","0.31669683125681747"
"0.0005020643777812518","0.08374633527838465","-0.07995340206067038","0.0021313169571070037","0.1331143004961996","0.45198541350435045","0.1270263513434867","-0.15590565490362734","0.3599415915834089"
"0.0084096995607513","0.08702868228912414","-0.06877419208171695","-0.042329518569122884","0.08852238976620348","0.4799431126161253","0.12521520269482161","-0.20545994179615892","0.38259360889733773"
"0.016022712027784543","0.07598192265013225","-0.06067427308348024","-0.06961095396816658","0.11002377050891952","0.5110800292484232","0.13120592514809798","-0.28004467129589994","0.4121752476694959"
"0.027111502287405383","0.058114944507179786","-0.06217158090441894","-0.043691809252316124","0.10751080860109986","0.5576519255986802","0.11549072764275896","-0.35910831043836877","0.4424596546555782"
"0.041522982065646655","0.050636179166254396","-0.06974692585228541","-0.03859886387133222","0.14689729823632666","0.5197682725487838","0.07283121101035786","-0.44318516214118114","0.47568588207204104"
"0.04656719255189773","0.04948008669063633","-0.0658084899701749","-0.07526710786481694","0.15931611665506593","0.4054863236621971","0.014985909554535262","-0.5131854406811344","0.5015575584125529"
"0.053017119264513864","0.03059724292220818","-0.03790693319654461","-0.10302221606678011","0.12425670809539906","0.22741131237525336","-0.026224688158933647","-0.5607713820104996","0.5065749965910348"
"0.07851931494104221","-0.0007589349739933753","-0.004819321706832667","-0.04641253962030488","0.09710235970861633","0.014859264552579788","-0.05408851352301007","-0.5896369322263717","0.5127691629416691"
"0.07456886721722314","0.016873708521610086","0.012017460710407253","0.048353791700373634","0.06683672515024736","-0.17732977370696373","-0.05606684512385946","-0.573027367454076","0.5253372735581274"
"0.05418694475426286","0.038437481921278306","0.014811313189148877","0.06399654719190985","-0.06367933645074059","-0.3625009926504032","-0.041939885664272675","-0.5287395922828315","0.527739760242938"
"0.03711519515859237","0.054916733606525714","-0.0023854220282447094","0.05009059197774509","-0.15283443834607202","-0.49690180660961253","0.013119033255142286","-0.45999261688296417","0.5105954845125547"
"0.016235495100405558","0.056261872650483824","-0.018163122481821763","0.010452265470019264","-0.26203340307758405","-0.5529142801773004","0.07196743242407141","-0.39110052217213936","0.4763559633922942"
"0.004904074368836778","0.058142989877208257","-0.046547948262486066","0.03465290215088743","-0.216505713199057","-0.5722808113328528","0.11638237005440936","-0.3175118388521509","0.41939905117076326"
"0.0012829108569470604","0.05170813553178703","-0.03181443930444917","0.0588246563437727","-0.24729069321837535","-0.579804150503556","0.13722451142673833","-0.2377094104902629","0.36347177609986536"
"-0.005279665717644915","0.06220437494429413","-0.07240903589530609","0.08530893507448846","-0.21653443276371778","-0.5379889460160665","0.15238243242479618","-0.15723679476504485","0.29280271198339464"
"-0.013713963075835268","0.08569912400629295","-0.11140719256121731","0.10748298384855678","-0.19986990536929083","-0.5373579562791687","0.1447198804496751","-0.08326684343717755","0.22837684455806456"
"-0.0020349645650077357","0.09796429916541058","-0.10349314625799369","0.002562051127891919","-0.14883523896705614","-0.42945871126966256","0.12978487005453007","-0.028837866962943624","0.18292571890868786"
"0.006256835531879864","0.09486684385337733","-0.09569062357177789","0.00403371016558039","-0.08140888103467206","-0.23669377353101975","0.11822138252843839","0.011558072141718449","0.14620199386943955"
"0.0150242683793321","0.10509093930486743","-0.12369131244941517","0.03293054311750743","0.03689897228842248","-0.03174345321944097","0.10961146049093899","0.02572831322346811","0.13410784321120917"
"0.005579973540691759","0.10125080104578392","-0.09495952430472646","-0.008309317348869957","0.14786419024657346","0.15213180987975472","0.1011687214056236","0.01306995150860094","0.15023882523779483"
"-0.0023815795249333806","0.06163100293482318","-0.05306794935311159","-0.0811581726637282","0.1577413271928323","0.2586841344893446","0.09860524947212879","-0.014741504803135849","0.20005365119223578"
"0.000645524458417146","0.04643976083606848","-0.0467069726793306","-0.05591776641547579","0.1909172109701619","0.2757693950576514","0.09882816007504132","-0.04845404000498218","0.2592169287365521"
"0.001694997531525309","0.051285377546543054","-0.051940321670032236","-0.017020757099310963","0.19965513851820912","0.3210307742620439","0.10047212577152177","-0.0811256739673256","0.31174476686567715"
"-0.0004328331946848206","0.07248975472288346","-0.06354497359534893","-0.010958322871701193","0.12894039043216388","0.421697906133261","0.0999148492642403","-0.1288910355356925","0.35891195443277574"
"-0.002785963644846616","0.08956107533095416","-0.035790049725562295","0.010058404608892511","0.12748047922857342","0.47618144303077364","0.10027707899397319","-0.18793612536483215","0.40289216986696225"
"0.00220529177808248","0.0824240480174127","-0.0398999015375182","-0.020622403350778036","0.029190162474053784","0.5743974224625036","0.11223066007516201","-0.25360657137240455","0.4334707588960827"
"0.01367920977095403","0.07344537473866838","-0.044344324200497644","-0.022850205923858714","-0.00019904670274989447","0.62509502093863","0.11067028585477372","-0.32368600590015273","0.450173761561909"
"0.02139331826796559","0.05115138300085147","-0.059769692634416574","-0.02757923195625814","-0.0034587172917502533","0.616382508802235","0.09684982847419192","-0.40709003170670843","0.46163051779355696"
"0.04375287164116822","0.034220289242923155","-0.07612442454340089","-0.03811267532362014","0.04889417712841498","0.5099879316268695","0.05945657483560143","-0.4849663310322539","0.4687726040606471"
"0.06345696929360727","0.03446334911650323","-0.07744412067799378","-0.06661776546353916","0.11668910280727929","0.3376306581096602","0.007379085230142377","-0.5578558031267209","0.47678089301001586"
"0.07754397895658481","0.01867276707306603","-0.02256830535363179","-0.06254822290674918","0.1136591887355653","0.11848792248509023","-0.04082533264970974","-0.5986739074996223","0.4837432013619161"
"0.08600205795230341","0.013144713025232008","-0.007006217226269906","0.004525964035768873","0.04621847102085082","-0.11434729043015981","-0.05211018192216068","-0.5997029353409561","0.4922417937163483"
"0.07566744407632077","0.02407929118411001","-0.00437611859183481","0.06538098111588998","-0.005357319845534383","-0.3020230532523624","-0.0331906444999526","-0.5648874933758341","0.5038129540758444"
"0.04960873882524515","0.04344825469969832","-0.006470903864632236","0.06304438783807373","-0.11677223832033234","-0.45346059010780965","0.004871340947375468","-0.5017078224508744","0.499955900622679"
"0.021432793860623786","0.051461959505981564","-0.021649268139400445","0.00984265242366028","-0.21284396870480551","-0.6050680088154985","0.07511604469021226","-0.41408214396192433","0.4668604207808998"
"0.0048520821248479356","0.05208622866846715","-0.05599028116915059","-0.03518687929095282","-0.19697640922971563","-0.686538491383405","0.13070437629154474","-0.33437206425246374","0.4129760765644328"
"-0.009631609103377847","0.05024873757289812","-0.026548046279078533","-0.015074077409263805","-0.16650973771872107","-0.6781657429514932","0.14856508834991777","-0.2614562068287318","0.3664299399770811"
"-0.013723591269166564","0.06401589810465161","-0.024740950633118024","0.015522104860616857","-0.19476978934494446","-0.65986704058146","0.14706044178025737","-0.18400339203788904","0.30904809813782846"
"-0.014484218542336672","0.0798636096055542","-0.044945312581039946","0.053773109195564266","-0.16958991102859144","-0.5891476523768489","0.14249077442054892","-0.11257830571762764","0.24949257786946144"
"-0.011720927056262912","0.09615900830950386","-0.08298106173721678","0.13034828683501576","-0.1402983483716345","-0.4423940008760654","0.1262183004079281","-0.040318123726130084","0.17666617877071186"
"0.00146199525290863","0.11628000322881857","-0.1038401086220181","0.10793547616028881","-0.10781652074027409","-0.2247413717840153","0.1113947453142395","0.009390517342601531","0.13057765869475274"
"0.01157256107007269","0.10296780092197136","-0.12444925999463517","0.025492339712312392","0.024097226340872607","-0.013830139965636059","0.1084690436510115","0.02908584637243495","0.1143322725403189"
"0.012186839804607547","0.09757062526760356","-0.11294580542549228","0.006718241148630585","0.14244097911979314","0.15915763791175022","0.10334209978402156","0.02131008983804966","0.1365430167896907"
"0.004062570271683989","0.06315376265562826","-0.06332399161350004","-0.04934218665136992","0.1364625230762374","0.24999589118898397","0.1035650103869344","-0.004717718215375483","0.1828113147808397"
"-2.2672158772821095e-05","0.048946185942686946","-0.05479863066890006","-0.05329716200582775","0.17488690729532755","0.24887952473139574","0.10395510394203124","-0.0465358265674192","0.23981725734287712"
"-0.0020349645650077357","0.04785241651157661","-0.057516502520424666","-0.029342026472814198","0.2039391402467779","0.3030475667604596","0.09899534302722564","-0.08131432907157012","0.2960387144568131"
"-0.01032483902322912","0.06620966927132306","-0.0608580805263265","-0.0009798083734505595","0.12142783097631066","0.3965796608375258","0.10192104469045364","-0.1120413642670856","0.3346419358821377"
"0.00470188230888017","0.08386267162813238","-0.0525020702594051","-0.0023989012830101593","0.07685028002864493","0.46164441024609215","0.1125928898048949","-0.16576585244994493","0.36902854802391716"
"0.017997454480027517","0.08702556613689875","-0.047287308538204766","-0.01622360043098305","0.06476173660350484","0.5138224077203247","0.12298609666569543","-0.2232106720591644","0.4031863519100003"
"0.01720312853019795","0.06875348820464616","-0.06587664329167969","-0.03529855824448668","0.06990971856895253","0.5809985458638949","0.12619043658256418","-0.30644319322549785","0.4325064955327914"
"0.015598108701875644","0.06008435271362347","-0.059108811941036725","-0.0348248854415672","0.11374056083543754","0.5709997854176699","0.10097367462807533","-0.3851638230875221","0.45394909778089704"
"0.032430116283597585","0.0561372265614684","-0.07417895700226398","-0.07343980912509909","0.10159218498392078","0.48584043977251534","0.06906959458620766","-0.45441211974342394","0.47732022675558566"
"0.05068709647834711","0.044673941241683314","-0.06840864244819123","-0.08827192945391536","0.12474254739757752","0.3837899842473302","0.021143814959996274","-0.5242804716370524","0.4856553846416634"
