"AccX","AccY","AccZ","GyroX","GyroY","GyroZ","MagX","MagY","MagZ"
"0.020509450120155225","-0.05927362597532043","0.013462290473787268","-0.0634358780374235","-0.008761306246955244","0.42215901401791706","0.06870736485647477","0.33101316915143425","-0.6992608543750432"
"0.01098042718019973","-0.06387306665998954","0.008926604317556394","-0.07399050189597295","-0.024568315306551916","0.45865934341384534","0.09155570165501738","0.28871748633969474","-0.7093284176256781"
"0.0037698731944134705","-0.06431140540636045","0.014063072329112884","-0.0462325054452115","-0.021542230510126038","0.466061338404376","0.1081068139212786","0.24247719680284288","-0.7291693620839103"
"-0.0018616570850449304","-0.06708374216954516","0.01862707309255075","-0.01441555668325379","0.02071071100795373","0.4390015862258786","0.1247415176636323","0.1989941741741798","-0.7475557397737875"
"0.003238396922527492","-0.08692636082339206","0.035675936254800596","0.016381840252907714","0.008137764258868205","0.3778926570909402","0.14343814448292755","0.14347944140069255","-0.7788207535699968"
"0.008131444773477665","-0.0910407204783095","0.02318074759515456","-0.03816755205078764","-0.008504984132357637","0.19520899384103976","0.16113167358911595","0.10383548418008201","-0.7998711130940519"
"0.01482111350004235","-0.09194024975403747","-0.014226751851878067","-0.08542411613880187","-0.010082406221351864","-0.009831363852227078","0.17442271828778055","0.09700168390045595","-0.8044472782079768"
"0.019869175263625936","-0.09000927409170686","-0.023753760097381883","-0.08903250163746496","-0.016197040867340865","-0.0974950106877844","0.17369825882831447","0.1267247573174395","-0.7919445413788604"
"0.013688837964285291","-0.07499773010461606","-0.026521198000909983","-0.0060416569423728875","0.04875775919627621","-0.1499763686124486","0.16935150207151853","0.15481194031999518","-0.7701587267472101"
"0.010701209573592971","-0.04969665146930207","-0.02093882139401711","0.07741727660796198","0.05785468130258337","-0.14207928936681358","0.1727230249405719","0.16159296994109132","-0.7447119800244199"
"0.013027381082427212","-0.04291071063982074","-0.003847000986697573","0.07012156014348257","0.06370629260222058","-0.14487748616159452","0.172834480242028","0.16390168625177579","-0.7255084299927702"
"0.009563157121837149","-0.04436699244648427","-0.004288964950395343","0.024358220684184032","0.06501781938839694","-0.166496165301151","0.17105119541872718","0.1810389576093708","-0.6975774793509922"
"0.008679288974026778","-0.0587324542055118","0.004859276047715149","0.004464251786445419","0.03720292101441589","-0.17531546031609802","0.17119051454554784","0.20395461607599336","-0.6766742108484562"
"0.011404067686775507","-0.06852132706285637","0.0036713430013648797","0.02886773980791345","0.02163931026531947","-0.19183768388840386","0.16695521309020803","0.2208148414763062","-0.65961165235225"
"0.013066856675085402","-0.0669871414505582","0.008985525961875542","0.042974909688359056","0.014392406782578583","-0.2165797622256039","0.1639180561255236","0.24012890249826088","-0.6471252589699688"
"0.014792228920048545","-0.06861065675998408","0.0007079126672063214","0.036198115257972334","0.008750448304965188","-0.24841319445209273","0.15653414240404356","0.26289944165392604","-0.6360934323560425"
"0.012410213889892965","-0.07194805579337205","0.007700856504031798","0.04728128864660877","0.004656953021979716","-0.2763708935638676","0.14547220373450515","0.2936515429122432","-0.6290003764294587"
"0.018337329704621274","-0.06391461535632802","0.011353027783300492","0.054984248191647024","-0.030872977738713187","-0.2953976610149366","0.12836381496096244","0.32163318459773904","-0.6264998290636353"
"0.021657130765242318","-0.07065693005465395","0.04136983647870132","0.046585220686221","-0.09683128725751958","-0.30568764749357596","0.10877554573001648","0.3474248439542428","-0.6354723813762955"
"0.029290362438271232","-0.07704919698632824","0.0366734530513708","0.0396351313279369","-0.09196092775045957","-0.33510147676742247","0.07124297296460562","0.3801030742489025","-0.6505573828054128"
"0.03209986925233511","-0.07673758176378968","0.027828804121781674","0.025517371201897572","-0.11258875506807638","-0.32993221469206824","0.03150915799543254","0.41399502968975055","-0.6680939012598467"
"0.03432879600852354","-0.080937116246201","0.026961398211720628","-0.009751034874016158","-0.09044597071460257","-0.3423093210696769","-0.01956523389691938","0.4576891349525333","-0.6795833443851655"
"0.040093195355953425","-0.07993163779480991","0.011747057244206556","0.005320425005218386","-0.11841404010010786","-0.3520896619915912","-0.06916284304497547","0.5015283595262733","-0.688016562952256"
"0.04702645737379919","-0.0746154820983021","0.013415409249600637","0.03191580503970836","-0.12274830106683299","-0.32141385324394933","-0.12243847714108931","0.5368978934059595","-0.7010749769737776"
"0.05914738995853191","-0.07016873287267687","0.009404193881131673","0.03397897743128653","-0.08108817922929316","-0.2729975253550684","-0.1717853118608688","0.5626367821039333","-0.7233837819041622"
"0.06470478314933954","-0.06982076254084216","0.016395981176743735","0.024194553252280954","-0.051078627455816296","-0.22451324472529074","-0.22068632537482288","0.5843651007536322","-0.7429795746598624"
"0.0722138111283951","-0.06700479964650205","0.025940544065665448","0.0320977647140006","-0.0303687100492107","-0.15514320380419935","-0.26618795219435953","0.5990221511603205","-0.7636376914598668"
"0.0769065925580549","-0.0626785416402584","0.023356707079766944","0.025539514442684454","-0.006992420393555709","-0.0759806875431764","-0.28421584720491705","0.6035076571353647","-0.7736071940294892"
"0.07821024993510853","-0.061458048685315715","0.03174163087702371","0.021797306749700627","0.020447448331896434","0.011139580053567867","-0.28326847714253844","0.6037055471048519","-0.7779218639940472"
"0.0748914116938206","-0.06393331226968033","0.036853129989883444","-0.0049353613776680445","0.02721569240362405","0.10314759122766586","-0.2724015852505486","0.5964627742216189","-0.7753886297345529"
"0.06847036956119827","-0.06592453354170172","0.039849810883927674","-0.016268849662156252","0.047544357589357565","0.17850232711487155","-0.2451229002191179","0.5831777609367088","-0.7641770252054366"
"0.06406739675080962","-0.06479025413166137","0.02534864279465713","-0.037140298228195985","0.08070348828730174","0.2245597241411965","-0.19418782745358618","0.5599190931896418","-0.7494842665003704"
"0.05224012406268057","-0.06598270171657558","0.031702391085854285","-0.07257814823360936","0.04976533725645914","0.27695856802334323","-0.15183481290019007","0.5446815655391243","-0.7215042855180859"
"0.04444513874168635","-0.07216722516655749","0.04079776162849439","-0.07817364890549566","0.04511994767257537","0.344668620559673","-0.10822792620541037","0.5291010286081621","-0.692625414959852"
"0.035213626975667024","-0.07055929061825854","0.03538060519494648","-0.04970899424875268","-0.023990573397458904","0.40031706158684294","-0.06002350832555824","0.4975177894779986","-0.6778019086801019"
"0.028506627501106056","-0.06662151292277962","0.021581416317175337","-0.02705838442296659","-0.058789830567240055","0.44829655042710237","-0.013212281713910104","0.4511323806301894","-0.6804005167269379"
"0.019208681201100985","-0.06081612132688628","0.01217262310569984","-0.026191909783479725","-0.07311610673886718","0.4785840577981918","0.017019968806112864","0.4000503831732163","-0.6922985460231429"
"0.01329023076037082","-0.061470513294217266","0.003777496962739017","-0.05055910214504924","-0.06925093199493504","0.48761206480303576","0.04251536901424274","0.3496939822710298","-0.7125153897585902"
"0.015589443327877506","-0.06386683435553878","-0.007569411492159544","-0.06027998485049244","-0.05856007404995367","0.4907912823235588","0.05800765591666956","0.30746426278245265","-0.7370142165649246"
"0.007552790354268483","-0.08220642891934138","-0.01289672945645113","-0.04193671673255551","0.02191214612959704","0.4921988748135614","0.07687146568814912","0.25983874345919006","-0.7561197059155615"
"0.002274614770067616","-0.09547915996466701","0.004430116647451612","0.0017311982235839582","0.07172144443963777","0.4093693374277214","0.10849690747637575","0.21260900407490194","-0.7739340629661983"
"0.00992228873309343","-0.10318021083100326","0.04015133770028223","0.040406293757080214","0.0989451984410174","0.2775410200881719","0.13917497920222377","0.16535287936134893","-0.7874174066054416"
"0.010743573624250553","-0.08299793158458932","0.031033249383807193","0.031370888766431064","0.04109681532300884","0.1353717517143105","0.16185613304858207","0.1290994369512864","-0.791568642101645"
"0.012988868309102147","-0.0697729815400529","0.0046477942258335994","-0.04935277689696364","-0.012047303103561332","-0.01730883492282513","0.17171992722746507","0.11595954297733359","-0.7893459333320242"
"0.014860589092700558","-0.06836136458195324","-0.008854204865133298","-0.08761244597830592","8.212822218851356e-06","-0.10394081353855472","0.16873849791350884","0.13974591730969996","-0.7726429306661978"
"0.011827708193351284","-0.06770593389721381","-0.02006935023178925","-0.0003507477851830946","0.03203818596958273","-0.1312311196593801","0.17002023388025642","0.16578823729422085","-0.7507100250130289"
"0.011842150483348168","-0.05917390910410808","-0.018326277402999913","0.061178579114378684","0.042468174535561856","-0.13133062188712166","0.1692400467700624","0.1793239112071481","-0.7272244919104921"
"0.012280233279920847","-0.055762761134719334","-0.01782855163079822","0.044511458049049095","0.05150047762138223","-0.16497936304899308","0.17113478689481965","0.18701523468788553","-0.7104724589041594"
"0.014435022947458532","-0.06268996753175149","-0.011616273113027686","0.00893506837627776","0.052015036488221505","-0.20735517764888028","0.172360795210839","0.1986907428876327","-0.6921187681079531"
"0.008929622000639749","-0.07810349515591702","-0.011899212659880927","0.025595353919451388","0.04172385915143622","-0.23818388006353966","0.16898927234178562","0.22900748621307795","-0.6651684242763019"
"0.016458869185690974","-0.06271905161918842","-0.0010516821789175147","0.07161189652339998","0.03378529281978117","-0.23510901853796512","0.16149390331884916","0.24828196924113521","-0.6497402104636403"
"0.020505598842822718","-0.05769685294927532","-0.0005694457979669076","0.05858396894391523","0.016490370981049742","-0.22378032587704802","0.1500418710942136","0.2757227116766992","-0.6406205671294611"
"0.016101663213100942","-0.06296626636240234","0.00819135389364965","0.035451021568814765","0.015571823571315278","-0.23873235575791998","0.14001089396314598","0.29745103032639825","-0.6304876300914843"
"0.01760654983077806","-0.07167902798458042","0.01683918429174159","0.030096208296785942","0.000908810504040316","-0.28204980119594686","0.1324040696387534","0.3188891103541827","-0.6274477489800913"
"0.020053073756253148","-0.07838394885620173","0.02753781009147786","0.04506022532072411","-0.016651527978097963","-0.30775049855651077","0.11365171516872993","0.35031403750875645","-0.6224629976952801"
"0.028709782380395798","-0.07523559639115383","0.02154258957643927","0.04616738736006844","-0.050181141060166405","-0.3089639403582371","0.09289316527249314","0.3769500274017391","-0.6288696288547753"
"0.03159342628311043","-0.07907054106319503","0.03180978419852851","0.03144694598478602","-0.07729480339701301","-0.3266316529913726","0.053103622652591845","0.4184013796769998","-0.6364203012927514"
"0.030063506362772018","-0.08563835123689936","0.020918676896845362","0.028266021308269794","-0.09839889682858803","-0.35177416712314236","0.006766081072132702","0.45571023525766086","-0.6498219276978175"
"0.03750513698850871","-0.07752908442903761","0.020923220451612348","0.02641369107896676","-0.14089906593245616","-0.3393970607455337","-0.03606061851245271","0.4857895106197215","-0.6692869728788343"
"0.04616473407065074","-0.0743132153324397","0.020945731700230598","0.02422151024106499","-0.13464059413345766","-0.3333055829008675","-0.09326505198490138","0.5203147139629287","-0.6902065848282058"
"0.048253089204202675","-0.07665448437111273","0.022243329636638585","0.008453308476723063","-0.12957637756493728","-0.3081630687690977","-0.1508038513617193","0.555525935867025","-0.707890194304159"
"0.0594603062417981","-0.06956731549317746","0.06341846861158636","0.048169906526882536","-0.16760826106699653","-0.22845693058090136","-0.22528385655989544","0.5843387154243674","-0.7413288865294825"
"0.07824972552776674","-0.03623902872527021","0.03064415587557981","0.02509568687734729","-0.10950858175820599","-0.18141664569517804","-0.27680406965807275","0.597993123318987","-0.7748492959889832"
"0.08419513490982444","-0.056016208182384036","0.008536374920637265","-0.04014503972801656","-0.06382293427404456","-0.08614690295803969","-0.3084573752716636","0.6143388347986329","-0.7788534404636676"
"0.07833926772574752","-0.06951537962275436","0.024143361630105636","-0.03402965427243814","-0.08187796725746507","0.04613766849895895","-0.32590012994957523","0.6265156642544145","-0.7707961211737925"
"0.0802138769673453","-0.06374322698393181","0.001253345764461375","-0.013015718765682784","-0.017828312140074083","0.1497995747368367","-0.3164542931511535","0.6187583774505148","-0.7708778384079696"
"0.07371292083007346","-0.06976051693115137","5.9836537260713695e-05","-0.04221013761879359","0.06016421296072239","0.19975697371391007","-0.2763303846268834","0.6044575289889035","-0.7548612605092321"
"0.061288700155405815","-0.08117602125014721","-0.003228664487954055","-0.058902290173708335","0.04904256154582911","0.2471321685369098","-0.23734889294254038","0.593731892642695","-0.7292183924244166"
"0.05582084916257897","-0.07682898889573432","0.01156221717527688","-0.03548918266517379","0.09993123682770476","0.3125852193220286","-0.1926831808839261","0.5740616296756633","-0.7106195499256786"
"0.047836188432958796","-0.06891084609102956","0.032452077622407045","-0.015096220650050693","0.03821767896576403","0.3786449910080105","-0.12820628899145317","0.5389163710947293","-0.6964824684130172"
"0.03976198550535782","-0.06294653073164155","0.017689035558384733","-0.010538564046349777","0.03457986744206319","0.43749691839173793","-0.07091826404291234","0.49234626494206535","-0.6891279173370664"
"0.025993669041645226","-0.06352925119778867","0.03539299670794735","-0.006519662118489808","0.03194006079032501","0.49227168132166493","-0.004797406453958967","0.4388763951866129","-0.6808254463446595"
"0.013594481669638867","-0.06067797191156086","0.038044780490133975","-0.013817689182007853","-0.01699424811638346","0.5110072227403196","0.0295029625692192","0.3799975329318426","-0.6915957778092188"
"0.004366821180952053","-0.05159127202233651","0.015541379830116922","-0.02065706233635751","-0.028310235252148146","0.5233600602818937","0.06280023387929054","0.3209999366953799","-0.7103907416699822"
"-0.0005002305480036903","-0.07109838495325024","0.0029175259604784943","-0.05541328562537455","-0.0020387741489793923","0.4996736763121956","0.08737612785040576","0.2692319206775178","-0.7262765719940363"
"-0.006367651564078144","-0.09313892964340247","0.022335439883278404","-0.0565339261591109","-0.002590429120172184","0.4286387932391357","0.1096671881416669","0.228215926335129","-0.7463463247079646"
"0.012371701116567898","-0.09818605753111861","0.014810280563065471","0.002109847641039718","-0.004357161006222159","0.3200600208206628","0.12111922036630246","0.18617090415140658","-0.7763202062041734"
"0.020455532237500126","-0.092184348345026","0.015938114771361513","0.019746650102915042","0.024480153869683222","0.21249811263203663","0.13719664760137437","0.1479517547111042","-0.7952459176396206"
"0.015858069921819876","-0.07490112938562911","-0.003575833377195154","-0.033464520257572815","0.021268349221784187","0.07498846077680442","0.15893043138535404","0.12987780416460287","-0.7998384262003808"
"0.015847478909155475","-0.08071171456856475","-0.008544623565328178","-0.038868433759172566","0.026009470687870614","-0.04962230472607687","0.1623576819051356","0.13917863273050318","-0.7880874879256949"
"0.016856513570272322","-0.08063796563256397","-0.00912475289898567","-0.0020630942227290276","0.05232137851126999","-0.10148723421546406","0.1681533575808631","0.15242406802151584","-0.7683609475953109"
"0.00966617879048171","-0.06803936218533006","-0.004380662146601797","0.04965446640920336","0.05627749854329465","-0.15483013581935395","0.17029887213389744","0.16317608969698924","-0.7399887238889757"
"0.00962670319782352","-0.04904122078456264","0.002508399506233035","0.03815827344241151","0.0340174426341226","-0.18960980474043432","0.16634220893219837","0.17515502918328357","-0.718693212662389"
"0.01199620157664845","-0.05533584827984151","0.0013262491659498396","-0.008833630780719455","0.029096823888906196","-0.20934764908731493","0.1663143451068344","0.19632925591841832","-0.6966622463282073"
"0.014290600047489513","-0.060134722706935304","-0.012347372380079135","0.011487221289406352","0.04361456382493863","-0.2003997292413849","0.16436387733134897","0.22200218129322966","-0.6739121683332656"
"0.012261939712591447","-0.06758128780819839","-0.007678456806567218","0.03028779546707248","0.027498101456121877","-0.21113140853585263","0.16294282223778103","0.2426750867723301","-0.6540712238750335"
"0.014416729380129115","-0.07317789720499089","-0.008556188977462322","0.04166845848193274","0.02630863281975391","-0.24283136216415158","0.15260534302770873","0.27268839881122825","-0.6384959190408531"
"0.01514076951864044","-0.07366297823474258","0.00041609253603578565","0.05422848975609459","0.025322594433066573","-0.2863939228461272","0.14040098751824343","0.2985724068201593","-0.6298012053243957"
"0.017005750566906962","-0.0792512778922674","-0.0037119334949880655","0.06135283679187548","-0.014782123648385641","-0.3104200705203087","0.12775081080295247","0.3215408359453117","-0.6253557877851541"
"0.018897690556501038","-0.08183249065229511","0.04679525392091647","0.11148802218218495","-0.08254809043288364","-0.2879471283523369","0.10565479728924021","0.3442717971070794","-0.6431864882826264"
"0.030596908273324237","-0.06563577010214933","0.024471117148978705","0.07330344756959822","-0.08197609243672278","-0.3558998692490119","0.07542254676921724","0.36474681261669256","-0.6676035978547833"
"0.030436117444692067","-0.07345107988341636","0.01269752759641678","0.02448722913050763","-0.06788435937649216","-0.3691021160517945","0.03318098751727725","0.4076097800076289","-0.6793381926826338"
"0.033318798528073575","-0.0772081207498229","0.02296472221850602","0.023665040972594538","-0.08083448974145613","-0.3501238862727945","-0.010370171526774252","0.4459476634296236","-0.6879675326117497"
"0.039089937610835346","-0.0788015132544034","0.03026249727515295","0.025135159610923916","-0.06911690735985133","-0.36305917587919734","-0.05247241165189357","0.4818844818885066","-0.7001924308446635"
"0.04920820598266441","-0.06598062428175866","0.035017120813587564","0.06293559713333816","-0.10287914891567222","-0.30658559442685346","-0.10585950104946383","0.5139954276039694","-0.7179414141079586"
"0.06132817574806401","-0.062465604571523725","0.03100227060130501","0.04080102109284645","-0.06860952838417725","-0.2519079068410646","-0.15175122142409778","0.533903158534386","-0.746329981261129"
"0.06565797428913503","-0.06312207397367162","0.03917860392971377","0.02273695035874416","-0.05915839831372026","-0.1876901398101032","-0.20101446466778491","0.5533887241965628","-0.7663180167408802"
"0.07229853922971026","-0.06021054907775302","0.041285161139862026","0.03237311109943754","-0.054962948576188976","-0.11975196021504893","-0.22868324325431277","0.5658294069449941","-0.7807492802965794"
"0.07734274971596132","-0.06131262824813106","0.035444628012117646","0.015492259623034531","-0.027089414424358804","-0.025564607565050454","-0.24384116425237018","0.5689560684628925","-0.791715733123164"
"0.0777163236172145","-0.05465237222507361","0.04151233887821135","0.0009026559183146282","-0.003775829151546544","0.07433077532026873","-0.23902072246438494","0.5637977365915916","-0.7958342817256965"
"0.07496843724047075","-0.05780695699457228","0.03414351914702608","-0.0408882824187764","0.02552841797980228","0.16306249362970557","-0.22520026508380328","0.5558425598182046","-0.787613527967467"
"0.06406065701547774","-0.06791159994408925","0.03153510566034251","-0.0681803080634138","0.047805226968359794","0.23419687893050706","-0.18713827963647475","0.5409612341127642","-0.7644712072484746"
"0.05403193084162946","-0.06862416008629409","0.024378593851905526","-0.06405011228185975","0.030429890348578147","0.3030961044325286","-0.14712582641366126","0.5271221289132897","-0.7404626838472039"
"0.04560244758010472","-0.06533869692332923","0.03303860923778166","-0.053492600174511996","0.012390653125721096","0.369083069610407","-0.10268302495795933","0.5055125442452831","-0.7181211920231484"
"0.03637189863341851","-0.06185795488757353","0.02161487340227769","-0.037014178030670676","-0.009418026958865447","0.43587090637742465","-0.05208231809679642","0.46633033028680954","-0.7065336882168168"
"0.02664260927217266","-0.05871583472697641","0.027913479460620966","-0.049129418989895916","0.004751727585360343","0.49234448782976853","0.0017505925065988835","0.4179792144087603","-0.6977082269256758"
"0.011849853038013199","-0.0620438853036882","0.021187985779397647","-0.05858169455709819","-0.022442349532536487","0.5147688923256714","0.04053703741339335","0.3623457476535807","-0.6985090558206126"
"0.008529089158059012","-0.06091999306773247","0.00950210748636023","-0.06837767173129693","-0.023410198861605315","0.5122449333780805","0.0694039604905766","0.3143640263852411","-0.7089852052421338"
"0.005482728788045961","-0.07129781869567492","0.0068675272547231506","-0.06392976858193102","-0.004759474241178811","0.49787778244564057","0.08400460498135238","0.273255683390425","-0.7227137005839088"
"-0.003758411171304647","-0.08057564258805626","0.014814204542182411","-0.049309453164989296","-0.005134025230296694","0.4908883576676969","0.11064242202940977","0.22460113622582878","-0.7392696122282163"
"-0.0047886278577502685","-0.09914790985135431","0.033191437898125745","-0.00457529302748128","-0.03601282249417366","0.38551307160578163","0.12577247920210308","0.17634236900020694","-0.770779777726957"
"0.016270156596398126","-0.09121522500293108","0.006842950753938088","0.006367704019478177","0.016553793353008998","0.2279379461172026","0.14045671516897132","0.13221290580455233","-0.7991520014332921"
"0.017861696954056653","-0.08288990497410928","-0.011106155827825115","-0.07454600841484399","0.018370066488098847","0.05676741868208168","0.15684064448304824","0.12291207723865201","-0.7973378788345576"
"0.01596783132579633","-0.0928761341390616","-0.019096616461220794","-0.04982644969988313","0.03794723639854154","-0.09117055201718673","0.1638623284747957","0.13309681433492868","-0.7861753046459476"
"0.013959390196893911","-0.08634987266169573","-0.017900835456636635","0.04935505128378068","0.0766253101054687","-0.1551650457566304","0.16765180872431018","0.14858500261346333","-0.7643894900142973"
"0.011055527088183612","-0.05594245924638324","-0.004573969749415402","0.07579408078332325","0.0648502885945423","-0.16659566752889254","0.17160847192600895","0.15122353553995987","-0.7409856741459382"
"0.011364592094117299","-0.04384763374225334","0.00043922336030407925","0.02816204435153137","0.051493297730217026","-0.20064969825254053","0.1678189916764945","0.17873024129868637","-0.7090015486889693"
"0.009247352380571573","-0.05965899013385977","-0.003733825167956274","-0.02099017369776024","0.03244025987483388","-0.2092165973727285","0.168348404358412","0.20733193822190885","-0.6808581332383303"
"0.007792532368217051","-0.06975532334410905","0.005725236281259426","0.011495886035801222","0.018961210860700236","-0.21211429639525098","0.16951868502370315","0.2228201265004436","-0.6621448866117442"
"0.0112529050514746","-0.07047099963853927","0.005538124434946257","0.052714084636191434","0.02577492757647411","-0.2323375174628222","0.15982207379700444","0.24450886715624512","-0.6461609956066775"
"0.012989831128435271","-0.06667448751061118","0.004078610728660208","0.05228373556524629","-0.00011456331670605193","-0.2711773626524789","0.1553638617387524","0.26730579164117524","-0.6355050682699664"
"0.01860691911789676","-0.06963690955954441","-0.004528121151312173","0.033029706326248694","-0.0055882730113482855","-0.3088911338501335","0.13477249479469994","0.3066727029045037","-0.6257480305092048"
"0.021060182778703727","-0.07184106790030047","0.006811971971435907","0.03125247056570119","0.00018148752900565518","-0.31852586175584063","0.11755265071970052","0.34485227435090865","-0.618949156625659"
"0.023993893286740956","-0.08113031768417489","-0.014577844720236112","0.03990662671497612","0.021919326020762235","-0.35051218764934694","0.09905107067795384","0.3698919518233608","-0.6163995789193295"
"0.025811696187684266","-0.08182833578266126","0.02421068885074371","0.06351035864419778","-0.016961938606140065","-0.3944145120358059","0.06834513512674156","0.41031427625728784","-0.6166120437281902"
