"AccX","AccY","AccZ","GyroX","GyroY","GyroZ","MagX","MagY","MagZ"
"0.007142629318356484","0.06143364662721543","-0.07004845266863996","0.04283916199483945","-0.08490309473506892","-0.4706429260202546","-0.07278514034230532","-0.28574390241713243","0.6207503161834641"
"-0.0003923947826935056","0.0773312165637242","-0.05057312473560268","0.023796937667716424","-0.08766256623956041","-0.4339484459360501","-0.04283152807592308","-0.2396487321912379","0.5811174576075063"
"-0.0012454527118438065","0.07824009429612833","-0.039765660146675416","0.0028236301940570098","-0.07529640035603262","-0.32486002796085217","-0.015608570695220595","-0.20353908982566943","0.5474499571264865"
"0.001151967427641819","0.08412650584988168","-0.05563505779645892","-0.006231607438340397","-0.04024895828164109","-0.1834746429909059","0.0034224220284435926","-0.17919466577934906","0.5232453123631902"
"0.007935029629519804","0.07631638965565696","-0.06973659959145134","0.046733484124533195","0.016894598853650446","-0.013080232932169181","0.00930168918026387","-0.16290700202408595","0.5158580743935685"
"0.009248315199904699","0.07080599380376679","-0.0769505254101257","0.004835391757025627","0.05667717915149074","0.09808996579807046","-0.0008128794268959247","-0.16245845142658152","0.5310084496100274"
"0.010773421023577482","0.05343448386465065","-0.0742140662890998","-0.08176663041056788","0.07125475151389983","0.10259183488247517","-0.015134885664030977","-0.18203240794179612","0.5533989717745891"
"0.01249590481054125","0.040805757612571346","-0.06667383062806913","-0.06229501976209912","0.08528665214775379","0.10113813160400703","-0.039655051984418294","-0.20496257833951428","0.5768191310897839"
"0.0124044369738942","0.0480975538199736","-0.052128259617212125","-0.0073588909443128075","0.12750919879323422","0.17130176346342743","-0.07247863826330032","-0.22206291023613842","0.6051259810087772"
"0.006669885025791254","0.05928869517874169","-0.051159656350977294","0.01931822653116876","0.13259016844114005","0.23114628624096703","-0.12402671518684186","-0.23923975958763088","0.6402153613644808"
"0.0018124614901667729","0.06752468551043578","-0.05045747061426121","-0.019654840003351035","0.09485984036801917","0.238839507263912","-0.16367693867992247","-0.2541606632869689","0.6704670814568923"
"0.008451100792075738","0.06287850254238588","-0.05047192737942889","-0.032044464598413785","0.07736005230137406","0.28601084386422176","-0.19767080562409564","-0.28426632397829443","0.6979240721404423"
"0.013255569264378252","0.06308209115444441","-0.063280621317997","-0.022384235117734665","0.057072073165576685","0.33726662556914233","-0.21692470895067267","-0.31321103018196145","0.7172093394062692"
"0.015366069242592106","0.07321374075658138","-0.06104188796917277","-0.009119471136790177","0.05176374029743953","0.3734514600966218","-0.23570492724606007","-0.3388311848982429","0.7332912910923487"
"0.01668609454830889","0.07801780877071748","-0.08330943683173987","-0.041841404522211946","0.06702100902348747","0.39026976346854886","-0.26178546778683554","-0.3762719671252288","0.7496183944809597"
"0.015960128771131316","0.08065199611857676","-0.07776836526818326","-0.06425228969774002","0.06164805713486352","0.4264303291599938","-0.28733659564569364","-0.4246626609971754","0.7576266834303285"
"0.026609873414846347","0.08022300582888202","-0.07436482969727706","-0.09521816781380174","0.030250393069448177","0.4611104958533326","-0.3224450156044299","-0.4830270093312789","0.7559759952999484"
"0.03760815865715327","0.06964470774110644","-0.05961066821757205","-0.09096666558271951","0.010926912646842521","0.44336997671209344","-0.3620952390975107","-0.547908533993829","0.7413486103822238"
"0.045233687775517166","0.07067615412770906","-0.0530865366226129","-0.08933191676288763","0.014173420102040018","0.3915560117783788","-0.39628415281923224","-0.6030011014990767","0.73242508841007"
"0.054353512498893794","0.06157387347735778","-0.040277842684044794","-0.08873212376244284","-0.006622895328253465","0.3204968598692843","-0.4314204366033326","-0.6561807326326146","0.7108190516936097"
"0.06374774073221154","0.054348555184097085","-0.030405937326683376","-0.0688927427669919","0.025167030124487264","0.2262415544783892","-0.4591728066659528","-0.6967481763774989","0.6908637031075294"
"0.06975284491292312","0.05191172414384555","-0.007982255400305265","-0.05018170430207274","0.005166725294708847","0.09590091678775614","-0.4880118659177718","-0.7248089740507896","0.6721504564809433"
"0.07686615414606358","0.054348555184097085","-0.0038071416198781015","-0.010119767970597791","0.011210997007278898","-0.015183612951281615","-0.49327812891158224","-0.7373420054516481","0.6621646104644855"
"0.07080905772136317","0.06006461708286269","0.006921223811060262","0.021914762200831064","0.001020577476511913","-0.11200534775282797","-0.4902688357722619","-0.7296638746355433","0.6650083702138532"
"0.062290995081190764","0.06549191554207592","0.002358668724139163","0.05391174513788217","-0.008716551592025501","-0.19191291728011087","-0.46803350313172914","-0.7088854278393829","0.6792925427480334"
"0.053860549000332894","0.06618266261870306","-0.009937842677059558","0.07043637926249613","-0.05464224677081008","-0.26462477692315667","-0.4376062058341576","-0.6738457105755088","0.6911742285974032"
"0.047732203944981094","0.06680173819414632","-0.020585663273492254","0.0620017300218912","-0.0958763617325481","-0.33085443046138024","-0.386002401259888","-0.6239246676061942","0.6993132651214553"
"0.043496761698556506","0.06375933490476153","-0.02726881928529593","0.06768965465532276","-0.10473156083629358","-0.39390486647908085","-0.33122212059411393","-0.5795841217764199","0.7011273877201899"
"0.0333592369400649","0.060778215942476","-0.037927585718212725","0.07997915329204482","-0.11942879805145598","-0.43834110525829945","-0.28112296258950453","-0.5333438322395679","0.6972213039265183"
"0.016624474110988767","0.0679027786471159","-0.05198988772203572","0.0753666199611764","-0.10321660380043657","-0.45765909874178273","-0.2265098648759148","-0.4738844927409684","0.6925470781315806"
"0.005402814783396439","0.06816765158627368","-0.052782944554091535","0.06355368237617214","-0.14833982647665742","-0.4613964994910999","-0.1712280353535873","-0.421588770137807","0.6778379759796787"
"0.007446880227624547","0.058162725507969026","-0.06971801232195005","0.07341416377353266","-0.1364164205483169","-0.4866603578030423","-0.11341059772312881","-0.35937216373101843","0.6485832061442295"
"0.008951766845301664","0.05686744489961709","-0.08049862863270874","0.10403634028259791","-0.09293499965187156","-0.49792109772306264","-0.06520617984327669","-0.29827693381799103","0.6244275917214395"
"0.0013589735842640678","0.06555943217362593","-0.08022395009452274","0.08738558596045866","-0.07948945679650884","-0.4545284188933288","-0.03982223493660292","-0.24464875208694878","0.5945190840125725"
"-0.0013321064518252176","0.10470765258114498","-0.06802863604949781","0.019712953866934998","-0.0804252359450398","-0.35155574759883157","-0.013240145539274053","-0.20057865588214033","0.5554419026290198"
"0.006848006602419699","0.09004823379552278","-0.0819009348539741","-0.040509921826200466","-0.04783331664914633","-0.23620596992672574","0.010862063400651852","-0.1744637762421408","0.5277234167961027"
"0.009432213692531907","0.07742781728271116","-0.07649203942909344","0.01189542711956461","0.009370790901638382","-0.06217900049034102","0.015654641363273453","-0.15434760121053115","0.511706838897365"
"0.009108706396601319","0.07288031246846513","-0.06332605686566686","0.029949870357672603","0.061652843728973644","0.08144397116198854","0.0008032224442205759","-0.15297292555582648","0.5252392128771148"
"0.007459396878955183","0.05960446527091409","-0.051591294053841004","-0.018117328893061564","0.07577090305681002","0.15043299135733784","-0.017168944915608886","-0.16359038205204854","0.5492150493847148"
"0.005801421987310909","0.04487960728855877","-0.05411090169735166","-0.06643773128844577","0.06413947936918758","0.14984325864169884","-0.03848477131912715","-0.18308254404654173","0.5759202415138344"
"0.007600931320924828","0.04341709317744446","-0.059143921227872535","-0.045567245472005476","0.06362970709645846","0.15240362084334141","-0.058100904375437065","-0.20617102641984975","0.5979675512948517"
"0.011499386800755056","0.05419586372505319","-0.06426781185373313","0.0007262801916990795","0.06979723360736442","0.2214557400123805","-0.08928052495783864","-0.22967507772908094","0.6306381015189092"
"0.011757422382033023","0.05988803512342418","-0.06643839188105256","0.018352588682940617","0.08409479021433076","0.27169223060385095","-0.11438583161087137","-0.24799968890359944","0.6587324866290418"
"0.01005997189773056","0.06961146878403565","-0.06281387432829748","-0.012108808643019865","0.0854852958033243","0.2775410200881719","-0.13600816009339464","-0.26653538271223765","0.6759911664872731"
"0.014375328148804675","0.0694743580861187","-0.06324551203116119","-0.03650392074297286","0.07794401678281027","0.30724607539443266","-0.16281316009363603","-0.29681254804378543","0.6963551012442397"
"0.016025600485783935","0.06964366902369797","-0.06612034304736351","-0.03356657171511238","0.0711925257904681","0.34360079177415387","-0.1895345686177854","-0.33146967803331756","0.7158855202125981"
"0.0167120906703033","0.07603801339018919","-0.06749786624262713","-0.03509830632780528","0.0611023854063084","0.37995550815387497","-0.2238349376409634","-0.370810203967381","0.7347785447543743"
"0.020422796380173813","0.07842498599483454","-0.08407977588996077","-0.06114934773877761","0.06282077269184604","0.38594991065440304","-0.2538164137327096","-0.4153882177605401","0.7469544126467819"
"0.024861393505888157","0.08272839221809203","-0.0835861806220927","-0.09066147395970026","0.055504463594508224","0.4120389093915193","-0.27942326924229577","-0.46624593991876095","0.74724859468982"
"0.032880715731500906","0.07829203016655142","-0.06959616244410813","-0.1120913172934093","0.04854236246132024","0.43380805531448985","-0.31801466737154166","-0.5297686201241651","0.7375896176100711"
"0.04712370212644499","0.06694092632688022","-0.051291832489653265","-0.10645923213674469","0.0367481945739533","0.39597293993666266","-0.36401784304763185","-0.594016896884356","0.720200190177156"
"0.05478678119880084","0.06041466484951434","-0.0439746440626383","-0.091639627552721","0.04731220777501614","0.3260058856491219","-0.4211386850439883","-0.6533706950658957","0.6999343161012024"
"0.05898563631056661","0.05667320474423473","-0.03433404694795983","-0.07517372115367224","0.054951611974787894","0.2326752229111422","-0.4653028482460495","-0.6965502864080116","0.6855520828860093"
"0.06721003905413535","0.05627329854197691","-0.012595202640096578","-0.05987563001873191","0.06634370595690368","0.1333986953447035","-0.49617596674944625","-0.7265504057822773","0.6753537720606909"
"0.07081290899869566","0.05897707995620313","0.0055290373254122845","-0.034968335131882244","0.06763847966369457","0.02014938543138594","-0.523454651780877","-0.7430940072314106","0.6677867561758791"
"0.07294555382157143","0.052102848147002535","0.01896205699400766","0.01406739021587835","0.030118761731419526","-0.07243015683132514","-0.5272719958557553","-0.740402703646384","0.6693884139657529"
"0.0667979523795571","0.05939776050663018","0.019610959224819997","0.06635432096091357","0.022180195399764468","-0.16409112365012937","-0.5266032640470176","-0.7183049903869756","0.6890659239556304"
"0.05387499129032979","0.06700221065397946","0.007570952142739322","0.08066078000844114","-0.02747449592051898","-0.2399919083481119","-0.5139530873317268","-0.6819328139952208","0.7107536779062679"
"0.04492847404691599","0.0697984379175588","-0.006766647974919713","0.09559302629559813","-0.11319665252006324","-0.3005426542542563","-0.47012329003403475","-0.6419458474941657","0.7242860518860177"
"0.03917659135081676","0.06498502144674653","-0.026217605932388612","0.09107773067427213","-0.1742544469889158","-0.3635445525998878","-0.40325010916025134","-0.5915894465919792","0.7261982351657649"
"0.031910193843709134","0.061485582497638525","-0.04418943028798675","0.07920510261410321","-0.17480251201452596","-0.4121793000130795","-0.3282964189308859","-0.5407713024276557","0.7227497678834858"
"0.022392724735751157","0.06373128953473306","-0.05700018947872166","0.09912631732550568","-0.17623370365345561","-0.41836785320188385","-0.2498318867056467","-0.4771298882405592","0.7092827676910777"
"0.014383993522802813","0.0680689734324698","-0.061382654576696755","0.0862293236915434","-0.18748219981226744","-0.4330019613307035","-0.18298656965722757","-0.42024311834529376","0.6914520671936057"
"0.011151809021496286","0.06302911656661284","-0.07979644289599266","0.06949481015425374","-0.17202628743064902","-0.44190862415537485","-0.1283734719436378","-0.37265717701592854","0.6647141881708152"
"0.008274904854113543","0.06024016032489275","-0.09277655276440615","0.09849090258988197","-0.12426565139974508","-0.43258939111811656","-0.0754322037518926","-0.31648281101081716","0.6402807351518226"
"0.010375776638996135","0.07000618139925116","-0.10184920553321132","0.11524274561996138","-0.10832150641889307","-0.4101649866222138","-0.039766507285874705","-0.2581976186645085","0.6110749956568797"
"0.007252390722332934","0.09303662377966751","-0.09459603992336753","0.017128933942065275","-0.09108258773125022","-0.3726939037849044","-0.00716583160990551","-0.20708923587827052","0.5732072293391502"
"0.011856592773345071","0.09505900657394277","-0.08355520183959052","-0.058213924210115994","-0.028919329352662528","-0.30673120744306065","0.009552463608540344","-0.18406407829519844","0.5427267009910425"
"0.008354818858763066","0.07888721524160007","-0.06910463242840686","-0.06917290290042598","0.026428297672507227","-0.17962560559582996","0.00804781703888026","-0.17171310566626816","0.5325774205062301"
"0.00816032935347147","0.06334800281101063","-0.052035323269705586","-0.008279375836327688","0.05202939627055189","-0.031311467938026395","-0.0042958575974054005","-0.16742812819363775","0.539082112346738"
"0.0030660522618978113","0.06291589636909051","-0.04202504601716776","0.005090520400874537","0.06369671941400032","0.06557700616261491","-0.02566741165165218","-0.16935821502936999","0.5567166914821847"
"0.007617299249587979","0.05772542547900659","-0.046777191253002205","-0.02439541903094362","0.06482396232693656","0.13278954756023686","-0.053001824333811086","-0.1880390281489655","0.5858407137429503"
"0.006037312723926962","0.052621168133825","-0.06775395751131182","-0.05965034661246532","0.04831499924108893","0.15533044246910535","-0.06860556653769401","-0.20789003062146225","0.6064824870961193"
"0.008641739020034836","0.0499797097641065","-0.06562055202299501","-0.03439646186982091","0.06402220781348933","0.18626835464592012","-0.08866752079982897","-0.22392307594931848","0.6252774509568827"
"0.01122305765214767","0.05154713433347544","-0.06520337108529899","0.010328070771692812","0.08958262036159788","0.24214249584821115","-0.11391214657968207","-0.2415352832336829","0.6518682389581543"
"0.010286234441015332","0.06673629899741322","-0.0662050183862028","0.005269591826368489","0.07277928173797708","0.2673723777897052","-0.14275120583150105","-0.2597147750972441","0.6762199747429696"
"0.011696764764046042","0.07127237792016616","-0.07142391061173675","-0.04310934574466106","0.04975097747412874","0.2873456298461207","-0.17086580562385426","-0.29710278666570006","0.6965675660531004"
"0.01487503138269746","0.06979324433051648","-0.0655503334493234","-0.049724398242343565","0.07629024851775941","0.3020768133190785","-0.1944386018818628","-0.3306385401614711","0.7118813757379138"
"0.01889095082116915","0.07153101855487316","-0.06863375493437372","-0.05334529948579923","0.07459818749982751","0.3547401875140016","-0.22024050416899751","-0.36319803647443843","0.7290583383619679"
"0.018853400867177208","0.07870336226030232","-0.07113064480404946","-0.059892959511521654","0.07085507090570374","0.39757468311494143","-0.2505006185143846","-0.4083301421821619","0.7369358797366534"
"0.023816734529445636","0.07887682806751545","-0.06936898470575881","-0.07856356249326475","0.0704458171092874","0.4185672262848071","-0.28939851872263517","-0.46218259921195626","0.7437510970670344"
"0.03129687792850739","0.08060525383519598","-0.0611472158296802","-0.09946967004488397","0.05020331061753628","0.4179847742199785","-0.3319187162282159","-0.5257976280697879","0.7382596989303243"
"0.03760334456048764","0.07204726110687872","-0.05388372395900233","-0.09891127527721467","0.03621688262772857","0.4118690275392777","-0.37764325365066503","-0.586826894659653","0.7262472655062712"
"0.04432574914437864","0.0678425330374251","-0.04118861888960889","-0.09029659186151635","0.006181722575762482","0.38250373593750026","-0.42005199585478936","-0.637143717567942","0.7119304060784201"
"0.05767620201751422","0.061173967275099966","-0.02851210108971676","-0.08164051021304256","0.009735050713419484","0.291689751496301","-0.45858766633330705","-0.6848088148851019","0.6936420890695554"
"0.06504658401259954","0.056197472171159196","-0.018266385090162363","-0.06378631889161597","0.0004648539003255096","0.17511682448805505","-0.4892936018845193","-0.7212205692707543","0.6716601530758799"
"0.07466033505387018","0.05028093781256043","-0.0001745695836724503","-0.03480755594877746","0.00546732340482518","0.06891397111736235","-0.5076558627994456","-0.7463789807248987","0.6557906661986613"
"0.07531794065839575","0.05157414098609545","0.015811308288319254","0.0036798996877899196","0.0099159839707825","-0.040031260725231874","-0.512504168412795","-0.7512602666389174","0.650103146699926"
"0.0719875485851103","0.05754676608475115","0.02138831523957841","0.05414473054094419","-0.003108577932594047","-0.1396572595305678","-0.503030467789009","-0.737064959494366","0.6603995182062574"
"0.06194534294059826","0.06299276145731668","0.004208515089952684","0.08717378104858409","-0.012625284342359853","-0.21807229564172728","-0.48519761955600005","-0.7029751140840306","0.6837379602872748"
"0.04773027830631485","0.06734602611618033","-0.01996608762344865","0.10204344861177812","-0.08228961435093647","-0.2986254162075287","-0.44964337839143853","-0.6581728249921195","0.707534018879685"
"0.0406574074851657","0.0665160909068193","-0.04754133455472265","0.0794400135163641","-0.11570004123966261","-0.3952639212970144","-0.3848878482453249","-0.5960089892438609","0.717487178002472"
"0.03635938198208787","0.05959511681423794","-0.06212201485241546","0.06966425408375339","-0.1198835244919186","-0.468774225645596","-0.31455955302639627","-0.5438188079577594","0.7141367714012055"
"0.029035215314992636","0.05838501103337987","-0.05732236881674434","0.07890279923988223","-0.12657757635493913","-0.48916004791459855","-0.2595842255830735","-0.491391158708273","0.7062755734733556"
"0.014018122176214643","0.06977662485198109","-0.059544580148234064","0.06067987482187402","-0.132235330593116","-0.49343136305667523","-0.2082033316117167","-0.4353487193494864","0.6920894616201879"
"-0.006319510597421798","0.0826037461290766","-0.05083954226512143","0.011721169442067806","-0.1377231607403831","-0.48867467119390795","-0.16298034304582065","-0.39030896229419043","0.6672474224303093"
"0.007617299249587979","0.057879155655458946","-0.045692933865425896","0.018327557193355444","-0.12821937813471468","-0.4735309175083633","-0.10962111747361435","-0.34418740673903087","0.6274020990454908"
"0.006387778961185105","0.05742523614796111","-0.05457764868705118","0.08444342318460102","-0.09132909732792205","-0.45377608497625843","-0.06283775468733015","-0.29715555732423","0.592966456563205"
"-0.005144871011007158","0.07809467385894367","-0.0529502299796033","0.13803102863846595","-0.0963526278465063","-0.3620398847657472","-0.025583820175559713","-0.2434218342761279","0.5625186151087683"
"0.0017258077501853617","0.09654125631581786","-0.06803483180599824","0.05917509719796516","-0.11022417757767082","-0.23316023100439265","0.009886829512909286","-0.1942461768585486","0.5264649713897732"
"0.006977987212391816","0.08914974323720325","-0.09893719997800639","0.00341706904714557","-0.04834069562482039","-0.12614437162654327","0.03855870581254396","-0.17113658622182862","0.5018844273492618"
"0.013910286410904442","0.08495851849405964","-0.09212186782752674","0.011839587642797678","0.02452562651372948","0.01568634648463646","0.0388930717169129","-0.15424337915993455","0.5035678023733127"
"0.014439837044124154","0.06840863402503682","-0.07501744938198966","-0.03484991693115237","0.09089175385071917","0.13814082590585003","0.021784682943370205","-0.16406531797881793","0.5234904640657221"
"0.008370223968093091","0.050099162266079605","-0.049207993053339935","-0.06372470291725245","0.08517177388911061","0.15237449824009996","-0.001732385663910592","-0.19078969872483814","0.5488718370011704"
"0.00928779079256289","0.03988857014089952","-0.04465204677335265","-0.06090962308851958","0.11968551072022234","0.12880217779976413","-0.03422160603842337","-0.21453781432977032","0.5785025061138348"
"0.008921919445974737","0.052154784017425626","-0.06204973102657703","-0.02649325040810127","0.12045375907489865","0.1866833517421105","-0.06682228171439288","-0.2339099230761079","0.608966691015107"
"0.008029385924166228","0.05822816470470213","-0.06287583189330184","0.018501814870852243","0.12900500945265067","0.25829583311279214","-0.12115674117434175","-0.260559105633723","0.6493676915923309"
"0.006802754093762744","0.07519457485451815","-0.05707660380889371","0.0004767354955268622","0.12509436206467228","0.278050665644897","-0.16571099793150007","-0.2776567989974206","0.6857155173543638"
"0.009686397996477377","0.07233706326383958","-0.06329920858749831","-0.038287895750716366","0.09023120386352086","0.31591004985875876","-0.19120639813962997","-0.30048010881161563","0.7060957955581656"
"0.013710019989614082","0.07213139721696413","-0.06854907959553444","-0.051028923949571016","0.07801820899151732","0.3442803191831206","-0.21951604470953143","-0.3366148172399858","0.7242860518860177"
"0.016092997839102806","0.07135028172580081","-0.06255571780744598","-0.05947705168456796","0.06161215767903753","0.38893497748664985","-0.24838296778671468","-0.38034850049666596","0.7416427924252618"
"0.018992046851147464","0.08041101367981361","-0.06803070130166462","-0.057787426137568564","0.0529603888249727","0.42873586858327384","-0.28326847714253844","-0.4306389380756901","0.74724859468982"
"0.02315624046692067","0.08105917334269382","-0.07157054351558041","-0.0789775448210196","0.029611382755745465","0.4628335832117839","-0.31277626820309545","-0.4884623871598618","0.7489646566075419"
"0.030382199562036975","0.07763036717736121","-0.055911801586811735","-0.0869154152683187","0.009762094970141733","0.4768124327676714","-0.35083825365042365","-0.5453623497197597","0.7388644064632358"
"0.040189477289266105","0.07337474195489298","-0.05005681169389967","-0.08960244940032742","-0.006378779028636699","0.43982672665105255","-0.3907392515717811","-0.6056264417609408","0.7227170809898149"
"0.05235277392465639","0.056368860543555395","-0.05166357787967942","-0.09244448621784433","-0.016685273466574398","0.3565846190526257","-0.4224761486614641","-0.6618008077660522","0.6986431838012022"
"0.06608257761504394","0.046885370604298614","-0.03338816145555992","-0.07085001270263279","0.0017634568824045065","0.23545885840430245","-0.45769602392165665","-0.7127772639059653","0.6714313448201836"
"0.0754594751003654","0.04687186727798861","-0.00757044411824295","-0.03713355898099998","0.020234444893995528","0.11396906521546134","-0.4824391008449565","-0.7394528317928454","0.6569020205834718"
"0.08142799214641815","0.04998594206855727","0.005696116225707377","-0.007338673202724781","0.029692754855617714","-0.008861338475927042","-0.49227503119847554","-0.7489911283221304","0.654940806963218"
"0.07694317969271372","0.05742523614796111","0.015094046210785441","0.04874659353694102","0.010967838026484154","-0.12671954304056157","-0.4897394230903445","-0.7387536205673237","0.6629164090189161"
"0.06620581848968415","0.059274153135023225","0.0031606061405122683","0.07089753632062303","-0.015165290506901765","-0.23524492401975847","-0.47472082121910736","-0.70727592275422","0.6833947479037304"
"0.05148045960884356","0.06695650708800714","-0.012675747474602246","0.0771987324488914","-0.07151977760313792","-0.315686407939801","-0.43660310812105074","-0.6587401095713161","0.7014542566568989"
"0.04270724984539256","0.06244120251342343","-0.031793786782781046","0.07522702126925906","-0.11444116698869773","-0.3943902431997714","-0.3754141476215389","-0.6102174890530447","0.709004929094875"
"0.03406690914991307","0.0617286423712186","-0.04425138785299111","0.07673564989156564","-0.1261826823408532","-0.4591637665759234","-0.3149217827561293","-0.5615365565591836","0.7064553513885455"
"0.02593204860432511","0.062481712492353444","-0.048476893786288486","0.06813733321905764","-0.15262622150228122","-0.49617374152857674","-0.252841179844967","-0.502380648347131","0.6985614665670249"
