"AccX","AccY","AccZ","GyroX","GyroY","GyroZ","MagX","MagY","MagZ"
"0.010860074763558892","0.0691336587761432","-0.05657887803669201","0.053541086542101685","-0.1399776465662556","-0.5101768599204987","-0.19126212579035817","-0.4463382089883446","0.6818584639011985"
"0.002954365219255094","0.0677012674698743","-0.05815673069213639","0.04380576259266702","-0.1373330533204073","-0.5217288258729335","-0.13556233888756958","-0.3868656768251124","0.6542707256429648"
"0.003258616128523158","0.06396603966904545","-0.05937522947055548","0.054574116862289905","-0.11650658234721997","-0.506827760547734","-0.08354057693283874","-0.33462272488048095","0.6255226026594143"
"0.005079307487465851","0.07078210330337217","-0.07418721801093123","0.07854080539049661","-0.0700215736466664","-0.4527082561907393","-0.04879438670383552","-0.28446421394778165","0.5961043983556108"
"0.0011452276923099303","0.08498656386408812","-0.05749791525092336","0.09844276510991047","-0.08786120989513092","-0.3371157901582882","-0.01875718296136113","-0.2332239045152188","0.5659017086037056"
"0.0034964325038054594","0.10069197108003144","-0.07493896979965081","0.019060209638521557","-0.053864425227913515","-0.22118841418856058","0.00643171516776376","-0.19874091769883545","0.5356009581707878"
"0.010648254510271004","0.07759920565510736","-0.08170886640246058","-0.006702873367261307","-0.03487361309596209","-0.1419458107686237","0.02197972972091847","-0.17317881070693697","0.5166589032885053"
"0.012423693360556742","0.0691772849072986","-0.07417689175009717","0.006852737267670936","0.021368867698096976","-0.04007979839730092","0.02540698024070005","-0.16166557228216932","0.5162993474581254"
"0.009565082760503397","0.06604243576856071","-0.07072998588368792","-0.0035119360949110103","0.06974936766626309","0.07503214468166655","0.009914693338273545","-0.1638515968117717","0.5300278427999007"
"0.010350743336334829","0.055266781373177365","-0.057499980503090166","-0.056939243740470866","0.07625195576487834","0.10886047523019345","-0.01580361747276917","-0.17873028398428573","0.5563734790986404"
"0.005780239961982119","0.04823881938752442","-0.058922939246023646","-0.07505819120174066","0.09911990912603726","0.12012364203381735","-0.03923709460395719","-0.2006380228729865","0.5793850522429491"
"0.008347116304098052","0.05276866600582659","-0.059131529714871664","-0.01607341149347199","0.09746614086098641","0.1865256043078861","-0.07732694387664983","-0.22743232474155883","0.6155204131961212"
"0.010611667375612187","0.05917859113344473","-0.06493695355578023","0.011086717456043536","0.09845217924767376","0.2619361585179712","-0.10744773909521638","-0.24621867917821427","0.6432715859227094"
"0.005830306567304713","0.06725150283201031","-0.060511118162302084","-0.01343644034063363","0.09059259171883587","0.2734881244704059","-0.1377914449166956","-0.26441136370640794","0.6679992209847398"
"0.012007755408645978","0.06868181670346228","-0.06148798243720417","-0.03658671720852383","0.08997512107862876","0.29790257352113986","-0.1740422817153589","-0.29001832575805686","0.6928085732809478"
"0.011989461841316577","0.07049126242900286","-0.07017030254648186","-0.055557698065289034","0.07173101762785802","0.34360079177415387","-0.1959153846261588","-0.32898945708241084","0.707975291944242"
"0.012975388838438368","0.07601723904201994","-0.06549044113648585","-0.05299004488360962","0.06331618518224476","0.39024549463251434","-0.2257854054164487","-0.37278910366225343","0.7278652667429805"
"0.01610647730976658","0.08304104615803905","-0.06475108086076715","-0.057760469148784535","0.06164566383780845","0.4450930640705449","-0.2599743191381706","-0.4218658160950891","0.7382270120366535"
"0.021856434367199556","0.08492320210217194","-0.05908402891503499","-0.07933953867040522","0.022484144125757888","0.48122936092595525","-0.28739232329642167","-0.4745968966311225","0.739125901612603"
"0.025209934104480042","0.07767295459110815","-0.04962517399103596","-0.10363837581041523","0.013253436714072512","0.48025860748457416","-0.3248970322364686","-0.539082641354698","0.7279796708708286"
"0.03533590503097413","0.06487180124922419","-0.054276121870696616","-0.10335917842658056","-0.00690841566692288","0.4496313364090014","-0.356466746373967","-0.6047029552366671","0.7075830492201913"
"0.05308836789516524","0.05441087822860479","-0.044811071190197165","-0.08600176589845979","-0.01796018280780824","0.3828920373140527","-0.39987858629119816","-0.6680937087957464","0.6838360209682874"
"0.0657147806297895","0.04921521375147857","-0.03046376438735411","-0.06144394911620314","-0.0060310329665355595","0.27438607140368343","-0.43997463099010414","-0.7149144755764274","0.6603504878657509"
"0.07485386173982866","0.05287149902926431","-0.00915924261017143","-0.040206655702380065","-0.00205744186600891","0.14938700452424972","-0.46115113826680215","-0.7428433466033934","0.6467690835454948"
"0.08010411556336886","0.05543920846298203","0.0028382202772729128","-0.02293877888700626","-0.007307617615707946","0.009316019713933525","-0.47112638774714144","-0.7564845618333806","0.6349527714834672"
"0.08005982587404502","0.05229916573720183","0.014309663437830238","0.008347598570705666","-0.01990066806005603","-0.10769762935669948","-0.4634916995973846","-0.7546771667787305","0.6295921209214407"
"0.07241215191101921","0.05756130812846962","0.015518249005848628","0.05718798202474195","-0.025080720206041622","-0.21583713584294742","-0.43972385656182733","-0.7282258741906027","0.6410979074935949"
"0.058164351419409496","0.0573629131034534","0.006846874733055031","0.08425279876391392","-0.02083357525212089","-0.29588303773562713","-0.4053677598879213","-0.6874077698177011","0.6622953580391691"
"0.0425859346094186","0.06108567629538071","-0.01707473458991183","0.10599072196944051","-0.06310494515752466","-0.3558998692490119","-0.36786305094787436","-0.6402835717504729","0.6820709287100594"
"0.028362204601137038","0.0681562256947806","-0.03722746523366346","0.10383416286671765","-0.11690626295541608","-0.42778416158328025","-0.3154511954380465","-0.5806923056055485","0.695341807540442"
"0.018345995078619413","0.068226858478556","-0.05439590649637172","0.06898455286655591","-0.20267963611193873","-0.5003479813265154","-0.2406646881608657","-0.5196102683571535","0.6888534591467695"
"0.017849180302726","0.06365857931614073","-0.06897245628973091","0.043700822886329156","-0.17480490531158105","-0.5198843943343094","-0.15888436071730133","-0.4537788718410648","0.6692576663910693"
"0.013286379483038305","0.06701986884992332","-0.08358824587425952","0.044440214578691295","-0.11112645056743085","-0.4993044213770307","-0.10232079522822644","-0.39970213951251815","0.6460009415442288"
"0.009159735821257039","0.061514666585075456","-0.06717362165243763","0.07179481894729166","-0.07323816488867556","-0.5031146286344513","-0.070165940758082","-0.352063427524623","0.6220904788239706"
"0.0054432531953877705","0.07193404090935637","-0.06534174298047539","0.07633899705660055","-0.047924261937238845","-0.5050075978451445","-0.04322162163102024","-0.2964563460987084","0.5990789056796619"
"-0.0012165681318500028","0.08155464154653012","-0.06022611336328203","0.06243111634323691","-0.05535305599616478","-0.46455144817558836","-0.02357762474934637","-0.24078330134963136","0.5702817523556053"
"-0.0067431511039975755","0.09539451229687594","-0.05863380394266996","0.005473309641607846","-0.06617793857622985","-0.31551652608755937","-0.01092744803405572","-0.19524750010415406","0.5413375080100294"
"0.0024633273593604476","0.09187845386923255","-0.07217566240045634","-0.015841388840009397","-0.0044215406970034435","-0.17698515623527344","0.00930168918026387","-0.17360361450810294","0.5165281557138217"
"0.011784381323360578","0.08318958274744907","-0.07020541183331767","0.008451575527444091","0.02498513954830222","-0.0014367734678842616","0.02080944905562733","-0.1621405082089387","0.5105954845125547"
"0.01342117418967606","0.07321166332176446","-0.06422444155823008","0.011217651401565994","0.05116541603367294","0.14881911376104182","0.0076298596584191605","-0.16802047883563626","0.5282627505416725"
"0.0041588522049966796","0.05610294888698916","-0.05993904331209516","-0.033679213418245674","0.06997433758943933","0.18035161242070247","-0.016444485456142795","-0.1832883496148085","0.5559485494809188"
"0.011304897295463443","0.05106724689076607","-0.058689565751173886","-0.05803003903662488","0.08343902682124257","0.16799392111192143","-0.04907302495747625","-0.2109995416753384","0.5933096689467494"
"0.009656550597150449","0.048578479980091446","-0.06402411209804931","-0.05631634474963976","0.0902144507841354","0.20978485676337658","-0.07192136175601886","-0.23884397964865642","0.6219107009087808"
"0.005485617246045334","0.04863768687237377","-0.06389400121154017","-0.0031462837970475527","0.08527947225658859","0.25666982109847886","-0.0979740384714302","-0.25892321521929507","0.6411959681746077"
"0.007849338708871516","0.06616915929239305","-0.06073210014415097","-0.0041412855080583035","0.08464764183405109","0.2871514791578445","-0.12907006757773962","-0.28396289269174724","0.6682934030277781"
"0.014648768839412669","0.07413300566307014","-0.05518689807626072","-0.03551228865556011","0.08764165644993907","0.31952610642790324","-0.16089055614351483","-0.3138706634135856","0.6885265902100607"
"0.017215645181528603","0.07804793157556289","-0.05911294244537035","-0.045279383341775954","0.09567116806968667","0.36071032117849516","-0.202129017682348","-0.35247240012823","0.7128129522075342"
"0.016309632189056317","0.08700063691909565","-0.058243471283142494","-0.07028391593816803","0.09346454818491548","0.3892262035190642","-0.24261515593635097","-0.3981058270919877","0.7281267618923475"
"0.014793191739381688","0.08638987108292008","-0.06729340627811274","-0.07452867892205424","0.0579312668083455","0.46327042226040543","-0.2699495686185097","-0.44753874146990047","0.7373771528012102"
"0.02180829340054322","0.07831799810176297","-0.06728308001727867","-0.08311833084816737","0.014698270146216063","0.48518518119958315","-0.31001774949205174","-0.5065627230356281","0.7362331115227291"
"0.03226643699696603","0.07213035849955567","-0.06728514526944548","-0.09025519362874085","0.014367277163500388","0.46096488283712533","-0.34989088358804504","-0.5690036047411687","0.7250215069936127"
"0.04175983562159584","0.06176603619792322","-0.046399250106475595","-0.08690675052192384","0.01423014124224509","0.42943966482827506","-0.4020519646695961","-0.6360487264034459","0.7059813914303176"
"0.059075178508547405","0.053399167472762944","-0.033084569387038555","-0.07707515161254619","0.004665568891377953","0.33059269565964744","-0.4485288253768756","-0.6892415502016161","0.6870556799948705"
"0.0681006469372776","0.04951020949548173","-0.017500176536275107","-0.053323156245012354","0.02548055203870095","0.2065255520839396","-0.47923476092808776","-0.7231598909717293","0.6717418703100572"
"0.07956782519481725","0.0473351352421626","0.002522649746184037","-0.024556198214048412","-0.0013583597962240313","0.08084453091193572","-0.4975691580176501","-0.7434765945057525","0.6639950765100555"
"0.08099568626584423","0.051992744101705575","0.01373077325547283","0.009039526707815899","-0.0036573609473207597","-0.04719784800622764","-0.4993245790155868","-0.7463789807248987","0.6596640630986622"
"0.07486348993315993","0.055244968307599666","0.010360405634365636","0.043954988780578644","-0.015984755418556477","-0.16761010487513578","-0.49160629938973766","-0.729057012062449","0.6679828775379045"
"0.062141758084556124","0.0641114601062301","-0.008801540934879592","0.0759731522088172","-0.030745654335383656","-0.2689446297373024","-0.4573895218426518","-0.6942019921034297","0.6846858802037307"
"0.047757237247642394","0.06065668600568595","-0.025065195223307513","0.07369721215576502","-0.08055926058012351","-0.3633261330755771","-0.4177392983495712","-0.6537005116817077","0.6987412444822148"
"0.04270339856806006","0.06159880269516086","-0.0389209720104493","0.0660847510730732","-0.09927723684779738","-0.4431220659571012","-0.3592252650850107","-0.6046501845781371","0.7010783573796836"
"0.03553039453626573","0.05705649146795715","-0.04216341791234416","0.08342772235720253","-0.11107858462632952","-0.4984792809518568","-0.2938845946062516","-0.5450853037624777","0.7016176911252533"
"0.01896027381315428","0.061826281807614014","-0.04722741622536722","0.06715051487964205","-0.11106183154694405","-0.5369939237386508","-0.22832101352457973","-0.4744253919909002","0.6940016448999352"
"0.0012280301549588263","0.06954602958730256","-0.049557020669531174","0.0383190526255163","-0.1337263546584223","-0.5520891397521265","-0.171841039511597","-0.4153090617727452","0.6773640160214507"
"-0.0026319125515463352","0.06354847527084379","-0.05807825110979753","0.03378161376340341","-0.12482807620768566","-0.5580592734166201","-0.12622795739060377","-0.36759119379705524","0.6484688020163812"
"0.0005463540671050819","0.06021003752004736","-0.05731410780807709","0.0627141647254693","-0.11376865051622408","-0.5168750586660281","-0.07852508836730492","-0.3141345167062352","0.6135918864695384"
"-0.002121618304989164","0.07779760068012358","-0.053749482568159555","0.0859299085661207","-0.09205187303855208","-0.43353587572346314","-0.03614420998854487","-0.26096807823732987","0.5790091529657337"
"-0.002352694944939577","0.09409611553629861","-0.062161254643584886","0.07888835799589078","-0.0746789297158255","-0.31321098666427927","0.00041312888912342557","-0.2067739311935542","0.5335416838695216"
"0.004055830536352101","0.10226874410607653","-0.08266714340786135","0.01569828803731252","-0.05636063405634772","-0.16809790847942974","0.0303388773301414","-0.17202445255159476","0.5048752781201484"
"0.011870072244008848","0.09040243643180826","-0.09222099993153372","-0.0006429422886100544","-0.000714084229000171","-0.02943791379616092","0.03858656963790791","-0.15728560762418506","0.4977658787467291"
"0.014708463638066525","0.07354093674024686","-0.07005877892947403","0.014470782298039461","0.07893005516949758","0.12224473830323497","0.02373515071885534","-0.15875263193131714","0.5155965792442013"
"0.009774014555791912","0.05542155026703818","-0.058301298343813236","-0.022263891417805933","0.05364487178272167","0.17509255565202053","0.005679391882934028","-0.17534768477251714","0.5410923563074979"
"0.006645814542463073","0.04792928159980278","-0.057954335979788815","-0.06871848508949509","0.09911033593781698","0.1590969658216639","-0.027590015601773363","-0.20644411457774217","0.5784371323264932"
"0.008644627478034227","0.04950917077807327","-0.06437933547074098","-0.04352717907081362","0.1032339867636963","0.18654259249311025","-0.05882536383490285","-0.2304138669485","0.6096040854416896"
"0.00790133095286036","0.055109935044499625","-0.061944403166069625","-0.008301422802154632","0.10992085873555166","0.2589996293577934","-0.09164895011378488","-0.2468519270805734","0.6383358649784044"
"0.00509760105479525","0.06897161886042315","-0.06519511007663173","-0.01135882670506401","0.11251997933735372","0.30278060956407976","-0.1312991736068658","-0.2726172011078121","0.6692740098379047"
"0.010601076362947784","0.0766259274433786","-0.06311540114465203","-0.0381049733268247","0.10413625975345632","0.3344514405891372","-0.16540449585249525","-0.3040289355977535","0.6945900089860113"
"0.014206834765507492","0.07492450832831807","-0.061715160175553486","-0.06024917686331069","0.07574218349214921","0.36935002680678675","-0.20279774949108573","-0.3491742339701093","0.7157874595315855"
"0.016067001717108374","0.07734264245521727","-0.059782084147417446","-0.06204759311504566","0.05869951516302179","0.42662447984826996","-0.23035507277615733","-0.3974989645188935","0.7278162364024742"
"0.016537820371007355","0.08281045089336052","-0.06535206924130944","-0.06343010153982692","0.050708296296155274","0.45657222351487603","-0.26167401248537914","-0.4443329239642071","0.7363148287569063"
"0.020985082870719846","0.08431762985303867","-0.06950116084443478","-0.09468095353731988","0.02507369153933967","0.4957906625466713","-0.3009341424233629","-0.5057183924991492","0.7345497364986779"
"0.029222002265619235","0.07887786678492391","-0.058908482480855964","-0.11261120207710143","0.012807326143008148","0.47938492938733124","-0.34013854471061844","-0.5731329087711359","0.7195137654100672"
"0.04543299137747441","0.06038246460985203","-0.04794199347508418","-0.10977109075878337","-0.0030169146553850057","0.4305803001218978","-0.3888445114470238","-0.6452308209876538","0.6930864118771504"
"0.06090646088015449","0.04686044138649553","-0.03175041648727799","-0.09046699854061542","0.006367203097530123","0.32714652094274466","-0.42838327963864836","-0.7006532051087138","0.6679175037505627"
"0.07533334576772578","0.041435220362099234","-0.01577775622915389","-0.04949815208647755","0.02179487457389878","0.2013174598709302","-0.4626000571857342","-0.7385161526039391","0.6499397122315715"
"0.08075498143256254","0.041404058839845374","0.010334362804542134","-0.015382157281081358","0.024705123792859458","0.05188210198833144","-0.48483538982626695","-0.7561151672236711","0.6425197873682787"
"0.08065581104125048","0.04809443766774822","0.01434435967423268","0.017461082553868575","0.005984514898425017","-0.08911740848866576","-0.4890706912816068","-0.7534238636386447","0.6436801720935955"
"0.07387948857470439","0.05041077748861817","0.010328476835866721","0.05944755533460381","0.012178128347231204","-0.21368449008668486","-0.47407995323573354","-0.7249409006971144","0.6568693336898008"
"0.05869967896862797","0.0614533822579762","-0.011269310749003265","0.09382541803104492","0.0075535604477265095","-0.3100317691437563","-0.4479158212188658","-0.6836742457267084","0.6821363024974012"
"0.04386648432247718","0.06250664171015652","-0.023530712863366186","0.09754740798244073","-0.05258161800639796","-0.3883958406992433","-0.4117764397216587","-0.6366160109826426","0.7040038343632287"
"0.03147018540847021","0.06636339944777542","-0.030581483760862397","0.08809513241523846","-0.10385322081708422","-0.4679490852204221","-0.35916953743428265","-0.5769323961852909","0.714708792040446"
"0.024730450076582918","0.06042920689323281","-0.03767769020602847","0.05742289292700283","-0.1519584916239177","-0.5252963447700089","-0.28792173597833903","-0.5174730566866913","0.7062101996860138"
"0.01122498329081392","0.05494062410692034","-0.048474828534121675","0.04752967804326168","-0.14357955863413047","-0.5650972358666329","-0.21553151768246886","-0.451325036219423","0.6895725708075292"
"-0.007157163417242073","0.06080833874732138","-0.060746556909318655","0.06153287096696887","-0.1543709350554246","-0.5818184638944217","-0.15278218296256854","-0.3904540816051478","0.6645344102556254"
"-0.008466597710294453","0.059446580224827884","-0.08311323787589274","0.09387836925901356","-0.15698202214250198","-0.557452552515757","-0.09279136695371239","-0.3370633678374902","0.6295594340277697"
"0.002179295656088067","0.07505954159141812","-0.07664486808943753","0.12919298731569992","-0.13336736010016237","-0.48782526193269954","-0.044670540549952106","-0.27074384272999963","0.5899592623454829"
"0.0017633577041773032","0.10563626594430989","-0.05875565382051187","0.06892293689219241","-0.12739608394777183","-0.37713510077922285","-0.008280384624468444","-0.21697054168800006","0.5419095286492702"
"0.0018259409608305333","0.10426723639995718","-0.07409015115909107","-0.009017419679250613","-0.08369447972226042","-0.2642122067105697","0.028917822236573472","-0.1742434587427783","0.500135678537869"
"0.00815358961813958","0.08694558489644717","-0.08555643118923136","-0.006833037113104224","-0.00026007577765408665","-0.08597944798940144","0.04691785342176689","-0.1547869169427928","0.48083406782520666"
"0.01136266645545105","0.08170317813594016","-0.06820624773584365","0.0016093141242961386","0.066355672442179","0.09136021756569618","0.043267692299072784","-0.15568137960487516","0.48867892230622084"
"0.006442659663173339","0.06355470757529455","-0.04250211926770133","-0.02642104418814403","0.07625195576487834","0.17787133737797384","0.023818742194947496","-0.1726577004539539","0.5158580743935685"
"0.005194845807441065","0.05010851072275576","-0.05988121625142442","-0.06082875212216746","0.09195198444611356","0.17618950704078112","0.00019021828621090082","-0.19330026280439963","0.547433613679651"
"0.010808082519570049","0.04919859427294318","-0.060566879970806016","-0.037950933390915924","0.09351241412601681","0.20360601110898605","-0.03413801456233152","-0.22310513074210453","0.5924598097113061"
"0.010644403232938488","0.05155232792051775","-0.06879277935121826","-0.007008450090120343","0.11093800998395487","0.2701390250976412","-0.06860556653769401","-0.2476434869585224","0.6265358963632123"
"0.005698400318666348","0.06414054419366703","-0.06329920858749831","0.010701617616271596","0.12718610369080025","0.2977326916688982","-0.105162905415362","-0.2644245563710404","0.6508876321480275"
"0.008221949790791576","0.07570043023243907","-0.0725122985036467","-0.03514355555897848","0.10836042905564841","0.330616964495682","-0.14294625260904978","-0.2918784914712369","0.6805836750480337"
"0.012844445409133128","0.0735212011094861","-0.06425128983639865","-0.06110602400680326","0.10230060091222044","0.36267609689729186","-0.17613206861766456","-0.33303960512458297","0.7033827833834816"
"0.014410952464130367","0.07772592917893971","-0.06000926188576677","-0.06973996241449017","0.08485346538078678","0.40774332541340813","-0.22673277547882748","-0.3848999697948725","0.7250868807809545"
"0.014811485306711088","0.08241885443037039","-0.06790472091948908","-0.07003071279351798","0.0701322951950737","0.4601397424119515","-0.2618690592629277","-0.43889754613562426","0.7360696770543746"
"0.019914427772282892","0.08414416404582556","-0.06303898681447999","-0.08338982623520659","0.04991611497092832","0.4976836317573644","-0.3005719126936299","-0.4936734896896925","0.7340921199872855"
"0.02749855565932234","0.07793782753026593","-0.06021991760678159","-0.1025119587790823","0.03303140424743526","0.5013724948346124","-0.3442902546898657","-0.5612858959311664","0.7262309220594358"
"0.03915155804815546","0.06549710912911823","-0.047605357371893815","-0.10487069529768543","0.01180214137988028","0.4476412918541702","-0.39642347194605276","-0.6271700631057852","0.7082531305404447"
"0.05586706449056905","0.048081973058846685","-0.03026550017934016","-0.09135465367128975","0.0022323037754920037","0.3498378826350272","-0.45011706342262786","-0.6893866695125734","0.6810249481125907"
"0.07094770370533342","0.04187667526069552","-0.01224824027607216","-0.05572329099639097","0.0022918968721631554","0.22602798872128535","-0.4784545738178936","-0.7310227190926889","0.662981782806258"
"0.07894873236361676","0.04326544043580903","0.01056238729627985","-0.02880577494593177","-0.005550458917878237","0.07694452896118727","-0.4980985706995675","-0.7539383775593114","0.6515740569151162"
"0.08064714566725234","0.049807282674301824","0.01465022352013754","0.0039926970326446785","-0.020076096734192393","-0.058461014809851525","-0.49338958421303863","-0.757368470363757","0.6461480325657479"
"0.0744302212332529","0.05601881277690376","0.012199512688911732","0.056646916749862365","-0.005065337604816289","-0.1700952336850713","-0.4749158679966559","-0.7387800058965888","0.6551696152189145"
"0.060252706552961416","0.054740151647087204","-0.0015797671579713458","0.09448971525465152","-0.03878904707805062","-0.27161420170110034","-0.45123161643719095","-0.6932389275852584","0.6741280135480323"
"0.048022975383585374","0.06533195306117279","-0.0249082360586298","0.09790362533422975","-0.09686479341629049","-0.3747810236838738","-0.39692502080260605","-0.6418403061771059","0.6945573220923404"
"0.038529576758955575","0.06313091087264211","-0.03492057856333444","0.067432600512275","-0.14854325672633806","-0.47600633878388504","-0.33367413722615274","-0.5935419609575866","0.6981038500556324"
"0.02853936335843237","0.059215984960149355","-0.045878806560438974","0.06691849222617945","-0.14677700349969908","-0.5325527267443324","-0.26200837838974805","-0.5337659975078074","0.6904551169366433"
"0.013939170990898246","0.057920704351797414","-0.05239261189456406","0.061909306060345934","-0.13860150075959246","-0.5650486981945638","-0.19663984408562488","-0.4702037393085058","0.6766285609138557"
"-0.003960603231261256","0.06970391463338876","-0.061403307098364876","0.03292284112071198","-0.12818587197594375","-0.5691986691564679","-0.12463971934485123","-0.4047153520728616","0.6484034282290394"
"-0.0029207583514843554","0.06161230602147087","-0.06397454604604584","0.04699342651637926","-0.09453850867876602","-0.5674998506340511","-0.07610093556063048","-0.3506122344150499","0.6204234472467551"
"0.00351761452913425","0.06911600058019934","-0.06278496079796211","0.07916177888212887","-0.06940410300645929","-0.516316875437234","-0.04692751040444255","-0.2976568785802644","0.5895343327277612"
"-0.0016305804450945174","0.09771604570478822","-0.04090980984708928","0.049028679169573965","-0.07042364755191755","-0.40802932905117545","-0.018116314977987505","-0.24654849579402632","0.5524347084112976"
