"AccX","AccY","AccZ","GyroX","GyroY","GyroZ","MagX","MagY","MagZ"
"0.07447065964524421","0.017587307381223386","-0.025189110353316235","-0.07000375580473393","0.00847234718716648","0.18193151364655014","-0.49311094595939775","-0.7111941441500674","0.6918279664708209"
"0.08766070681748088","0.017123000699640935","-0.00013760156988651612","-0.006850366605893961","0.010533454610989612","-0.019766297259681313","-0.5065970374356108","-0.7311678384036462","0.6711371627771456"
"0.08199990683029544","0.03201716961957555","0.01880076079977964","0.05122567375547289","0.007369276574486401","-0.21220894485578565","-0.49567441789289285","-0.715257484856872","0.6808288267505654"
"0.06802073293262809","0.04843202082549832","0.0011176586971018265","0.08668374150247429","-0.04575354150829368","-0.36089924947212443","-0.46338024429592817","-0.6749802797339024","0.6994113258024681"
"0.040631411363171284","0.05838812718560525","-0.010311446794035855","0.0941537156444505","-0.11503949125246432","-0.48039899810613435","-0.40829346155114926","-0.6143204077537469","0.7123389922493064"
"0.019712235712326276","0.0530325002275759","-0.02530269922249089","0.06799484627834203","-0.18322931094541456","-0.565703956767496","-0.32670818088513365","-0.550969232188565","0.7096913538619639"
"0.0085358288933909","0.04055438799972358","-0.04140753561929097","0.05439408268719652","-0.1925847091336689","-0.6309143191922695","-0.22567395011499244","-0.47379214408854103","0.6946390393265178"
"-0.005443345004276458","0.04316987843423054","-0.054412428513706215","0.08528197808570444","-0.1937933241464774","-0.6484606876452325","-0.14832397090431634","-0.40389740686564757","0.667378170004993"
"-0.02469973166681156","0.06293563199985128","-0.08286747286804211","0.11787105202640487","-0.14435977347408208","-0.6227599902846686","-0.09117526508259588","-0.3374723404410972","0.6354921052290369"
"-0.016612049268546817","0.09968026032418958","-0.09127511443913382","0.08729797574691053","-0.19213716258437147","-0.5644662461297352","-0.02109774429194372","-0.26639026340128036","0.581836569268266"
"-0.0010625170385497218","0.1098087937741012","-0.09604997744880318","0.058034238922640785","-0.12220980922944306","-0.4318127883650117","0.030227422028684982","-0.2052580940272819","0.524699879131545"
"0.0019010408688144333","0.13507040114789362","-0.10233040928807852","0.048940106206426415","-0.0658620233649611","-0.26127567755039194","0.06951541579203271","-0.15085550288231298","0.47926509692900365"
"0.013791859632929853","0.12858880451909163","-0.10893302046537653","-0.04712401157428354","0.03664049620647531","0.03362222975595348","0.07751233367152305","-0.14133303755058696","0.4712894948733058"
"0.015063743971990291","0.08533141804369744","-0.05671931518403523","-0.04867692667816389","0.06308403536790333","0.22036606927443025","0.06344110186266448","-0.16673419403396916","0.48944706430748697"
"0.0063444520911944","0.048017572579522036","-0.03872890355893578","-0.031668029505036714","0.07705849687243571","0.26186335200986754","0.02941937109312704","-0.19686887858748614","0.5278705078176217"
"0.003890225611054308","0.04640444444418077","-0.054637540999888726","-0.03950288574519685","0.14474333088676694","0.28630206989663604","-0.009311346162939218","-0.23028194030217516","0.5689742766087696"
"0.004820309086854758","0.06268737853922889","-0.05292751220576838","-0.029471997668737225","0.13862367031696232","0.3285298445967127","-0.07011021310735378","-0.27569109196718067","0.6296738381556178"
"0.005269945715424948","0.0730579331453121","-0.05680399052287452","-0.0411366718154293","0.10582592747433314","0.38594991065440304","-0.11589047818053146","-0.3136859661087309","0.6615762463784094"
"0.008037088478831242","0.07816011305567676","-0.069092240915406","-0.019258187168385937","0.14408996079073383","0.4333469474298339","-0.15085957901244734","-0.3427362136294578","0.6813027867087934"
"0.005164998408114137","0.09093425974494071","-0.07404678086358801","-0.031180878207725214","0.15516135296747077","0.5041391421425485","-0.21140767152858544","-0.38559918102039414","0.714087741060699"
"0.011892217088670764","0.08456068972661875","-0.0670806853049311","-0.08314721333615027","0.10808519989431578","0.552167168654877","-0.26498980770370445","-0.44557303443966056","0.7338306248379185"
"0.01635777315571266","0.07099815652433224","-0.0547717823907315","-0.1057564249291609","0.09968951382514304","0.5747371861669869","-0.3374914813010312","-0.5271432798623011","0.7425907123417177"
"0.027289623864033836","0.06025470236861122","-0.03599244443790987","-0.10652662460870478","0.04032378037422242","0.4997464828202992","-0.40216341997105237","-0.6021303856333329","0.7287968432126009"
"0.05605770271852815","0.03246901169225646","-0.02663478687008464","-0.0973805034141212","0.017551558895266158","0.3962156282970079","-0.4367981548985993","-0.656932714516666","0.7084655953493054"
"0.07378802073805735","0.025214609311558826","-0.023220925038344383","-0.06028094760009188","0.026607794951637204","0.24463247842535354","-0.4777301143584275","-0.7044394998582363","0.6894418232328458"
"0.0821308502596007","0.01646653129749304","0.004583977933879107","-0.02071771556112159","0.02984831916419703","0.03133853228510451","-0.5042843399303925","-0.7223287530998829","0.6810412915594264"
"0.08475068166503857","0.02790384868206658","0.016913739894963507","0.04459906826259721","0.01833656032932792","-0.16568558617759777","-0.5030583316143731","-0.7151783288690772","0.6853396180771486"
"0.07316892790685683","0.04042350960625738","0.004455932299536763","0.08611283099001238","-0.020938162333427292","-0.3303447849046552","-0.47321617464944726","-0.678331216550553","0.7002284981442405"
"0.04688973702849519","0.0574854817576519","-0.012518788309924532","0.09941514220533462","-0.0873083582754106","-0.4519316534376344","-0.4281603690357357","-0.6236080436550147","0.7208375846037385"
"0.017975309635365602","0.05613411040924302","-0.02182068406924584","0.07628315757983362","-0.17839245759712546","-0.5750717274768234","-0.35535219335940393","-0.5547159489441901","0.7217855045201943"
"0.009667141609814835","0.04337450576369753","-0.04663262360132536","0.05464054658465057","-0.22506175017091917","-0.6624152683650852","-0.2578288045851366","-0.4903753235315718","0.7000323767822151"
"0.0031421149892148187","0.04761455022503883","-0.0759013773093852","0.08308209525100722","-0.1431559450553837","-0.6943530565865226","-0.1628688877443644","-0.4040029481827075","0.6792108255138561"
"-0.020530723954372714","0.06558124523920364","-0.07308643860602042","0.09189799333298637","-0.1321084858491975","-0.629506726702267","-0.1108471257896337","-0.3306385401614711","0.6544668470049902"
"-0.017680778728317505","0.08214151688231108","-0.08849321977043803","0.10962028795929106","-0.17619062430646443","-0.5663592153404282","-0.05971700624655325","-0.26956969557770866","0.6106173791454873"
"-0.008091098170375038","0.10989189116677814","-0.0776031450948383","0.036790206261621695","-0.17327319519633858","-0.4869758526714911","-0.005326819135876175","-0.21197184105875239","0.5518463443252216"
"-0.0032673733114099834","0.12502600380806744","-0.07448461432295216","-0.00898699679190863","-0.07572719382594456","-0.27552148430265916","0.04023053533438867","-0.17321838870083442","0.501050911560654"
"0.010273717789684696","0.11631116475107242","-0.09185751555017482","0.008161691623055762","0.0367051152269621","0.0048925389699203264","0.05162683990829571","-0.1538291294904746","0.48585150600368876"
"0.011844076122014435","0.09499356737720968","-0.06447020656608071","-0.019270702913178527","0.054176183728946406","0.21221659413403615","0.03875375259009253","-0.1692157342513392","0.5035841458201482"
"0.008150701160140189","0.05934063104916478","-0.04766318443256456","-0.02312362681009679","0.0837573353295664","0.2722261449966105","0.016908513504656754","-0.1946934081895898","0.5369574642581298"
"0.007163811343685274","0.051657238378772403","-0.06380519536836725","-0.010893818648539394","0.1448318828778044","0.30346013697304647","-0.022964620591336696","-0.2229204334372498","0.5805944673087721"
"0.006817196383759647","0.06280579232379355","-0.06833635862235281","-0.0330187671930368","0.13691485621964494","0.3252778205680861","-0.06601423077883463","-0.25259073619570344","0.6222048829518189"
"0.00720713821367598","0.0706834251495683","-0.07190098386227034","-0.04515422589385007","0.10537598762798069","0.36857342405368193","-0.11926200104958483","-0.29881783306792287","0.664011419956891"
"0.008835265705993325","0.07598815495458301","-0.0718431568015996","-0.01368771798608482","0.14236918020814116","0.4234695311637815","-0.16885961019764076","-0.33579687203277186","0.696665626734113"
"0.006679513219122516","0.08769138399572281","-0.08497609533035717","-0.03474882822321224","0.15555624698155668","0.4839960082338913","-0.21533647090491997","-0.37098170860760327","0.7251032242277898"
"0.008004352621504939","0.08455030255253412","-0.0703479142328277","-0.08216328324553296","0.14308477602760597","0.5310047436327697","-0.2788938565603784","-0.4292273229600144","0.7458430582619716"
"0.018474050049925264","0.06415716367220244","-0.0571447571303985","-0.1148351536517844","0.12978283099554722","0.5211758650387863","-0.33818807693513303","-0.49654949057957376","0.7521352852936186"
"0.03621495908211885","0.05348641973507374","-0.05914805173220616","-0.09794852567778482","0.13559136294819327","0.47232269810128397","-0.416206787954547","-0.5747028358624013","0.7497818289493141"
"0.04991972946984508","0.050226924507320414","-0.037165507668659094","-0.09963333747678704","0.10211392374192525","0.4037632363037457","-0.4843059771443496","-0.6351384325438046","0.7431463895341229"
"0.06491756622196056","0.03278789793665425","-0.012308132588909707","-0.073159648991665","0.08996794118746357","0.2511122576465722","-0.5361326923215317","-0.6800066849588783","0.7289766211277907"
"0.07327387521416766","0.020156055532349566","0.010547538133200472","-0.04203876819009507","0.04604854692994109","0.05182142989824512","-0.5642751559392489","-0.7043735365350738","0.7220469996695615"
"0.07713574355933908","0.026387321265712263","0.018603322692632412","0.021237949232431882","-0.016445943761067765","-0.12931630849625594","-0.5591482120722588","-0.7033049306998428","0.7189580882176622"
"0.07275587841294547","0.040540884673413574","0.021792898139056886","0.06346799766182287","-0.08867014429974335","-0.30362479643064116","-0.5314237058350029","-0.6725528294415256","0.7228641720113338"
"0.05340032135909831","0.052500676914443434","-0.00014111249857009663","0.08331219240527095","-0.14968007282749454","-0.4369820504403659","-0.4619313253769963","-0.6231067223989805","0.7278489232961449"
"0.027333913553357667","0.05206545432029791","-0.031170080628403825","0.09077157630165344","-0.17327319519633858","-0.5448570266138375","-0.3815441892016358","-0.5650721906806889","0.7273095895505752"
"0.013602184224303879","0.046440799553476936","-0.05220467394738417","0.08481793277877923","-0.17714076323732575","-0.6042428683903245","-0.29438614346280506","-0.49314578310439316","0.7204943722201941"
"0.003447328717816007","0.04619358481026302","-0.06643219612455213","0.08877868463083365","-0.15957396285313882","-0.6428788553572913","-0.21876372142470155","-0.422327559357226","0.7017647821467724"
"-0.010353723603222908","0.07480713326116188","-0.06832809761368555","0.05925789366351612","-0.1601459608492997","-0.641665413555565","-0.14247256757786034","-0.34042749731877325","0.6705814855847405"
"-0.017815573434955264","0.09214748167802417","-0.10525687160845115","0.0570185380952423","-0.1321922512461248","-0.5368968483945127","-0.08331766632992621","-0.28391012203321736","0.635132549398657"
"0.0014282965762491865","0.10401690550451786","-0.07904056060293946","0.05896906878368717","-0.1283246832051376","-0.39290984420166525","-0.03851263514449141","-0.23830308039872464","0.5930808606910531"
"-0.0013513628384877593","0.09994617198075584","-0.07543256506751889","0.05276511036496122","-0.055712050554424734","-0.24164218919845976","-0.006859329530900518","-0.1974190127026607","0.5588576830176281"
"0.007327490630316817","0.10141595711372933","-0.08993683103503963","0.047690457226366466","-0.03336104935716015","-0.04577326733100092","0.014261450095069478","-0.1724466178198342","0.5421873672454728"
"0.011650549436055946","0.09979659667393731","-0.08912725218564933","0.0032325099489348675","0.02245063796698696","0.13319969088922035","0.01958344073960798","-0.17396641278549618","0.5408472046049662"
"0.014285785950823873","0.08013159869693738","-0.06789852516298865","-0.02492589406022947","0.0613297486265397","0.22846457985915183","-0.0007292879508037666","-0.19426596585549735","0.5598709767214258"
"0.012627811059179617","0.06733563894209571","-0.06174407370588886","-0.03943164227483903","0.09851440497110546","0.29889759579855546","-0.029150389822161657","-0.22202333224224094","0.5913647987733313"
"0.010047455246399906","0.0639888914520316","-0.06866473371687591","-0.03549977291076752","0.11434845828742439","0.3328496974108584","-0.07233931913647995","-0.25515011313440505","0.6295430905809344"
"0.004049090801020228","0.07003942035632194","-0.0684726652653624","-0.042341071564316046","0.10350442933091879","0.3593512663605617","-0.11505456341960926","-0.2924721613796986","0.6611022864201817"
"0.003942217855043151","0.07751506954502194","-0.06725416648694331","-0.03555079863953731","0.13048646032973674","0.4156792347966984","-0.1691103846259174","-0.34036153399561087","0.6962406971163916"
"0.005139965105452831","0.07957484616600181","-0.08130614222993225","-0.05601115312662049","0.12909834803779827","0.48763633363907033","-0.21856867464715296","-0.3882904846054206","0.720347281198675"
"0.012256162796592683","0.08432074600526407","-0.06365649721235678","-0.06155466532013757","0.12042982610434798","0.5299854525193196","-0.267804054065476","-0.4371297290748716","0.7414466710632364"
"0.018839921396513432","0.07894849956869932","-0.05173792695768466","-0.09571494660710754","0.1303763686652037","0.5518759426224628","-0.3366555665401088","-0.5040956947493538","0.7487685352455165"
"0.0313151714958368","0.05780540671945815","-0.04852026408179153","-0.10798037650384384","0.10158261179570054","0.5082891131044527","-0.4016061434637709","-0.5761144509780769","0.7433261674493127"
"0.04678864099851688","0.04335580885034521","-0.03635592881926878","-0.1160578456430603","0.08197911561765212","0.40315651540288255","-0.47419140853719","-0.6474603813105434","0.7280123577644994"
"0.06647059380629401","0.021907333083016258","-0.021205238923535853","-0.0872148303937414","0.04615624529741908","0.23404641214709299","-0.5174360655022365","-0.6981202134992769","0.7074359581986724"
"0.07904020020026378","0.018766251639827595","0.016222499994731524","-0.02292626314221367","0.02000468837670916","0.04585129623375153","-0.5412596361885218","-0.7192284769112492","0.6980384762682906"
"0.0832583116986921","0.02454359786569246","0.018871185898667934","0.040391852513088765","-0.0005800595939164562","-0.14527549507256074","-0.5377487941926481","-0.7114052267841872","0.7021897117644941"
"0.07230431614570902","0.04150377571105772","0.007515396859452079","0.07506720483575371","-0.05964902421000886","-0.32420476938791987","-0.5086868243379165","-0.677566042001869","0.7157711160847501"
"0.0512156842922337","0.05547660228968666","-0.011709209460534225","0.08846194001262121","-0.11892620566989205","-0.4547468384176395","-0.43952880978427894","-0.6200987948627743","0.7250215069936127"
"0.023869689592767602","0.05585677286118371","-0.025903687603033188","0.07490835115184778","-0.17676501559968036","-0.5536423452583362","-0.3613150519873165","-0.55476871960272","0.7246292642695621"
"0.00921654216191152","0.046650620469986234","-0.049759415381878745","0.0625630130383588","-0.19767285867273995","-0.6262304338376059","-0.2787824012589223","-0.49669460989053105","0.7110642033961414"
"0.0007235128244004025","0.045546463864791276","-0.06050492240580165","0.06677215428706611","-0.14916312066360024","-0.6712733935176876","-0.20070796258877993","-0.4267734873383726","0.6885429336568961"
"-0.015283358588831897","0.06622109516281614","-0.07038095826749668","0.06203542625787125","-0.153159926745561","-0.662633687889396","-0.13297100312871052","-0.3564961628411372","0.6558560399860033"
"-0.019654558361227353","0.09038893310549824","-0.08766711890371323","0.05549257998014598","-0.15514636330126608","-0.5828862926799411","-0.06021855510310682","-0.2885803253131162","0.6057306885416889"
"-0.0019483108250263415","0.1064662011536709","-0.06524467612863522","0.05230202780763545","-0.13754845005536329","-0.437491695997091","-0.0034599428364832006","-0.23319751918595383","0.5521895567087659"
"-0.00134173464515648","0.11410908384513328","-0.06771471772014238","0.05235016528760695","-0.06645556103461754","-0.2594312460117679","0.03775065487698571","-0.19201397800273257","0.5171328632467332"
"0.006975098754392425","0.11419218123781026","-0.09246056918288391","0.05332061688383224","-0.0004989268237497066","-0.03391551404453112","0.049704235958174525","-0.16485028152445064","0.5027996603720467"
"0.010368074084331122","0.09984541639213501","-0.07802652178903477","0.001665442425942899","0.023343337768526706","0.17432808731693294","0.041930228681597015","-0.16810491188928414","0.5109550403429345"
"0.011284678089467794","0.06535584356156741","-0.04909027367983165","-0.016378603116491253","0.047041765207793636","0.26943522885263993","0.019332666311331195","-0.19693616117711185","0.5376765759188896"
"0.009158773001923913","0.056795773398433225","-0.05815053493563596","-0.02828589016223965","0.10063007956778412","0.30916331344116027","-0.010202988574589627","-0.22620540693073796","0.5747271698948467"
"0.004812606532189745","0.06293459328244282","-0.05928229312304894","-0.03675712388762291","0.11841227668692704","0.3189436543630746","-0.04453122142313174","-0.25821081132914103","0.6131506134049813"
"0.0033481583265039428","0.06722345746198184","-0.064313247401403","-0.05621333054250076","0.10082632992629956","0.3700295542157535","-0.0865498700721589","-0.29435871242214373","0.644726152691064"
"0.006189438178560994","0.07363234387219152","-0.0683879899265231","-0.020632993596371767","0.14242901263451782","0.43502149711621624","-0.12990598233866182","-0.34044068998340576","0.6741443569948677"
"0.009449544440528182","0.0826909983913874","-0.07245034093864233","-0.029544203888694467","0.13866914296100855","0.5035566900777199","-0.18858719855540662","-0.38714272278239453","0.7044287639809502"
"0.013876587734245015","0.08933151878368406","-0.07227479450446331","-0.058598061300288495","0.1397892059827796","0.5461970349903834","-0.25036129938756424","-0.44348859342772834","0.7294996114265251"
"0.017533375561460427","0.07911988794109552","-0.06155820101087578","-0.09574382909509044","0.15145892242328313","0.5586469478760958","-0.31896203743392026","-0.5047157499870805","0.7430319854062748"
"0.03002210513144757","0.057487559192468826","-0.048266238065273664","-0.1154320584034309","0.11341985903005866","0.5096724367584206","-0.391463711031247","-0.5780933506729493","0.7391095581657675"
"0.04967228490123151","0.04165750588751008","-0.03808661013505725","-0.10667103704861924","0.09160495637312893","0.4077190565773736","-0.45791893452456933","-0.6429221046769694","0.7262962958467775"
"0.06847903493519641","0.024550868887551695","-0.01461708451140554","-0.07363139629538562","0.06421845817200478","0.24662252298018475","-0.5159592827579405","-0.6986083420906789","0.7064063210480392"
"0.08119306422913522","0.01832168058900592","0.009808095247395099","-0.033993069787659806","0.036446639145014934","0.0515253500986239","-0.5428757380596383","-0.7230279643254044","0.6952110599657584"
"0.0824697626648613","0.024690057020285587","0.021780919676489378","0.023278978383223167","-0.004728840038873962","-0.1465908659856321","-0.5440181548995654","-0.7181730637406508","0.6973193646075309"
"0.07231586997770653","0.041481962645480014","0.01805293299017701","0.0718862801592375","-0.044458767801502784","-0.31294402946789945","-0.5080459563545427","-0.688555531640727","0.7089558987543687"
"0.05251067629528918","0.05686952233443401","-0.004837495925900612","0.08781400953220495","-0.11892859896694713","-0.4405981070095104","-0.4496991060421668","-0.6353627078425568","0.7211317666467764"
"0.026605059318180708","0.056093600430313","-0.02206851432926328","0.08142520319038844","-0.19154601821177009","-0.527189313980702","-0.36284756238234067","-0.5629613643394917","0.7209683321784218"
"0.01050286879096886","0.049604732779651765","-0.04382181540229421","0.06631869922573466","-0.18757314510035997","-0.606014493420845","-0.2742963253753058","-0.49615371064059927","0.7092500807974069"
"0.003895039707719948","0.04261312590329498","-0.06702492349642718","0.075721874563366","-0.1624985718544299","-0.6563965970285226","-0.19521878899205694","-0.4335545169594688","0.6869903062075287"
"-0.01140319667633107","0.05222022321415873","-0.07266306191182398","0.07893168172786513","-0.13936974911426875","-0.6711763181735495","-0.1299895738147543","-0.36048034756014696","0.6636845510201821"
"-0.01968344294122116","0.09105059609468845","-0.10595492684083362","0.06742586126507899","-0.12887753482485792","-0.6118147452330969","-0.07612879938599443","-0.29360673053809216","0.6233325807834647"
"-0.005077473657688306","0.10929982224395486","-0.08800995076340404","0.033542851862744805","-0.13623213667507678","-0.492314996599087","-0.015692162171312755","-0.2294771877595937","0.5659997692847183"
"-0.0007832994319429636","0.11955196306547344","-0.06088492880449506","0.002402234694386564","-0.06359796435086833","-0.3255638242058534","0.027524630968369806","-0.18934510194758128","0.5207120781036961"
"0.0018009076581692446","0.11539709343162598","-0.08338791641407874","0.03889092588757763","0.013503775586032453","-0.058431892206610096","0.03337603429482582","-0.1671748290326941","0.504499378842933"
"0.009360965061880522","0.10300623346608447","-0.06413150521072354","0.01872132177952225","0.04017778925386337","0.19974483929589282","0.025852801446525096","-0.1727210252441898","0.5154658316695176"
"0.00948902003318639","0.06657841395132702","-0.041576886296969554","-0.004095554902085386","0.05252002216684049","0.29302453747819995","0.0035338773299000096","-0.19899157832685266","0.5471230881897775"
"0.007493095555614626","0.05881607875789154","-0.05915631274087341","-0.02246414333448734","0.10695795698137953","0.3190649985432472","-0.038150405414758205","-0.23194421604586798","0.5902861312821918"
"0.006335786717196262","0.05928869517874169","-0.06385682667253754","-0.030166140129926147","0.10258300996471825","0.33915959477983537","-0.0779399480346595","-0.2648862996331773","0.6274838162796681"
"0.004910814104168667","0.06989192248432036","-0.0704491115890015","-0.04965796851998291","0.10605329069456444","0.37478624607852074","-0.11276972973975488","-0.29649592409260583","0.6534535533011926"
"0.002722325759971557","0.07688768423031098","-0.0677684142764795","-0.017651358086937515","0.14836917592519247","0.4460152798398569","-0.15715680354472875","-0.3359419913437292","0.6877584482087947"
"0.009161661459923287","0.0823835380384827","-0.07463124722679582","-0.032567237630904196","0.12014263045774003","0.5055710034685856","-0.2075067359776147","-0.3802825371735036","0.7171929959594339"
"0.015202389955960545","0.08387513623703394","-0.06802037504083057","-0.06313453741280196","0.12945973589311327","0.5362468122162275","-0.26785978171620406","-0.4422880609461723","0.738243355483489"
"0.019415687357723234","0.07609306541283767","-0.06348508128251139","-0.09607116395889659","0.13541665226317343","0.5463183791705561","-0.3349280093675362","-0.5080403014744662","0.7496837682683015"
"0.03045826228935398","0.0562462918893569","-0.04979452466871455","-0.12228683555137145","0.09278963841538677","0.509502554906179","-0.3991262630063681","-0.5773809467827953","0.7451076031543766"
"0.05162488250881257","0.040256276103495026","-0.03428241564378952","-0.09862245039738571","0.09029342958695259","0.40703952916840686","-0.4590613513644964","-0.6407585076772423","0.7277672060619677"
"0.06825373521124475","0.026034157346835233","-0.016797990799559022","-0.054699888172197036","0.07175016400429855","0.2552379597724418","-0.5140645426331832","-0.6857323014093758","0.7175852386834846"
"0.08160033680704783","0.022228296762230978","0.004858656472065104","-0.03005927492438944","0.030109188543199265","0.05106909598117479","-0.5576435655025987","-0.7175134305090266","0.7066024424100644"
"0.0812893461624479","0.029989593238257995","0.018464537747022645","0.014496776537224063","-0.00931822647166918","-0.14188756556214083","-0.558507344088885","-0.7146242369545129","0.7063572907075328"
"0.07289741285491509","0.03745797140509877","0.006000121344662105","0.05947451232338784","-0.060438812238180754","-0.3011008374830504","-0.5202781756893723","-0.6851650168301789","0.7169805311505731"
"0.054473864915534645","0.0517444906410832","-0.008460774327355609","0.09356451288959944","-0.10843399138048121","-0.4296285931219043","-0.46669603951425337","-0.6352175885315996","0.7256098710796888"
