"AccX","AccY","AccZ","GyroX","GyroY","GyroZ","MagX","MagY","MagZ"
"-0.02028631717623945","0.04610176084729329","0.021433310713595638","-0.03303483754643782","-0.018581650802985038","-0.008227737821558825","-0.08028684079351571","-0.3844991085017559","0.010243935688492793"
"-0.025224392586031683","0.05418062346786276","0.025390356342404056","-0.03425176340218623","-0.047224267243893545","0.0393210197850402","-0.07453714799463124","-0.38436395630451825","0.010527345164028097"
"-0.02028631717623945","0.06425227220150605","0.03743973852742426","-0.043311100328313375","-0.11409507694258827","0.09958179218034223","-0.06688082131425147","-0.4025250328083179","-0.006683339350297807"
"-0.00850198055861511","0.09247443228936207","0.053463990871112366","-0.025530461435989218","-0.21177666926696148","0.1701286223436024","-0.051558237568692426","-0.4206269802258261","-0.0346120549394135"
"-0.1088106664285464","0.11684566786141334","0.055068198558467125","-0.019581046141219156","-0.21520008955870354","0.24698294076079924","-0.028574361950353643","-0.45304661353819026","-0.05214479567593861"
"-0.15896500936351204","0.0029875639955208397","0.10531554823239013","-0.047705554807404904","-0.2258126924631039","0.26736097973505596","-0.0017573577994253315","-0.47459494198525676","-0.06382899541732606"
"-0.0025969191025189175","-0.09813286647194046","-0.11975479030348278","-0.008020250511609152","-0.1070200083396547","0.28715678902433395","0.02888284449929322","-0.5032303137749687","-0.05928156155987316"
"-0.025211499438747613","-0.02348417585787848","-0.1703586305745958","-0.00896674839941348","-0.14798693783083458","0.23038939473890446","0.04229382917095725","-0.5138904433320828","-0.05956497103540847"
"0.3101263682721834","0.06764539450214524","-0.07023824635379919","-0.03709125706559922","-0.0715305513152621","0.028355694051273486","0.04037726490466245","-0.5176747048547349","-0.059874145008719674"
"0.268829617521362","0.027385729109640673","-0.20228236355295548","-0.08204990673630479","0.08069753765753446","-0.17115501133478284","0.01739338928632374","-0.4887690286705478","-0.03695662423702377"
"0.21965515377998454","0.17574057636536486","-0.30887305211274957","-0.09577412610946756","0.16913589519420413","-0.3696953339125412","-0.02091307007757405","-0.4529790374395715","-0.02493748602454917"
"0.027882481076982064","0.13577713593561452","0.12998469755793446","0.09156484868380335","0.1684512111358557","-0.36406711362441313","-0.05347480183498715","-0.4168511657155013","-0.023430262904656846"
"-0.17370187670918447","-0.0574827227194417","0.1257246349215146","0.08345200964548055","0.24194063339858513","-0.2175393095714243","-0.07070898465444146","-0.39166217495534755","-0.00612940264811516"
"-0.2907329746065323","0.034522057757810365","0.16878869906206015","-0.06142977418056765","0.024781672892414282","-0.14117018255837652","-0.08028684079351571","-0.38071484697910374","0.005206976373297106"
"-0.21403164141370182","0.07472786406617779","0.032110204099434554","-0.1273465913669405","0.025238128931313223","-0.0054136276774948","-0.07837027652722091","-0.3842963802058995","0.03216952329581516"
"-0.2081265799576056","0.007121248703045555","0.06362397289102585","-0.06832568736314204","-0.0940110112310349","0.08958684925487347","-0.07070898465444146","-0.38794548953131414","0.02094908451439461"
"-0.2464836931276629","0.0061921795016800655","0.09897001560240908","0.05539510797128082","-0.08385486436553352","0.0729933032329787","-0.0649642570479566","-0.39880834738428456","-0.0010022675907037039"
"-0.26024068127974725","0.0031895355610350785","0.08522730308073663","0.07371660279949317","-0.04083388269930838","0.059116829074318165","-0.061131128515367","-0.4061065660351137","-0.023224146922449347"
"-0.15010741717936774","0.010043104017484844","0.0874197202534548","0.07689413142283627","-0.05201705565233242","0.08230897819263891","-0.05730296517517708","-0.4208381555340099","-0.03499852240605256"
"0.2570194946091696","0.23217143177004265","-0.24158545189314712","-0.0036934030245036526","-0.10599298225213209","0.24756517044577794","-0.028574361950353643","-0.44582441799830713","-0.046425077169680605"
"0.37503047170010534","0.26017815552135015","0.006532003751055865","0.1659325398684291","-0.175374300164771","0.4103954056781721","0.009732097413544184","-0.4853310946533169","-0.09085595358428394"
"0.17638575149470292","-0.3678456950596525","-0.16980607014895135","-0.07583006347359064","-0.07369871750003207","0.19438819255105091","0.0250546811591033","-0.5070821513962398","-0.05991279175538358"
"0.14786610970237804","0.25453641645798586","-0.2095191226759114","-0.2197653494118345","-0.048479521350865626","-0.06421882586034992","0.019304988360218826","-0.49626997561723346","-0.03775532366807781"
"-0.026191378632335637","0.056200339123005136","-0.06551474594103239","0.1393629920179219","0.11139420627348819","-0.19570569638472068","-0.0036739220657201325","-0.4708106804626045","-0.058019101168852255"
"-0.09109548206025772","0.006892347595462749","-0.015463466095563854","0.14619129820851023","0.26419286529490843","-0.2855631444331099","-0.032402525290543494","-0.4459595701955448","-0.05727193073335009"
"-0.1019128326315781","-0.05461472648913954","0.02481997138690014","0.03754686208697064","0.2064511763741925","-0.18503148549344337","-0.04772510903610268","-0.42434366564985954","-0.029304568397570483"
"-0.06258873341521688","0.02902843117582313","0.11574289820019608","-0.03709125706559922","0.12554434347935534","-0.10817716707624657","-0.05539136610128195","-0.41333720858732426","-0.007095571314712799"
"0.014125492924897655","0.0954636114589728","0.12606330098884502","-0.008696320431469387","0.006181089307282468","-0.05364165324990238","-0.05921952944147187","-0.40968809926190963","-0.01235152886100395"
"-0.030136681701255826","0.06528905957114577","0.0038226752124122664","0.03531583135143187","-0.02451557930867126","-0.0036669386225585084","-0.061131128515367","-0.41353993688318064","-0.023520438646872633"
"-0.054723913571944616","0.0733948517337838","-0.09296452192465832","-0.006532896687916636","-0.05498401990517552","0.038059522134252885","-0.05539136610128195","-0.4170538940113576","-0.023636378886864342"
"-0.0144070420147113","0.03197721603233098","-0.061040788946298566","-0.003963830992447746","-0.024972035347570202","0.05271230253955177","-0.05347480183498715","-0.4244112417484783","-0.024396431571254484"
"0.006260673081625415","-0.017505817518657065","-0.012041156362540363","-0.0005834813931465754","-0.014701774472344047","0.03417799090106112","-0.051558237568692426","-0.42434366564985954","-0.02407437534905528"
"-0.02423162024515959","0.03300053863093646","0.003056220428453878","-0.025530461435989218","-0.016527598627939805","-0.015117455760474192","-0.051558237568692426","-0.4206354272381534","-0.023765201375744033"
"-0.03700872920365602","0.06932849088143052","-0.02442920461489102","-0.0030173331046434186","0.02706395308690898","-0.039377025967922676","-0.05539136610128195","-0.4171214701099764","-0.023520438646872633"
"-0.03800150154452807","0.0834530356963928","-0.0473871990739236","0.03416651248766947","0.07293778499625247","-0.04636378218766784","-0.061131128515367","-0.41353993688318064","-0.023597732140200434"
"-0.00848908741133104","0.020868779929047947","0.022039344728818553","0.09251134657160767","0.09507590288285106","-0.039377025967922676","-0.0649642570479566","-0.4063092943309702","-0.02328855816688919"
"0.004300914694449367","-0.015472637092480417","0.06526382963809961","0.029095988088717707","0.05502188546946907","-0.03239026974817751","-0.06688082131425147","-0.4063092943309702","-0.023211264673561376"
"-0.017346679595475374","0.023911818182795783","0.0418423974027201","-0.04926051562308344","0.015310210085261273","-0.015020417479644398","-0.06879738558054627","-0.40266018500555545","-0.012248470869900201"
"-0.009481859752203134","0.03800943345568953","0.016549389532093374","-0.04648862895165648","-0.02383089525032285","-0.010071465157324908","-0.06879738558054627","-0.40266018500555545","-0.011926414647700983"
"-0.03307631928201985","0.014850027276723686","-0.03319887330576371","-0.09239377651016636","-0.03467172617417269","0.012053262871868108","-0.0649642570479566","-0.39880834738428456","0.004176396462259631"
"-0.02914390936038378","0.08645567963703786","0.00626463580316341","-0.08455136543978768","-0.02132038703637868","0.033498722935252565","-0.061131128515367","-0.4061065660351137","0.009548294248542491"
"-0.03406909162289195","0.08343957092535857","0.05833008752275514","-0.020527544029023483","-0.0868218286183766","0.07425480088376601","-0.05347480183498715","-0.4169863179127389","-0.0018653782661975894"
"-0.05668367195912066","0.09963769047960036","0.052394519079542526","-0.020527544029023483","-0.1296145822651522","0.1622685215963891","-0.04198038142961789","-0.4387289276433342","-0.008254973714629962"
"-0.08127090382980948","0.10270765827541674","0.033268798540301875","-0.03337287250636793","-0.12311008371084232","0.22602267210156368","-0.015168342471089329","-0.46020123297945464","-0.014386924185302963"
"-0.14616211411044755","0.044364805383870845","0.07913131386878855","-0.005586398800112308","-0.14114009724735047","0.2677491328583751","0.011648661679838983","-0.48897175696640416","-0.01544326859411639"
"0.00035561162552922394","-0.020535391001370626","-0.08143205110556352","0.02727059930509507","-0.1321250904790964","0.2797818796812696","0.0403722997122627","-0.5139664664430289","-0.0324864838728987"
"-0.0635686126088049","0.002839451514143731","-0.07071950866000568","0.11096805538379208","-0.17799892238843987","0.19681414957179574","0.05569984865022157","-0.5244998908152326","-0.0706308228301734"
"0.145906351315202","-0.055099458246373696","-0.16258713555585497","0.006650466749357931","-0.04265970685490414","0.013023645680166047","0.0576164129165164","-0.5282165762392661","-0.06551657002164993"
"0.3337208278020001","0.19572229658024","-0.12781147779997562","-0.07576245648160461","0.018048946318654915","-0.07460192190913786","0.04611702731874746","-0.521188661982912","-0.05450224722243684"
"0.28948443947041474","-0.008982617453956272","-0.19217585512262053","-0.04986897855095764","0.21261333289932818","-0.21880080722221162","0.019304988360218826","-0.4924181379959624","-0.026277239908897895"
"0.20293274175256784","0.17376125502332532","-0.1140509407484436","-0.09367830935790082","0.14619897923953237","-0.36843383626175386","-0.015168342471089329","-0.45649299456774856","-0.013704164994240646"
"-0.03898138073811609","0.11473169880903099","0.08581551256610005","0.0175351924591077","0.14346024300613874","-0.3692101425083922","-0.04964167330239748","-0.4168511657155013","-0.0022003167372847735"
"-0.251395982242887","0.0021796777334638913","0.12144674775523523","0.1311825459876131","0.18362837442924548","-0.2354913915249362","-0.06688082131425147","-0.3988759234829033","-0.01734984142953572"
"-0.29367261218729634","-0.015903509765577455","0.19436689941043886","0.04160328160613204","0.04703390478873761","-0.13622123023605703","-0.07262058372833644","-0.39166217495534755","0.004588628426674618"
"-0.2248360988377381","0.0021123538782924804","0.027208458388072784","-0.20353967133518885","0.032313197534246794","-0.014244111233006047","-0.07070898465444146","-0.3915945988567288","0.03193764281583173"
"-0.2553283921645232","0.02335976257039021","0.02114811823584369","-0.12545359559133182","-0.1295004682554275","0.08065932741853242","-0.061131128515367","-0.39880834738428456","0.031319294869209244"
"-0.2632061051550794","0.011268398181604551","0.06642242407896694","0.06377837497754772","-0.07244346339305999","0.06445393451995683","-0.05921952944147187","-0.40603898993649495","0.004060456222267916"
"-0.26025357442703134","0.010258540354033363","0.08385481428155533","0.11245540920748458","-0.04345850492297728","0.02146597611235812","-0.061131128515367","-0.4061741421337326","-0.02877639619316378"
"-0.15501970629459189","0.030226795797874264","0.10016425910299541","0.11090044839180604","0.03151439946617364","-0.0032787854992393332","-0.061131128515367","-0.4061741421337326","-0.023095324433569667"
"0.26980949671495","0.14241526805551574","-0.3342908316923928","-0.04364913528824349","0.12349029130431012","0.12257986473700339","-0.04581350996220756","-0.42414093735400316","-0.0018653782661975894"
"0.3347136001428721","0.47942502227257155","-0.07572820155052437","-0.016133089549931964","0.023298190765992724","0.3150067756224848","-0.017079941544984448","-0.4565605706663673","0.002089472142408737"
"0.09279947765218824","-0.5059673163293219","-0.1477393021828936","0.2526723105864972","0.08526209804652385","0.31432750765667616","-0.0017573577994253315","-0.4819522897223774","-0.004493357039343164"
"0.20392551409343987","0.04567088817419625","-0.10633291931928132","-0.032426374618563604","0.05159846517772702","-0.14670136456567479","-0.013251778204794527","-0.4638503423048692","-0.009143848887899786"
"0.010180189855977467","-0.015526496176617546","-0.038439285084455925","0.0010390864145179864","0.09267950867863164","-0.15815188170359046","-0.026662762876458523","-0.4456892658010696","0.00251458635571169"
"-0.127479943695855","0.06639317079595697","-0.07251978617581485","-0.06426926784398064","0.09016900046468745","-0.16824386290988902","-0.04198534662201764","-0.4276548944821802","0.030430419695939417"
"-0.17665440743723257","0.03632633707640422","-0.08982740466938678","-0.10016858058855908","0.07944228355056238","-0.13263081384535466","-0.05347480183498715","-0.4131344802914679","0.0474478704769458"
"0.0013354908191172024","0.10456579667814773","0.09542293416036911","0.11745832661445033","0.11949630096394437","-0.13204858416037588","-0.061131128515367","-0.3987407712856658","0.031692880086960334"
"0.030835011805030205","0.05809887183883897","0.04387439380670279","0.10001572268205627","0.02717806709663372","-0.051992002475795884","-0.0649642570479566","-0.39880834738428456","0.020717204034411175"
"-0.04783897292226042","0.004791843314114689","-0.049490493597344275","0.025715638489416534","0.005039949210035118","0.031072765914507715","-0.061131128515367","-0.40238988061108033","0.02078161527885102"
"-0.026191378632335637","0.05418062346786276","-0.07752847906633359","-0.037699719993473435","-0.03661166433949317","0.04853965646387062","-0.05921952944147187","-0.40603898993649495","0.020485323554427743"
"-0.025224392586031683","0.046115225618327566","-0.07743935641703611","-0.019310618173275066","-0.01139246819032673","0.02641492843467761","-0.057307930367576754","-0.413404784685943","0.030765358167026594"
"-0.02323884790428754","0.02593153383793816","-0.043786644042305124","0.02598606645736063","0.012115017812968691","-0.0029876706567499517","-0.057307930367576754","-0.40975567536052837","0.025663987607391074"
"-0.02423162024515959","0.023911818182795783","-0.0010255969093709992","0.04471320323748911","0.009262167569850314","-0.02666501117921967","-0.0649642570479566","-0.40624171823235133","0.009677116737422178"
"-0.02028631717623945","0.03197721603233098","-0.02642555195915471","0.02598606645736063","0.010631535686547134","-0.018901948712836153","-0.0649642570479566","-0.40624171823235133","0.020201914078892432"
"-0.02718415097320764","0.05014119215757803","-0.0467811650587007","-0.003084940096629442","-0.009566644034730969","-0.0014350581634732485","-0.0649642570479566","-0.40624171823235133","0.009355060515222962"
"-0.022258968710699517","0.026941391665509344","-0.038439285084455925","0.00043062348664377604","-0.004431513597117892","0.008268769919506144","-0.0649642570479566","-0.40624171823235133","0.009355060515222962"
"-0.01931933112993549","0.02894764254961742","-0.026354253839716728","-0.0036934030245036526","-0.005572653694365242","0.0028346261930376846","-0.0649642570479566","-0.40995840365638475","0.009097415537463592"
"-0.02323884790428754","0.03500678951504453","-0.03854623226361291","0.0032025101580707366","0.0011600728793941255","-0.006772163609111914","-0.0649642570479566","-0.40624171823235133","0.009355060515222962"
"-0.022258968710699517","0.02593153383793816","-0.04512348378176743","0.018481690346912032","0.01610900815333442","-0.021716058856900176","-0.06688082131425147","-0.40624171823235133","0.009213355777455313"
"-0.015374028061015257","0.0097738085967992","-0.022112015733156368","-0.005856826768056402","0.005154063219759852","-0.033651767398964826","-0.07262058372833644","-0.3990786517787597","0.009651352239646239"
"-0.021279089517111494","0.02290196035522461","-0.027673269049319528","-0.025260033468045125","0.0033282390641640913","-0.037242183789667205","-0.07262058372833644","-0.3990786517787597","0.009586940995206397"
"-0.021279089517111494","0.03199068080336526","-0.018404513522380917","-0.020865578988953602","0.007094001385080348","-0.05228311731828527","-0.07645371226092604","-0.3917973271525852","0.020742968532187107"
"-0.02914390936038378","0.051164514756183485","-0.014768309431043463","-0.02215011183668805","0.006409317326731939","-0.05140977279081712","-0.08028684079351571","-0.3844991085017559","0.02118096499437804"
"-0.02029921032352347","0.06223255654636367","0.008047088789113139","-0.021474041916827814","-0.0006657512762016354","-0.02812058539166658","-0.08411996932610531","-0.38084999917634127","0.021361316478809594"
"-0.026191378632335637","0.0632558791449691","0.038544859378713096","-0.04459563317604782","-0.06057560638168755","0.02796754092795431","-0.08028684079351571","-0.39186490325120393","0.020742968532187107"
"-0.039961259931704116","0.10262686964921106","0.03808142160236617","-0.053925398070119056","-0.0994884836978222","0.11045007963327914","-0.07070898465444146","-0.4027277611041743","0.00940658951077484"
"-0.03898138073811609","0.12481681231370854","0.0472075808904288","0.02977205800857794","-0.1825634827774293","0.20807059014805185","-0.05347480183498715","-0.43183616558421783","-0.013717047243128607"
"-0.11962801699986675","0.051353021550663444","0.03407090238397926","-0.0399307507290122","-0.16635929339651692","0.33645223568586924","-0.01899650581127918","-0.46776975602475895","-0.02587789019337086"
"-0.03209644008843183","-0.013385597582166637","0.029899962396856886","-0.02181207687675793","-0.1876986132150424","0.32315799121218747","0.01547682502002887","-0.4999866610412668","-0.03186813592627621"
"-0.06356861260880486","-0.06377077079245161","-0.141910680918838","0.04971612064445485","-0.13292388854716952","0.2843426788802699","0.04229382917095725","-0.5212562380815308","-0.043771333898759104"
"-0.02029921032352347","0.011793524251941575","-0.11032561400780869","0.03883139493470508","-0.10393893007708686","0.03553652683267824","0.04037726490466245","-0.5213913902787685","-0.060054496493151276"
"0.3622533627416091","0.030213331026839988","-0.09139596329702253","0.048499194788706436","-0.02189095708500235","-0.03995925565290144","0.03462757210577798","-0.5140255955293204","-0.06524604279500258"
"0.3337208278020001","-0.04638775138719295","-0.2496064903299209","-0.12329017184777907","0.1085413560303698","-0.2179274626947435","0.009732097413544184","-0.4926884423904377","-0.04284381197882537"
"0.21670262305193627","0.20804256207660846","-0.23973170078775943","-0.23105571707350042","0.07567652122964612","-0.28983282878962074","-0.015168342471089329","-0.46020123297945464","-0.008950615154580264"
"-0.00850198055861511","0.18426377643006564","0.0887209109331981","0.007596964637162256","0.112763574390185","-0.34300980668434783","-0.04964167330239748","-0.42414093735400316","-0.012518998096547537"
"-0.2218964612569741","-0.0009172196044210689","0.12982427678919897","0.09974529471411218","0.16445722079549","-0.2733363210485558","-0.06879242038814652","-0.39158615184440143","-0.0115528294299499"
"-0.27598321411357585","-0.001819359263718002","0.16153411540924476","0.05093304650020328","0.05559245551809274","-0.1843522175276348","-0.08411996932610531","-0.38456668460037463","-0.011205008709974748"
"-0.19140416793018905","0.04138909098529443","0.06223365956198506","-0.1307945479582277","0.035736617825988845","0.02272747376314544","-0.07645371226092604","-0.38436395630451825","0.010643285404019811"
"-0.23271381182829443","0.01827007911943144","0.025497303521561036","-0.14174688065996346","-0.09503803731855752","0.07444887744542561","-0.07262058372833644","-0.39166217495534755","0.015512775483671904"
"-0.2897402022656602","0.013341972920884048","0.08317748214689442","0.013478772939946296","-0.08077378610296564","0.04795742677889186","-0.07262058372833644","-0.39166217495534755","-0.006193813892555001"
"-0.2789228516943399","0.01736793946013451","0.0713598188500477","0.1087370246482533","-0.014473546452894576","0.01253845427601708","-0.07453714799463124","-0.3917297510539663","-0.02261868122471482"
"-0.15699235782905194","-0.015136017816623356","0.05007733019780788","0.11434840498309326","0.054565429430570134","0.01971928705742183","-0.07070898465444146","-0.3953028372684348","-0.03895337281465888"
"0.2668569659869019","0.10717796225879853","-0.29370437720231735","0.007596964637162259","0.061754612043228435","0.11743683585302431","-0.05730296517517708","-0.41326963248870535","-0.02368790788241622"
"0.26783684518048995","0.4732177628257673","-0.04549779890881688","-0.030533378842954952","-0.09823322959085011","0.27531811876309903","-0.034319089556838364","-0.4348770900220633","-0.04043483143677526"
"0.1596633394672864","-0.40409285868394085","-0.2075940734510857","0.15869859172592463","0.05342428933332278","0.2904560905725469","-0.011340179130899406","-0.47121613705431725","-0.04214817053887507"
"0.20981768240225204","0.06891108297936778","-0.2177005818814207","-0.09178531358229217","0.013598499939390246","-0.08382055858796829","-0.017079941544984448","-0.46026880907807344","-0.03617080705485768"
"-0.022271861857983587","0.04207579430804283","-0.11749107501132665","0.08466893550122898","0.12497377343073167","-0.2171511564481051","-0.04198534662201764","-0.4314307089925051","-0.03502428690382849"
"-0.09011560286666974","0.015940673730500572","0.029810839747559395","0.1012326485378047","0.23429499474702786","-0.2302513243601273","-0.05921952944147187","-0.40603898993649495","-0.028557397962068312"
"-0.09011560286666974","-0.0627070538807433","0.02360790335645432","0.029434023048647822","0.13661340242265466","-0.1430139098941426","-0.07262058372833644","-0.3917297510539663","-0.017130843198440264"
"-0.08519042060416156","-0.03447142902185297","0.035746408190772","-0.026814994283723664","0.05171257918745175","-0.11671653578926844","-0.08028684079351571","-0.38456668460037463","-0.000602917875176679"
"-0.00455667748969492","0.13382474413564352","0.03572858366091251","-0.03303483754643782","-0.033416472067200595","-0.05926987353803043","-0.08411996932610531","-0.3772008898509266","-0.011024657225543197"
"0.016085251312073705","0.12672880980057669","-0.013181926273548193","0.030110092968508056","-0.023488553221148647","0.0568849486152329","-0.07837027652722091","-0.3844991085017559","-0.011578593927725832"
"-0.03012378855397176","-0.0668542033593023","-0.08968480843051078","-0.0008539093610906685","-0.001921005383173721","0.050965613484615466","-0.07645371226092604","-0.39186490325120393","-0.011836238905485208"
"0.00330814235357732","-0.018502210575193967","-0.046852463178138674","-0.029586880955150625","-0.03638343632004371","-0.02423905415847482","-0.07645371226092604","-0.3917973271525852","-0.011836238905485208"
"-0.02816403016679571","0.06427920174357463","0.015889881927291967","9.258852671365898e-05","0.0036705810933382967","-0.05354461496907259","-0.08411996932610531","-0.38463426069899337","-0.011539947181061926"
"-0.03700872920365602","0.06528905957114577","0.0009885749647521923","0.026932564345164958","0.015196096075536538","-0.047140088434306185","-0.08603156840000044","-0.3772008898509266","-0.011024657225543197"
"-0.017346679595475374","0.048108011731401376","-0.026514674608452207","0.013208344972002201","0.000247160801596245","-0.014923379198814604","-0.08794316747389555","-0.38098515137357886","-0.02220644926029984"
"-0.013414269673839253","0.0097738085967992","-0.004715274590286962","-0.015524626622057752","-0.03467172617417268","0.04397885726487031","-0.08411996932610531","-0.3847018367976123","-0.022386800744731403"
"-0.022258968710699517","0.020882244700082236","-0.022343734621329832","-0.024313535580240794","-0.0399209706215105","0.03631283307931659","-0.08220340505981051","-0.38463426069899337","-0.022386800744731403"
"-0.01931933112993549","0.03197721603233098","-0.03710244534499362","-0.01430770076630933","-0.011278354180601996","0.001864243384739745","-0.08220340505981051","-0.39193247934982267","-0.022747503713594516"
"-0.014394148867427278","0.019858922101476762","-0.026176008541121756","0.027541027273039167","0.010631535686547134","-0.015311532322133777","-0.08603156840000044","-0.3847018367976123","-0.028067872504325506"
"-0.010461738945791157","-0.003354343161626195","-0.004519204761832489","0.034369333463627534","0.014853754046362333","-0.02715020258336864","-0.08603156840000044","-0.38483698899484975","-0.028080754753213477"
"-0.005549449830567013","-0.001334627506483833","0.002254116584776499","-0.007073752623804824","0.003100011044714621","-0.021716058856900176","-0.08794316747389555","-0.38098515137357886","-0.02227086050473968"
"-0.011441618139379182","0.01682934861876321","0.008635298274476557","-0.0483140177352791","-0.008653731956933088","-0.012885575301388931","-0.08794316747389555","-0.38098515137357886","-0.02220644926029984"
"-0.03602885001006795","0.07740735350200002","-0.0057669218519972925","-0.05460146798997929","-0.012875950316748286","-0.000949866759324279","-0.08794316747389555","-0.3810527274721976","-0.016847433722904943"
