"AccX","AccY","AccZ","GyroX","GyroY","GyroZ","MagX","MagY","MagZ"
"-0.1594162695184539","0.06033402383052985","0.04934652447356848","-0.0572381406774342","0.10831312801092033","-0.18668113626754987","0.06676229731681449","0.35760471250513387","-0.2524251191371848"
"-0.15351120806235768","-0.0007421775809754042","0.11030641659304939","0.03112419784829841","0.04657744874983868","-0.12574109590643928","0.06205529492187276","0.36365277333151563","-0.24455406506663604"
"-0.009701043256032025","-0.0012673036513124161","0.08141285369080421","-0.028843204043304364","0.04520808063314185","-0.028508738514985754","0.06205529492187276","0.3667781678926347","-0.2408182128891252"
"0.047441385506890255","0.0035396196079264196","-0.003521031089700637","0.05843742261065187","0.03893181009828142","-0.009489235472346145","0.06205529492187276","0.3698021983058254","-0.2368375979827429"
"0.1262443017070214","-0.02679650953231197","0.005836847086535473","0.0434962773817407","-0.09252752910461334","0.060378326725105486","0.06519329651850057","0.3637541374794438","-0.2617647495809619"
"-0.04318454675271733","0.002852916285178012","0.03287665888339293","0.016453480587331325","-0.13246743250827062","0.03990324947001896","0.06676229731681449","0.36072166005392553","-0.2741961197578515"
"-0.0372794852966211","-0.127378349158402","0.012360625015111494","0.04910765771658064","0.09541824491202527","-0.049663083735880825","0.0636242957201867","0.3698528803797895","-0.26207392355427317"
"-0.03629960610303307","-0.07027425520201004","0.06080769717322527","0.013816807899876412","0.10968249612761716","-0.04160890642700793","0.06205529492187276","0.3759516232801352","-0.24559752722656147"
"-0.02644924157801669","-0.050279070216100584","0.03790317630377119","-0.08590350527950812","0.08663146616322068","-0.026762049460049463","0.06048629412355892","0.37283467573134355","-0.22020661466837557"
"0.012965109669332899","-0.05443968446569387","-0.023056715815709724","-0.08989231780668351","0.08046930963808499","-0.034039920522284","0.05891729332524498","0.37586715315686176","-0.19503470034128517"
"0.004094624337904498","-0.000297840136844078","-0.020044370269454683","-0.03986314373702618","0.0628957521404758","-0.023171633069347088","0.05891729332524498","0.381974343069535","-0.1867900610529853"
"-0.0057428470398278135","-0.03132067259983087","0.016460266882795883","-0.020527544029023483","0.040301178214978244","-0.03927998768709288","0.05891729332524498","0.38201657813117157","-0.18279656389771506"
"-0.012640680836796097","-0.032303600885333496","0.024534778909148184","0.018076048394995888","0.015424324094986008","-0.011235924527282434","0.05891729332524498","0.38201657813117157","-0.18279656389771506"
"-0.0057428470398278135","-0.018300239009679732","0.029596945389245427","-0.012549918974672723","-0.019608676890507652","0.02078670814654956","0.05735325771933082","0.381974343069535","-0.18284809289326687"
"-0.008708270915159978","-0.04933653624370081","0.009989962543798348","-0.0358743312098508","-0.017326396696012953","0.008850999604484908","0.05891729332524498","0.381974343069535","-0.18284809289326687"
"-0.005755740187111837","-0.05135625189884318","-0.0032893122015271734","-0.00720896660777687","-0.003518601519320012","0.008850999604484908","0.05891729332524498","0.3788996305823799","-0.1867900610529853"
"-0.007715498574287885","-0.04233485530587393","0.005872496146254464","-0.0035581890405316056","-0.015158230511242987","0.018845942529953683","0.05891729332524498","0.37590938821849845","-0.18253891891995572"
"-0.015606104712128262","-0.04330431882034227","0.0045000073470731535","0.0007686584465738933","-0.0012363213248253108","0.008850999604484908","0.05891729332524498","0.3727924406697068","-0.1905259132304962"
"-0.005755740187111837","-0.04334471313344511","-0.0060699388596087535","0.008070213581064424","0.0032141250544393566","0.011179918344399962","0.05891729332524498","0.3697177281825519","-0.19026826825273682"
"-0.009701043256032025","-0.04933653624370081","-0.010009159958557667","0.007732178621134306","-0.009452530025006236","0.015255526139251309","0.06048629412355892","0.3697599632441887","-0.19026826825273682"
"-0.013620560030384078","-0.05232571541331152","-0.006016465270030259","0.009084318460854774","-0.005686767704089977","0.008268769919506144","0.06048629412355892","0.36668525075703373","-0.1899333297816496"
"-0.018558635440176358","-0.05131585758574033","-0.007460252188649551","0.016453480587331325","0.0011600728793941255","0.006133927741250677","0.05891729332524498","0.3697177281825519","-0.19026826825273682"
"-0.022503938509096502","-0.05329517892777986","-0.018119321044628944","0.025107175561542322","0.005496405248934058","0.00021459261063324817","0.05891729332524498","0.3697599632441887","-0.19020385700829695"
"-0.018558635440176358","-0.0593273963511384","-0.03266413740997879","0.03112419784829841","0.018277174338104385","-0.006772163609111914","0.05891729332524498","0.3727924406697068","-0.19057744222604803"
"-0.015593211564844148","-0.06333989811935456","-0.025908640593229303","0.03545104533540391","0.03162851347589838","-0.02045456120611286","0.05891729332524498","0.37582491809522495","-0.18627477109746657"
"0.014937761203793016","-0.0484209318133696","0.030327751113484815","0.03707361314306848","0.02831920719388107","-0.01831971902785739","0.05735325771933082","0.37586715315686176","-0.18684159004853718"
"0.011985230475744875","-0.02737549468678611","0.079398681816681","0.005095505933679393","-0.009566644034730969","0.00817173163867635","0.05891729332524498","0.37586715315686176","-0.1908350872038074"
"-0.007715498574287885","0.006744235114085652","0.07998689130204442","-0.0251924264760591","-0.06616719285819957","0.047084082251423715","0.05891729332524498","0.3697177281825519","-0.1990153152476674"
"-0.011660801643208074","0.027762742698600573","0.06226930862170406","-0.017552836381638456","-0.11877375134130241","0.10491889762598088","0.06205529492187276","0.34832989296970507","-0.22228065673933853"
"-0.05698021434665392","0.08703466479151198","0.07446128704560023","0.010774493260505358","-0.2466955562427304","0.18885701054375265","0.06989533372104255","0.3269420577568584","-0.27123320251361877"
"-0.0747082918622266","0.11514910671109374","0.08823964862699167","0.06276427009775738","-0.36126602200636443","0.24310140952760748","0.08087337411684009","0.29963286690254","-0.33649467538006717"
"-0.08357877719365492","0.06512748231873443","0.09536946057079061","0.05715288976291743","-0.4244851833938676","0.3268454458837196","0.09968648811940767","0.2694685858815779","-0.40974314255705596"
"0.010012578941284803","-0.10649448928422987","0.04089769732016674","0.174180592890724","-0.4325872780843238","0.15615510990411208","0.11536160052534743","0.2668331180354451","-0.4896130856624606"
"0.02281547419434928","-0.05347022095122553","0.005088216832436572","0.033422835575823207","-0.22889377072567174","0.0858023563025115","0.12477560531523081","0.25472010235802717","-0.5096063359365877"
"0.15087021301956235","0.09334964240659044","-0.031933331685739405","-0.10591517490737107","0.01565255211443548","0.10006698358449119","0.12320660451691694","0.24242125240940748","-0.48732004536040224"
"0.4050199322828124","-0.1440073413857408","0.006835020758667326","0.030448127928438175","0.4012437909743152","-0.09032212340356448","0.10595752612026348","0.25730488813019586","-0.42548525069815346"
"0.3370601529485698","-0.09767506425677486","0.2013719396452213","0.024769140601612206","0.5851955746505881","-0.4067639571895225","0.082442374915154","0.30261466225409417","-0.3367136736111626"
"0.05926440156636675","0.07961557595162233","0.09164413383015568","-0.195291618312894","0.2591718488670201","-0.25616054534168226","0.07302837012527058","0.31789530755426787","-0.2830977537394378"
"-0.27566088543147454","0.15800747291321485","-0.0225932780393628","-0.2122609733013859","0.1055743917775267","-0.08624651560871313","0.06989533372104255","0.3208348678441852","-0.2452239420088104"
"-0.26383786937199805","0.07277547226620683","0.13354960352983392","-0.011603421086868394","0.16206082659127058","-0.055679457147328054","0.06833129811512839","0.32386734526970334","-0.22858007644555509"
"-0.15450398040322974","-0.10689843241525834","0.23912429388763667","0.15078857366355988","-0.03946451458261156","0.029811268263720398","0.06833129811512839","0.32694205775685825","-0.24573923196432912"
"-0.28058606769398275","-0.12545288690049958","0.029472173680228943","0.06641504766500264","-0.053158195749579765","-0.0007557901976646909","0.06989533372104255","0.32390958033134015","-0.2582221311367706"
"-0.2392119580594571","0.02361559322004158","0.03836661408011812","-0.11456886988158207","-0.03090596385325643","0.07211995870551054","0.0714593693269567","0.31171209453064863","-0.2528244688527118"
"-0.26481774856558604","0.02870527667100034","0.036744581862903865","-0.12795505429481469","-0.08864765277397237","0.10045513670781037","0.07773537252021231","0.2933482897309926","-0.2508406025239647"
"-0.03825936449020912","0.08260475512123304","0.14342439307199545","-0.06291712800426016","-0.06525428078040169","0.15266173179423947","0.082442374915154","0.26590394667943684","-0.26135251761654693"
"0.3331148498796496","-0.05759044088771596","0.08061074984712681","0.304188838479847","-0.053956993817652905","0.21563957605277576","0.09027744852192404","0.25993190896400126","-0.31580578366598977"
"0.47889766622043534","-0.008996082224990553","0.1450642498190692","0.18817524023183083","-0.25605290504015865","0.10356036169436378","0.09811748732109377","0.2540950234458033","-0.3529968362055548"
"0.010012578941284803","-0.03861857850041197","-0.40148930926269777","0.05350211219567217","-0.18393285089412612","0.016419985509208833","0.09811748732109377","0.2693756687459771","-0.38430070100331826"
"0.03759102098187387","-0.15071279736081344","-0.0733753636090707","0.0011066934065040116","0.17061937732062568","-0.10963274128869349","0.09184644932023785","0.2753899415230493","-0.3424849211129725"
"0.08093778215085963","-0.056715230770487596","0.14959168040338153","-0.24525318539056534","0.21580852517162077","-0.05470907433903012","0.08557541131938202","0.26594618174107354","-0.28249228804170323"
"-0.07273564032776647","0.014028676243632457","0.09118069605380875","-0.15290203433765734","0.008805711530951376","-0.12554701934477971","0.07930437331852622","0.2780254093691822","-0.27525246416666493"
"-0.12986517594340471","0.03224651145301662","0.03820619331138264","0.0864943242848516","-0.0204074749585808","-0.20123687839201893","0.07459737092358452","0.31171209453064863","-0.2910718658010903"
"-0.013633453177668191","0.09289184019142482","0.09299879809947748","0.15315481838307068","0.018505402357553855","-0.09624145853418191","0.0714593693269567","0.3208771029058219","-0.29610882511628595"
"0.05335934011027051","-0.00449884869954021","-0.0008117025510570388","-0.07062432509066684","-0.02360266723087338","0.03204314872280566","0.0714593693269567","0.3147445719561668","-0.2959027091340784"
"-0.041211895218257216","-0.0001497276554669753","0.09841745517676466","-0.015524626622057752","-0.07883384793764515","0.036118756517657","0.07616637172189837","0.3148290420794403","-0.30403140818238655"
"0.005074503531492568","-0.013304808955960938","0.06713540527334683","0.048769622756650526","-0.0093384160152815","0.012247339433527698","0.07459737092358452","0.314871277141077","-0.31252081019955774"
"-0.0067356193806998605","-0.004296877134025971","0.03608507425810246","0.04511884518940526","0.008349255492052435","-0.0324873080290073","0.07459737092358452","0.32409541460254176","-0.31749335827031366"
"-0.01658598390571624","-0.007245661990533835","0.027992737701890667","0.012397061068169922","0.025352242941037956","-0.033554729118135035","0.07302837012527058","0.3270772099540959","-0.3093646592220055"
"-0.0077283917215719535","-0.02231274077789591","0.07374830585122034","-0.013225988894532956","0.013142043900491306","-0.023656824473496058","0.07459737092358452","0.3332266349284057","-0.30564168929338265"
"-0.004762967846239789","-0.02632524254611208","0.07519209276983962","-0.005586398800112308","0.02489578690213902","-0.03782441347464597","0.0714593693269567","0.33625066534159653","-0.3056932182889345"
"-0.01461333237125617","-0.03428292222737302","0.020417312511604294","0.010436458300575243","0.05536422749864327","-0.05354461496907259","0.06989533372104255","0.3392831427671147","-0.2978350464672737"
"-0.017565863099304264","-0.031280278286728025","0.0043039375186186965","-0.012549918974672721","0.06803088257808886","-0.044617093132731545","0.06676229731681449","0.34539033267978775","-0.28170647085953715"
"-0.008708270915159978","-0.028304563888151606","0.043107939022744415","-0.0251924264760591","0.09507590288285106","-0.05432092121571094","0.06519329651850057","0.3514552875308241","-0.26073416966992446"
"-0.012640680836796097","-0.024305526890969712","0.05635156470835093","-0.02857277607536027","0.12063744106119176","-0.06402474929869033","0.06205529492187276","0.3575033483572057","-0.2358456648183693"
"0.005074503531492568","-0.01834063332278258","0.07383742850051782","-0.056900105717504076","0.13273352609201367","-0.04296744235862505","0.06205529492187276","0.360535825782724","-0.2151825376020679"
"0.03759102098187387","0.012574480971929956","0.09777577210182276","-0.07657374038543689","0.00846336950177717","0.019428172214932447","0.06205529492187276","0.354479317944015","-0.21036457651796767"
"0.02872053565044552","0.07169829058346426","0.11547553025230362","-0.02492199850811501","-0.25901986929300175","0.09259503596059707","0.06833129811512839","0.3422311500693594","-0.2725858386468554"
"-0.04416442594630531","0.1300142139329416","0.15372697133078492","0.06945736230437369","-0.4786893380131168","0.23475611737624522","0.07930437331852622","0.3118810347771956","-0.3545942350676629"
"-0.16238169339378603","-0.038793620523857646","0.09107374887465176","0.08284354671760633","-0.40828099401295526","0.32344910605467686","0.09655345171517961","0.28470699612011496","-0.41539844981887425"
"-0.06978310959971838","-0.07610450105985435","0.08171587069841565","-0.05095069042273402","-0.3409537282753616","0.19710526441428514","0.10909056252449158","0.2573978052657967","-0.45454760418941037"
"-0.057960093540241876","0.025904604295869597","0.12469081218966374","-0.1386369590286064","-0.284353179451893","0.29618134914150474","0.12633964092114497","0.21791646964776903","-0.4771559509877951"
"0.006067275872364615","0.030724992326142713","0.0968310720192694","-0.04324349333632735","-0.16088182092972964","0.21311658075120113","0.13574868051862862","0.20281321160646962","-0.5002022942483707"
"0.17254359360405525","-0.041042237286582815","0.05742103649992077","0.02213246791415729","-0.07655156774315046","0.068141389191489","0.14201475332708471","0.19381714347784326","-0.49950665280842044"
"0.22771337083251758","-0.012160303418046931","-0.006604674755393678","-0.09523327017357937","0.07875759949221395","-0.03588364785805009","0.13574868051862862","0.19354683908336814","-0.4739225065169149"
"0.2523263889977743","0.018835599502871298","-0.051005578635401554","-0.045609738055838164","0.27514781022848295","-0.1369004982018656","0.12163760371860295","0.20250067215035772","-0.4287573419156974"
"0.29172784709783994","-0.037352890023189415","0.0065854773406343586","0.07574481255907387","0.524943377515928","-0.29555808735857864","0.09968648811940767","0.24175393843554693","-0.3521594900278368"
"0.08979537433500391","-0.02878929564538577","0.18281660406148456","0.052082365363965676","0.5426310490232619","-0.3577596253704765","0.08087337411684009","0.28118459197961054","-0.2884696515257206"
"-0.16040904185932597","0.00029460978866434486","0.12998469755793446","-0.06920457825896034","0.18191666428337444","-0.18493444721261357","0.07459737092358452","0.2933482897309926","-0.2514203037239232"
"-0.30915728207544385","0.07600701731443467","0.13157108071542972","-0.04621820098371238","0.14277555894779034","-0.11487280845350234","0.0714593693269567","0.30552043449470206","-0.2226155952104257"
"-0.17123928557793036","0.09646000451550969","0.1532100599648595","0.013411165947960272","0.13467346425733415","-0.06538328523030745","0.06989533372104255","0.3146938898822027","-0.2106995149890548"
"-0.21163351601886798","-0.032572896306019145","0.10508382934421666","0.09115920673188721","-0.047452495263343004","-0.0037639769033883026","0.0714593693269567","0.3147445719561668","-0.231903696658651"
"-0.23429966894423296","-0.04050364644521151","0.11011034676459491","0.10380171423327357","-0.047452495263343004","0.01331476052265543","0.0714593693269567","0.3147445719561668","-0.24862485571523407"
"-0.24610979185642534","0.006623052174777105","0.08529860120017461","0.012126633100225829","-0.11089988467029571","0.09628249063212925","0.07616637172189837","0.3025724271924573","-0.2644829040963233"
"-0.018558635440176358","0.073879583491018","0.06544207493669459","-0.13755524715683","-0.12904401221652856","0.1786679910566243","0.08401137571346787","0.27508584907926487","-0.2706406190647722"
"0.3922170370297479","0.053386201976840096","0.09301662262933698","0.02544521052147244","-0.26221506156529434","0.31209562719759093","0.09811748732109377","0.23560451346123715","-0.33019525567385055"
"0.24542855520080606","-0.07631993739640286","-0.13770409187199664","0.2005473197652731","-0.2521730287095177","0.10870339057834284","0.1028195245236357","0.23877214308399283","-0.3857950418743226"
"0.1173867095228771","-0.09688064276575217","-0.15226673276720595","0.16985374540361847","0.10021103332046417","-0.14990362783305794","0.09655345171517961","0.2692911986227036","-0.38435222999887003"
"0.0858629644133678","-0.11480225301238214","0.03353616648819434","-0.12660291445509422","0.17632507780686246","-0.09759999446579903","0.09184644932023785","0.2691982814871028","-0.33351887588694645"
"-0.015606104712128262","0.004764913772046121","0.011772415529748084","-0.23930377009579526","0.17312988553456987","-0.08789616638281963","0.08401137571346787","0.2659039466794368","-0.27830555715311345"
"-0.11311697762142006","0.02516404188898405","0.037083247930234306","-0.11727314956102301","0.11755636279862389","-0.17445431288299584","0.07773537252021231","0.2903158123054745","-0.25484698192812283"
"-0.13578313054678498","0.02022247091940239","0.08367656898296036","0.11319908611933086","0.10500382172890302","-0.16533271448499517","0.0714593693269567","0.31161917739504785","-0.2528759978482637"
"-0.12200035610013246","-0.0038525396898946513","0.08421130487874527","0.12252885101340208","0.10340622559275674","-0.0931362335476285","0.0714593693269567","0.31781083743099436","-0.2449018857866112"
"0.012965109669332899","-0.06234350506281767","-0.001809876223188891","0.0034053311340288064","0.06974259272395988","-0.019581216678644712","0.06989533372104255","0.3207503977209117","-0.24070227264913346"
"0.1587608191574027","0.07623591842201745","0.11684801905148491","-0.07528920753770245","-0.13783079096533316","0.12558805144272697","0.07459737092358452","0.29638076715651074","-0.2642252591185639"
"-0.0963816724467194","0.04111979556460878","-0.040506930548157606","-0.08394290251191344","-0.2375664354647516","0.0728962649521489","0.07773537252021231","0.29646523727978424","-0.28510738456596085"
"0.033645717912953683","-0.12060556932815789","-0.07391009950485564","0.18486249762451568","0.04817504488598496","-0.05936691181886022","0.07459737092358452","0.3117543295922854","-0.29525859668967996"
"0.009019806600412711","-0.06743318851377644","0.08180499334771314","0.02010425815457659","0.02717806709663372","-0.07246707973088241","0.07459737092358452","0.31790375456659514","-0.2957867688940867"
"-0.0372794852966211","-0.015203341671794766","0.01858138593607607","-0.11254066012200137","-0.0021492334026231913","-0.029964312727432666","0.0714593693269567","0.31781083743099436","-0.2791557855797194"
"-0.013633453177668191","0.016775489534626077","0.06888220919957758","-0.08793171503908884","0.02957446130085315","-0.0598521032230092","0.06833129811512839","0.32390958033134015","-0.27103996878029923"
"-0.02842189311247676","0.033862283977130536","0.03790317630377119","0.041468067622159994","0.038247126039933015","-0.06421882586034992","0.06676229731681449","0.33304924766953137","-0.26367132241638125"
"-0.02545646923714455","-0.019229308211045223","0.03742191399756476","0.06580658473712843","0.10260742752468359","-0.06577143835362663","0.06519329651850057","0.3422311500693594","-0.24725933733310942"
"-0.009688150108747956","-0.03430985176944158","0.10064552140920183","-0.008561106447497338","0.14060739276302037","-0.05888172041471125","0.06205529492187276","0.3452213924332408","-0.22206165850824303"
"0.05039391623493839","0.017542981483580182","0.1818897285087907","-0.05189718831053835","0.022385278688194843","0.0015731285422503633","0.06205529492187276","0.3452213924332408","-0.22651891662348012"
"0.051373795428526374","0.13671966990801424","0.17921604902986613","-0.006262468719972542","-0.23676763739667844","0.125102860038578","0.06989533372104255","0.32390958033134015","-0.2709755575358594"
"-0.0737155195213545","0.1522041565974391","0.15716710559366792","0.023755035721821853","-0.3675422925412248","0.24737109388411838","0.082442374915154","0.2996751019641767","-0.3364431463845153"
"-0.1525184357214856","-0.030768616987425296","0.08257144813167153","0.07446027971133942","-0.39333205873901494","0.26367352506352376","0.09654848652277985","0.2724081461714953","-0.4016144435087479"
"0.018870171125429137","-0.08349666035767542","0.13513598668732918","0.0371412201350545","-0.38785458627222763","0.18691624492715675","0.11222856412111937","0.2605569878762251","-0.47227357865925496"
"-0.06583780653079821","-0.06214153349730343","0.03763580835587872","-0.1299832640543954","-0.44068937277478","0.16925527781613428","0.12633964092114497","0.2332900320835436","-0.50375779494145"
"0.05729175003190668","0.07760932506751429","-0.07373185420626066","-0.07393706769798199","-0.13885781705285577","0.12752881705932287","0.13261067892200082","0.21501914441948844","-0.5144114147718"
"0.33016231915160144","0.01048744146161617","-0.12727674190419067","0.02977205800857794","0.14848125943402707","-0.003569900341728714","0.12790367652705917","0.22094050006095983","-0.48958732116468484"
"0.2976458017012201","-0.05746925794840741","-0.059900019035290734","0.05174433040403556","0.4584149098464075","-0.18347887300016666","0.10752652691857742","0.24206647789165883","-0.4241326145649168"
"0.3025709839637283","-0.05652672397600765","0.2114962726054158","0.06648265465698866","0.6463606838630461","-0.29846923578347245","0.0887084477236101","0.27521255426417507","-0.3341501060824569"
"0.021822701853477233","0.01063555394299328","0.22992683648013604","-0.08455136543978765","0.3266132286143385","-0.19890795965210387","0.07773537252021231","0.2903158123054745","-0.2848497395882015"
"-0.2933889629470472","0.029822852666845787","0.14857568220139017","-0.10591517490737107","0.068829680646162","-0.14243168020916383","0.07459737092358452","0.3025301921308206","-0.2644829040963233"
"-0.31308969199708","0.08197191088262178","0.09237493955439506","-0.020257116061079394","0.14174853286026773","-0.0789686445464786","0.07302837012527058","0.3025301921308206","-0.2435492496533745"
"-0.1495659049934375","0.029257332283405924","0.14057246829447587","0.018819725306842144","-0.01995101891968186","0.020883746427379356","0.0714593693269567","0.3024457220075471","-0.25635420504801515"
"-0.288463780684539","-0.07634686693847142","0.07275013217908849","0.0677671875047231","-0.06308611459563172","-0.014050034671346459","0.07302837012527058","0.3025301921308206","-0.2774810932242835"
"-0.2549673840405697","-0.034417569937715844","0.05512167214804562","0.00043062348664377594","-0.014473546452894576","0.05416787675199867","0.07773537252021231","0.29646523727978424","-0.28137153238845"
"-0.24315726112837724","0.020639878821465153","-0.011114280809846508","-0.0592663504370149","-0.09229930108516389","0.12238578817534379","0.08087337411684009","0.275043614017628","-0.2876967165924425"
"0.14003996930095797","0.11772087797864172","0.21470468798012532","-0.12261410192791884","-0.06970472715966634","0.22097668149841446","0.09184644932023785","0.24460902860219091","-0.29321031911649303"
"0.4079853561581445","0.009221752984393627","0.09932650619959903","0.22312805508860495","-0.2167976856948498","0.2504763188706718","0.10125052372532183","0.23564674852287384","-0.3640755702492076"
"0.20013492879192837","-0.022191557838587367","-0.2245986749370462","0.252199061642595","-0.2569658171179566","0.08153267194600056","0.10909552771689134","0.25129061535312364","-0.43329189352426234"
"0.15481551608848254","-0.13005783859422418","-0.1271876192548932","0.19554440235830736","0.07533417920047189","-0.13457157946195053","0.1028195245236357","0.2726784505659704","-0.43553340483076886"
"0.1085162241914487","-0.1469291967001801","0.03727931775868878","-0.2589774047637281","0.1126494603804603","-0.014050034671346459","0.10125052372532183","0.2540950234458033","-0.3786453937415"
"-0.01658598390571624","0.012776452537444189","0.03353616648819434","-0.34166075596263473","0.11915395893477018","-0.08459686483460664","0.09184644932023785","0.25080068863813737","-0.3107172953552422"
