"AccX","AccY","AccZ","GyroX","GyroY","GyroZ","MagX","MagY","MagZ"
"-0.12691264521535664","0.030199866255805702","0.08763361461176877","-0.08989231780668351","0.06848733861698782","-0.21501631426984966","0.08557541131938202","0.27517031920253826","-0.30026979150709976"
"-0.14759325345897742","0.033283298822656376","0.1075792635245463","0.1798595802175499","0.1289677637710974","-0.24965898052608607","0.07616637172189837","0.3118387997155589","-0.30282047678691754"
"0.009019806600412711","-0.021370206805496134","-0.0022376649398168275","0.13949820600189394","0.156697468134208","-0.13078708650958856","0.0714593693269567","0.3270265278801318","-0.2839222176682677"
"0.05531909849744661","0.017529516712545896","0.11394262068438685","-0.10354893018786024","-0.0010080933053758416","0.0004086691722928362","0.0714593693269567","0.3208771029058219","-0.2830977537394378"
"-0.02840899996519274","0.00881780985336515","0.04909698105553551","-0.18197304089164743","-0.11923020738020133","0.04912188614884939","0.07459737092358452","0.3086796171051304","-0.2823119365572717"
"-0.012640680836796097","0.012762987766409913","0.04777796584593271","0.0977846919465175","-0.03193298994077904","-0.027829470549177192","0.07459737092358452","0.31790375456659514","-0.29609594286739793"
"-0.007715498574287885","-0.04032860442176584","0.014125253471201735","0.1398362409618241","0.04965852701240652","-0.06024025634632837","0.0714593693269567","0.33015192244125074","-0.2971909340228753"
"-0.008708270915159978","-0.10042187754776848","0.06294664075636495","-0.03722647104957127","0.020331226513149617","-0.018222680747027594","0.0714593693269567","0.3270265278801318","-0.2969332890451159"
"-0.008708270915159978","0.0167620247635918","0.09854222688578114","-0.11963939428053381","-0.006029109733264182","0.001864243384739745","0.0714593693269567","0.3208771029058219","-0.2876580698457786"
"-0.022503938509096502","0.04987189673689237","0.05775970256725123","-0.013834451822407168","0.03927415212745563","-0.032002116624858336","0.06833129811512839","0.32694205775685825","-0.2797998980241178"
"-0.0057428470398278135","-0.024318991662003995","0.05226974737052604","0.07513634963119965","0.06437923426689734","-0.028508738514985754","0.06833129811512839","0.33612396015668633","-0.272379722664648"
"0.004107517485188612","-0.04537789355962177","0.06890003372943707","0.00942235342078489","0.05205492121662596","-0.007354393294090679","0.06833129811512839","0.33309148273116806","-0.2718129037135773"
"0.0001622144162684236","-0.026338707317146364","0.06321400870425742","-0.016538731501848106","0.030943829417549973","0.000796822295612012","0.06833129811512839","0.33309148273116806","-0.2591110063100404"
"-0.015593211564844148","-0.021275953408256155","0.03890134997590304","-0.02262336078059021","0.03916003811773089","-0.011527039369771818","0.06519329651850057","0.33300701260789467","-0.2506602510395331"
"0.005087396678776591","-0.04038246350590297","0.04082639920072876","-0.017620443373624478","0.049772641022131255","-0.01754341278121904","0.06519329651850057","0.33612396015668633","-0.24635757991095164"
"-0.0067356193806998605","-0.012294951128389759","0.06159197648704316","0.009084318460854774","0.019304200425626996","-0.019581216678644712","0.06519329651850057","0.3422311500693594","-0.23870552407149828"
"0.001142093609856448","-0.02834495820125445","0.043232710731760896","0.012802703020086062","0.026493383038285308","-0.015796723726282748","0.0636242957201867","0.3421889150077226","-0.23870552407149828"
"-0.002790316311779672","-0.03433678131151014","0.04059468031255529","0.018819725306842148","0.0082351414823277","-0.0001735605126859274","0.06519329651850057","0.3422311500693594","-0.23896316904925768"
"0.000149321268984355","-0.03536010391011561","0.03259146640564098","-0.02059515102100951","-0.007398477849961004","0.010597688659421197","0.06519329651850057","0.33915643758220443","-0.2384478790937389"
"-0.013620560030384078","-0.022285811235827343","0.02291274669193392","-0.003220154080601489","-0.014017090413995636","0.00720134883037841","0.06519329651850057","0.33915643758220443","-0.2384478790937389"
"-0.011660801643208074","-0.02729470606058042","0.03770710647531672","0.010774493260505358","-0.0012363213248253108","-0.0016291347251328363","0.06519329651850057","0.33915643758220443","-0.24269902122676854"
"-0.0067356193806998605","-0.028331493430220168","0.04980996224991541","-0.020189509069093368","0.024781672892414282","-0.008033661259899237","0.06519329651850057","0.33915643758220443","-0.2299455948276797"
"-0.009701043256032025","-0.035333174368047046","0.02986431333713788","-0.032561588602535656","0.028547435213330533","-0.0071603167324310905","0.06519329651850057","0.33915643758220443","-0.2259520976724095"
"-0.005755740187111837","-0.02831802865918588","0.032448870166765","-0.015592233614043773","0.03596484584543831","-0.013467804986367694","0.06205529492187276","0.33907196745893103","-0.21724369742414282"
"-0.012640680836796097","-0.02728124128954614","0.025639899760437016","0.010098423340645125","0.04703390478873761","-0.019678254959474506","0.06205529492187276","0.3452213924332408","-0.2093211143580422"
"-0.004762967846239789","-0.04132499747830274","0.027333230097089267","0.013140737980016179","0.06974259272395988","-0.01705822137707007","0.06205529492187276","0.3452213924332408","-0.20083171234087094"
"0.010992458134872828","-0.017371169808314244","0.06323183323411691","9.258852671365898e-05","0.05525011348891854","-0.01036257999981429","0.06205529492187276","0.3452213924332408","-0.19226501683037192"
"0.009999685794000734","0.036730280207432686","0.10643849361353848","-0.01822890630149869","-0.04733838125361827","0.0362157947984868","0.06519329651850057","0.33911420252056773","-0.20049677386978376"
"0.005087396678776591","0.11185023780769457","0.14397695349763986","0.005095505933679393","-0.18792684123449185","0.12801400846347183","0.0714593693269567","0.3208771029058219","-0.2409212708802289"
"-0.11508962915588014","0.12130250707376083","0.1505007314262159","0.05478664504340661","-0.35065341910196407","0.26959286019414125","0.07930437331852622","0.29045096450271196","-0.31029218114193924"
"-0.08160612565919485","-0.008013153939487934","0.0780440175473592","0.13111493899562704","-0.29838920264803537","0.2704662047216093","0.09498445091686569","0.2601092962228756","-0.37089027991094303"
"0.06024428075995478","-0.05456086740500241","0.013234026978226864","0.136861533314439","-0.308887691542711","0.24688590247996942","0.1106595633228055","0.24514119037881377","-0.43277660356874365"
"-0.06485792733721016","-0.0020617251423350838","-0.07952482641059729","-0.022217718828674068","-0.37701375534837783","0.2721158554957159","0.12947267732537304","0.22424328188095313","-0.4940445792799218"
"-0.03628671295574905","-0.12935767050044147","-0.14836316072797603","0.20386006237258825","-0.12253951366221864","0.12384136238779071","0.13417967972031475","0.23351810141638202","-0.520156897775834"
"0.3794141417766835","-0.10687150287318978","-0.07014912370450169","0.04809355283679029","0.31314777546681977","-0.011818154212261199","0.12477560531523081","0.23013084947311518","-0.4732139828280767"
"0.5458775663610899","0.012709128682272777","0.03940043681196896","-0.17893072625227632","0.3644990798429505","-0.038115528317135355","0.11379259972703352","0.2297253928814025","-0.40587846789066545"
"0.30159110477014034","0.06769925358628236","0.09987906662524344","-0.1536457112495036","0.4742767571981456","-0.3210791552168144","0.09184644932023785","0.25689943153848316","-0.31124546755964894"
"-0.009688150108747956","0.08286058577088441","0.13524293386648617","0.09785229893850353","0.4734779591300725","-0.40792841655948003","0.0745973709235845","0.30560490461797546","-0.2564959097857828"
"-0.2490752157317575","-0.08952887778103395","0.02653112625341188","-0.06528337272377098","0.13706985846155356","-0.20113984011118916","0.06833129811512839","0.3207926327825484","-0.21976861820618462"
"-0.19881772761851943","0.11860955286690435","0.22040853753516448","-0.18968023797805408","0.11390471448743235","-0.01579672372628275","0.06833129811512839","0.31464320780823857","-0.18526995568420504"
"-0.1811025432502308","0.11354679895801413","0.1859537213167561","0.01577741066747109","-0.08202904020993773","-0.025597590090091934","0.06833129811512839","0.31771792029539353","-0.2068219580737763"
"-0.31900764660046027","-0.05120813941746607","0.035889004429647986","0.18520053258444583","-0.08545246050167978","-0.04888677748924248","0.06833129811512839","0.3300167702440132","-0.2291082486499618"
"-0.23035436587531277","-0.05053490086575195","0.05164588882544363","0.1211767111736816","0.027520409125807922","0.07493406884957457","0.06989533372104255","0.3208771029058219","-0.2369793027205106"
"-0.19982339310667557","-0.04763997509338122","0.07223322081316307","-0.05460146798997929","-0.10884583249525047","0.10016402186532097","0.07459737092358452","0.3086373820434937","-0.2525668238749524"
"-0.22936159353444066","0.09870862127823486","0.03640591579557341","-0.14661458408295716","-0.13360857260551798","0.11083823275659832","0.07773537252021231","0.28416638733116456","-0.2503253125684459"
"0.3567479888513185","0.07530684922065195","0.09970082132664848","-0.007208966607776869","-0.12482179385671334","0.35061982468701913","0.09027744852192404","0.2506655364408999","-0.2807789489396034"
"0.40009475002030426","-0.04093451911830855","0.07984429506316844","0.3519193748219796","-0.19283374365265546","0.0662976618557229","0.09968152292700791","0.2540443413718393","-0.36170523645382147"
"0.14496515156346612","-0.07881092003774513","-0.28988992781238493","0.12381338386113652","-0.15928422479358337","-0.03976517909124185","0.09968152292700791","0.27556732878192375","-0.3975178883623739"
"0.10062561805360833","-0.16292534468890765","-0.09116424440884906","-0.010251281247147923","0.09245128065918216","-0.13777384272933374","0.09184644932023785","0.2845718439228773","-0.3645779779558384"
"0.05531909849744656","-0.05659404783117906","0.04694021294253634","-0.36167242559049767","0.23920189716519144","-0.08867247262945799","0.082442374915154","0.2812775091152113","-0.2836388081927324"
"-0.08553853558083097","0.08914863384389432","0.03506907605611111","-0.2122609733013859","0.12782662367385003","-0.21239628068744526","0.07459737092358452","0.2933482897309926","-0.2427247857245445"
"-0.15055867733430958","0.04231816018665991","0.024392182670272204","0.020780328074436825","0.03539427579681464","-0.18968932297327348","0.0714593693269567","0.3208433148565126","-0.24515953076437055"
"-0.11706228069034023","0.04219697724735137","0.0914837130614202","0.1728284530510035","0.0974722970870705","-0.10516898037052295","0.06676229731681449","0.33304924766953137","-0.24236408275568136"
"0.07206729681943122","-0.0748253478115975","0.0385092103189941","0.05945152749044222","0.15589867006613484","-0.03423399708394359","0.06519329651850057","0.3453058625565142","-0.23040935578764665"
"0.09176802586946403","0.023413621654527334","0.1283983144004392","-0.007614608559693012","-0.09047347692956813","0.032237225284465244","0.06833129811512839","0.33309148273116806","-0.24604840593764032"
"-0.06387804814362216","0.015967603272569134","0.005676426317799991","-0.09624737505336972","-0.18724215717614343","0.04640481428561516","0.06833129811512839","0.32694205775685825","-0.26279532949199935"
"-0.01461333237125617","-0.0352927800549442","-0.06642379696386676","0.14585326324858017","0.05798884972231218","-0.04034740877622062","0.06833129811512839","0.33924090770547793","-0.2638259094030369"
"-0.0008305579246036693","-0.05738846932220173","0.02895526231430352","0.11144130432769424","0.1309077019364179","-0.060434332907987956","0.06676229731681449","0.34842281010530585","-0.24765868704863644"
"0.0021219728034444266","-0.07642765556467712","0.04665502046478439","-0.04493366813597793","0.09450533283422739","-0.04325855720111443","0.06519329651850057","0.34838057504366915","-0.2309761747387172"
"-0.013633453177668191","-0.02728124128954614","0.05228757190038554","-0.08826974999901895","-0.006485565772163122","-0.011235924527282434","0.06519329651850057","0.34838057504366915","-0.23071852976095786"
"-0.012640680836796097","0.009760343825764914","0.029115683083038996","-0.01687676646177822","0.013142043900491306","-0.008615890944878","0.06519329651850057","0.35140460545686003","-0.23071852976095786"
"-0.017578756246588334","-0.007232197219499548","0.005230813071312568","0.04944569267651076","0.07259544296707826","-0.029285044761624104","0.0636242957201867","0.3514552875308241","-0.21435807367323786"
"-0.004762967846239789","-0.07238822425439238","0.017101949957737787","0.03578908029533403","0.06654740045166731","-0.012691498739729344","0.06205529492187276","0.3575033483572057","-0.21429366242879805"
"0.007060048213236708","-0.06040457803388099","0.033090553241706906","-0.034589798362116356","0.012457359842142897","0.006036889460420883","0.06205529492187276","0.3575033483572057","-0.20611343438493804"
"-0.018558635440176358","-0.015257200755931897","0.004036569570726243","-0.03655040112971104","-0.01903810684188398","-0.0034728620608989206","0.06205529492187276","0.3575033483572057","-0.20611343438493804"
"-0.019551407781048406","-0.015257200755931897","0.0026819053014044353","-0.00916956937537155","0.028090979174431596","-0.007839584698239649","0.06205529492187276","0.3575033483572057","-0.1976111501188788"
"-0.0037701955053676965","-0.05035985884230628","0.018135772689588638","0.0034729381260148297","0.04144231831222559","-0.008033661259899237","0.0636242957201867","0.3575033483572057","-0.18905733685726778"
"-0.005755740187111837","-0.04533749924651892","0.018011000980572154","-0.022555753788604183","0.026379269028560574","-0.005995857362473564","0.06205529492187276","0.3575033483572057","-0.18485772371978998"
"-0.009701043256032025","-0.026298313004043516","0.005658601787940504","-0.024516356556198868","0.00869159752122664","-0.001920249567622218","0.06205529492187276","0.357461113295569","-0.1806581105823123"
"-0.009701043256032025","-0.0263117777750778","0.005640777258081001","-0.017552836381638456","0.013598499939390246","-0.005510665958324594","0.06205529492187276","0.3575033483572057","-0.17635543945373083"
"-0.0067356193806998605","-0.03332692348393896","0.011148556984665674","-0.017214801421708337","0.005952861287832998","-0.004346206588367067","0.06205529492187276","0.357461113295569","-0.1761622057204113"
"-0.01068092244962005","-0.0313072078287966","0.012396274074830486","-0.02059515102100951","-0.02177684307527762","0.008074693357846555","0.06205529492187276","0.3575033483572057","-0.18060658158676046"
"-0.01461333237125617","-0.028304563888151606","-0.002362436648833319","-0.005518791808126284","-0.011164240170877261","0.005939851179591091","0.06205529492187276","0.35135392338289595","-0.18009129163124168"
"-0.01068092244962005","-0.04032860442176584","-0.0021663668203788303","-0.006532896687916636","0.01097387771572134","-0.005607704239154388","0.06205529492187276","0.3575033483572057","-0.17635543945373083"
"-0.013633453177668191","-0.042321390534839645","0.0004181900092482769","-0.009913246287217809","0.007094001385080348","-0.0030847089375797454","0.06048629412355892","0.357461113295569","-0.17223311980958092"
"-0.01461333237125617","-0.036302637882515386","-0.006283833217922729","-0.013225988894532956","0.004241151141961972","-0.003181747218409539","0.06205529492187276","0.3575033483572057","-0.17216870856514102"
"-0.018558635440176358","-0.02927402740261994","-0.015695184983737336","0.00110669340650401","0.022613506707644317","-0.004928436273345831","0.06048629412355892","0.3575033483572057","-0.16392406927684122"
"-0.018558635440176358","0.000765876774864233","0.03184283615154209","0.020442293114506706","0.034937819757915704","-0.0002705987935157212","0.06205529492187276","0.3575033483572057","-0.16785315518767163"
"0.004107517485188612","0.04074278197564886","0.14911041809717512","0.016791515547261444","-0.07883384793764515","0.08842238988491594","0.06205529492187276","0.3421889150077226","-0.18350508758655334"
"-0.053034911277733715","0.05993008069950137","0.16151629087938527","-0.01153581409488237","-0.25011897653447246","0.196231919886817","0.06989533372104255","0.31157694233341104","-0.235987369556137"
"-0.035306833762161025","0.0748625117765206","0.10798922771131474","0.004419436013819159","-0.37028102877461844","0.2936583538399301","0.07930437331852622","0.2810578867947003","-0.2842700383882429"
"0.06911476609138313","0.07150978378898429","0.037083247930234306","0.005771575853539626","-0.43954823267753257","0.3808957683059149","0.09968648811940767","0.23560451346123715","-0.3601464843383773"
"-0.05107515289055766","-0.06821414523376482","-0.10661811179703327","0.13422486062698413","-0.5784249825125352","0.33441443178844354","0.12320660451691694","0.223804037239931","-0.4685119619839683"
"-0.19981049995939154","-0.13973900896787328","-0.13246368009330442","0.18682310039211036","-0.3120828838150036","0.13868821935474918","0.13417967972031475","0.22731799436810804","-0.5238927499533448"
"0.11541405798841699","-0.2060395415406801","0.00450000734707317","0.03977789282250941","0.18066141017640236","-0.08236498437552138","0.12477560531523081","0.23632250950906172","-0.48674034416044365"
"0.49072068227991184","0.08598441265083795","0.06048685563575432","-0.24369822457488682","0.23178448653308367","0.0027375879122078905","0.1184996021219752","0.21769684732725797","-0.41716331791652594"
"0.31931918228571304","0.157778571805632","9.734847177731255e-05","-0.15256399937772722","0.2575742527308738","-0.17115501133478284","0.1028195245236357","0.23568898358451063","-0.3557922842142439"
"0.1774687758665634","0.09514045695415002","0.12611677457842352","0.1981810750457623","0.5271115437006979","-0.4085106462444588","0.08087337411684009","0.29040872944107526","-0.314478912030529"
"-0.06190539660916207","-0.11925909222472963","0.15082157296368687","0.13145297395555716","0.32558620252681586","-0.2852720295906205","0.06989533372104255","0.32390958033134015","-0.2709755575358594"
"-0.25300762565339363","-0.13157935772109808","0.054337392834227734","-0.27763693455187055","0.08263747582285495","-0.08644059217037273","0.06833129811512839","0.3208348678441852","-0.2370308317160624"
"-0.21262628835974007","0.2037876944297752","0.16549116103805317","-0.1626374411836447","-0.016185256598765605","-0.017931565904538215","0.06833129811512839","0.31464320780823857","-0.2277556125167251"
"-0.21853134981583627","0.10767615878706699","0.069363471505784","0.04376670534968479","-0.05110414357453453","-0.032002116624858336","0.06833129811512839","0.32386734526970334","-0.24128197384909203"
"-0.3042320998129357","-0.07829925873844239","0.0338213589659463","0.27559108086975914","0.07898582751166341","-0.06557736179196703","0.06676229731681449","0.3422733851309961","-0.25563279911028886"
"-0.212613395212456","-0.07263059013300947","0.08016513660063938","0.15153225057540615","0.06631917243221783","0.05804940798519043","0.06989533372104255","0.3331337177928049","-0.2547568061859071"
"-0.23723930652499697","-0.005441382671939986","0.03751103664686224","-0.04493366813597793","-0.08453954842388192","0.1269465873743441","0.07302837012527058","0.32088554991814927","-0.2697646261403904"
"-0.05500756281219378","0.1325994499715238","0.17042855580913394","-0.15195553644985302","-0.11466564699121196","0.19050666131785912","0.07930437331852622","0.2781098794924556","-0.2715166119891541"
"0.4385163289267817","0.029149614115131665","0.1844742853384178","0.17620880265030467","-0.23345833111466113","0.25668676884377867","0.09184644932023785","0.26603065186434705","-0.3375123730422167"
"0.3518228065888103","0.04448598832317939","-0.12235717166296942","0.20386006237258825","-0.39949421526415063","0.15809587552070795","0.1043885253219496","0.2726362155043337","-0.42683788683139007"
"0.03858379332274597","-0.03449835856392154","-0.25557770783285255","0.3858580847989633","-0.04688192521471933","-0.1526206996962922","0.1028195245236357","0.32484719869967577","-0.4656134559841753"
"0.03365861106023775","-0.28906331973806576","0.0384913857891346","-0.03952510877709606","0.17712387587493558","-0.09895853039741614","0.09341545011855182","0.31531896879442645","-0.41390410894786994"
"0.1291968324350695","-0.040840265721068574","0.0680088072364622","-0.4700464337440933","0.1335323241600868","0.01263549255684687","0.08713944692529618","0.2905861166999496","-0.3440050264817528"
"-0.10623203697173582","0.07620898887994887","0.08069987249642431","-0.21334268517316227","0.061868726052953175","-0.21841265409889246","0.07773537252021231","0.3087640872284039","-0.3212807394433763"
"-0.17518458864685055","0.059445348942267204","0.0037513770929742847","0.09819033389843365","0.10614496182615037","-0.29284101549534436","0.06989533372104255","0.34543256774142445","-0.310781706599682"
"-0.10525215777814785","0.08512266730464388","-0.052984101449805754","0.14179684372941875","0.2403430372624388","-0.2018191080769977","0.06676229731681449","0.3637541374794438","-0.28321369397942947"
"0.09274790506305206","0.015388618118094985","0.050255575496402846","0.06979539726430381","0.2455922817097766","0.034663182305210094","0.06205529492187276","0.36062874291832475","-0.25761666543903605"
"0.027740656456857492","-0.08248680253010424","0.21010595927637502","-0.11794921948088324","-0.0620590885081091","-0.04160890642700793","0.0636242957201867","0.3637034554054796","-0.2533139943104546"
"-0.034314061421288976","0.006838488511325624","0.010203856902112316","-0.031209448762815187","-0.10165664988259215","0.0037079707205058296","0.06519329651850057","0.36067097797996145","-0.26543619051403294"
"-0.034326954568573","0.02286156604212176","-0.03548041312777937","-0.02857277607536027","-0.039008058543712615","0.016711100351698215","0.06519329651850057","0.35760471250513387","-0.26124945962544316"
"-0.019551407781048406","-0.05430503675535104","0.012645817492863452","-0.06927218525094637","0.056163025566716415","-0.02666501117921967","0.06519329651850057","0.3637541374794438","-0.2532624653149027"
"-0.0077283917215719535","-0.05035985884230628","0.059506506493481964","-0.020865578988953602","0.02866154922305527","-0.004928436273345829","0.0636242957201867","0.35760471250513387","-0.24854756222190624"
"0.006067275872364615","-0.042361784847942494","0.06886438466971807","-0.01626830353390401","0.004811721190585648","0.01282956911850646","0.0636242957201867","0.3575540304311698","-0.24030292293360642"
"0.0267478841159854","-0.019431279776559462","0.05939955931432498","-0.04696187789555863","-0.00020929523730269482","0.028840885455422457","0.06676229731681449","0.35457223507961577","-0.23942693000922458"
"-0.01265357398408012","0.0338084248929934","0.03537209306372256","-0.07495117257777233","-0.029194253707385404","-0.00832477610238862","0.06519329651850057","0.3514552875308241","-0.2352273168717468"
"-0.0018104371181916937","-0.011312022842887133","0.013519219455978821","-0.015186591662127635","-0.02337443921142391","0.004872430090463356","0.06519329651850057","0.35140460545686003","-0.24352348515559852"
"-0.0077283917215719535","-0.038322353537657755","0.019223069011017967","0.012126633100225829","-0.052245283671781884","-0.011721115931431407","0.06519329651850057","0.3514552875308241","-0.24792921427528378"
"-0.021524059315508524","-0.07333075822679216","0.05435521736408724","0.02443110564168209","-0.026113175444817553","-0.006092895643303358","0.06676229731681449","0.3514975225924608","-0.25635420504801515"
"-0.004762967846239789","-0.07840697690671664","0.03059511906137728","0.007123715693260094","-0.006257337752713653","0.008268769919506144","0.0636242957201867","0.35140460545686003","-0.2565345565324467"
"-0.015593211564844148","-0.0012403741092438482","-0.006836393643567142","-0.03959271576908208","0.02135825260067223","0.0031257410355270657","0.06519329651850057","0.3453058625565142","-0.2474654533153169"
"-0.008708270915159978","-0.013291344184926659","0.03218150221887254","-0.0025440841607412552","0.023754646804891668","-0.0054136276774948","0.06519329651850057","0.3514552875308241","-0.24352348515559852"
"-0.002790316311779672","-0.02231274077789591","0.06043338204617583","0.015101340747610858","0.017021920231132297","-0.002502479252600982","0.06519329651850057","0.35140460545686003","-0.24765868704863644"
"-0.008708270915159978","-0.016293988125571646","0.05362441163984784","0.014154842859806532","0.02980268932030262","-0.00764550813658006","0.06519329651850057","0.35140460545686003","-0.23947845900477643"
"-0.0077283917215719535","-0.0012673036513124161","0.056102021290317966","-0.005586398800112308","0.011544447764345015","0.007492463672867792","0.06519329651850057","0.34832989296970507","-0.23922081402701706"
"-0.02447659004355662","0.007794487254759675","0.08779403538050425","-0.033575693482326","-0.05178882763288294","0.059407943916807544","0.06519329651850057","0.33915643758220443","-0.2511884232439398"
"-0.05008238054968562","0.0639829767808204","0.12253404407666456","-0.02221771882867407","-0.2518306866803435","0.1705167754669216","0.07459737092358452","0.3117543295922854","-0.29102033680553835"
"-0.013633453177668146","0.061842078186369484","0.12551074056320063","0.06046563237023258","-0.3036384470953732","0.26202387428941726","0.08713944692529618","0.2844366917256398","-0.3477408786592636"
