"AccX","AccY","AccZ","GyroX","GyroY","GyroZ","MagX","MagY","MagZ"
"-0.08160612565919485","-0.08820933021967428","-0.02081082505341307","0.053434505203686145","0.06152638402377897","-0.061889907120434864","0.06205529492187276","0.34828765790806837","-0.20957875933580158"
"0.042516203244382086","-0.009467349211190435","0.1115363091533547","0.00110669340650401","0.10237919950523411","-0.03462215020726277","0.06048629412355892","0.3513116883212592","-0.19725044715001572"
"0.017890291931841114","0.027641559759292028","0.11463777734890725","-0.010927351167008159","-0.011278354180601996","-0.015699685445452957","0.06205529492187276","0.3575033483572057","-0.1976111501188788"
"0.000149321268984355","-0.006316592789168339","0.010809890917335231","-0.007885036527637104","-0.04003508463123523","0.011471033186889345","0.06205529492187276","0.35135392338289595","-0.20984928656244892"
"-0.018558635440176358","-0.024265132577866864","0.01220020424637602","0.0017827633263642446","-0.07552454165562783","0.03388687605857175","0.06519329651850057","0.3453058625565142","-0.22195860051713928"
"-0.027429120771604715","-0.04928267715956368","0.0338035344360868","0.04045396274236964","-0.036497550329768445","0.014673296454272542","0.06519329651850057","0.3453058625565142","-0.23046088478319848"
"-0.0018104371181916937","-0.06840265202824478","0.026442003604114396","0.0011743003984900336","-0.003975057558218952","0.0034168558780164476","0.06519329651850057","0.3452636274948775","-0.2302032398054391"
"-0.0008305579246036693","-0.0633937572034917","0.029044384963601014","-0.02755867119556992","-0.023488553221148643","0.020883746427379356","0.06519329651850057","0.3391986726438411","-0.22988118358323992"
"-0.011660801643208074","-0.05733461023806459","0.012752764672020432","-0.04290545837639723","-0.011848924229225672","0.001767205103909951","0.06519329651850057","0.3453058625565142","-0.2259520976724095"
"-0.002790316311779672","-0.059381255435275525","0.01695935371886181","-0.047908375783362975","0.025238128931313223","-0.009780350314835528","0.06519329651850057","0.33915643758220443","-0.2131986712733207"
"-0.008708270915159978","-0.04032860442176584","0.024730848737602656","-0.047908375783362975","0.04520808063314185","-0.02472424556262379","0.06205529492187276","0.34214667994608583","-0.20083171234087094"
"-0.0057428470398278135","-0.035333174368047046","0.03790317630377119","-0.051964795302524375","0.05844530576121112","-0.036951068947177826","0.06205529492187276","0.34828765790806837","-0.19258707305257114"
"-0.007715498574287885","-0.030310814772259696","0.035140374175549105","-0.06257909304433006","0.04680567676928814","-0.0389888728446035","0.06048629412355892","0.3512694532596224","-0.17563403351600457"
"0.004094624337904544","-0.022353135090998753","0.0444982523517852","-0.06061849027673537","0.03744832797185987","-0.028799853357475137","0.05891729332524498","0.3512694532596224","-0.16321554558800297"
"0.000149321268984355","-0.028331493430220168","0.045870741150966496","-0.030533378842954952","0.005952861287832998","-0.015505608883793365","0.06048629412355892","0.3574188782339323","-0.16340877932132247"
"-0.0037701955053676965","-0.05136971666987746","0.016798932950126334","0.0014447283664341271","0.0009318448599446553","0.0011849754189311877","0.06205529492187276","0.35135392338289595","-0.16308672309912325"
"-0.004762967846239789","-0.040342069192800124","0.006086390504568425","-0.0025440841607412544","-0.03444349815472321","0.017875559721655745","0.05891729332524498","0.35438640080841405","-0.1719110635873817"
"0.001142093609856448","0.024719704444852726","0.07180543209653513","0.0074617506531902125","-0.10097196582424375","0.06765619778734003","0.06205529492187276","0.33603949003341277","-0.1957432240301234"
"-0.03825936449020912","0.06994787034900753","0.15349525244261145","0.06911932734444358","-0.26426911374033957","0.17284569420683663","0.06989533372104255","0.3177263673077208","-0.25770684118125187"
"-0.07570106420309863","0.13719093689421413","0.1331039902833465","0.10515385407299405","-0.41718188677148454","0.28977682260673837","0.08401137571346787","0.28746916915115794","-0.33536103747792595"
"0.07009464528497115","-0.08769766892037155","0.035568162892177034","0.20622630709209908","-0.38853927033057606","0.2934642772782705","0.10125052372532183","0.2694685858815779","-0.43093444197776415"
"-0.027429120771604715","-0.15043003716909353","0.08806140332839671","0.1148216539269954","-0.48850314284944407","0.24154879703433074","0.12163760371860295","0.24852844232208068","-0.49194477271118286"
"-0.16631410331542218","-0.007743858518802285","0.014250025180218218","-0.14695261904288726","-0.264953797798688","0.2792966882771206","0.1373127161245428","0.20593015915526128","-0.504968726336919"
"-0.07174286798689444","-0.02604248235439215","0.08529860120017463","-0.10794338466695176","-0.16670163542569114","0.1782798379333051","0.14672175572202645","0.18471971120128874","-0.5109976188164883"
"0.164665880613499","0.08032920881643929","0.12720407089985286","-0.043513921304271445","-0.06559662280957587","0.11248788353070481","0.1529878285304826","0.17563917294938897","-0.5103148596254261"
"0.14594503075705414","0.05928377168985581","0.022324537206570513","0.02247050287408741","0.028205093184156333","-0.025888704932581316","0.14829075652034032","0.18477039327525283","-0.5108816785764966"
"0.2493738582697263","0.0018699879996753929","0.029258279321914972","0.06377837497754772","0.22003074353143595","-0.17212539414308076","0.13417967972031472","0.2119444319323335","-0.4800802214853641"
"0.36069329192023863","0.04445905878111082","0.038188368781523145","0.03747925509498462","0.5314478760702379","-0.27906157961751366","0.10909056252449158","0.2420242428300221","-0.4028253749042171"
"0.2286932500261054","0.02502939417864123","0.12107243262818579","0.030177699960494082","0.6241084519667228","-0.31118125057217544","0.08714441211769594","0.2721378417770203","-0.31270116168398937"
"-0.0018104371181916937","-0.01420694861525786","0.2230109188946511","-0.04993658554294367","0.41699152431632863","-0.2505323250535542","0.07616637172189837","0.29638076715651085","-0.25567144585695284"
"-0.25202774645980563","0.02164973664903634","0.1959354580380746","-0.09590934009343959","0.05673359561534009","-0.15281477625795176","0.0714593693269567","0.30859514698185697","-0.2398649264714155"
"-0.22838171434085264","0.07865957720818828","0.08321313120661344","-0.0728553558262056","0.10055337534963835","-0.016864144815410483","0.07459737092358452","0.30560490461797557","-0.21850615781516375"
"-0.19586519689047133","0.0835472890936328","0.10207148379796162","0.05715288976291743","-0.13223920448882115","0.03728321588761453","0.07302837012527058","0.3024879570691839","-0.2522576499016412"
"-0.31013716126903185","-0.08829011884587998","0.03503342699639211","0.17654683761023482","-0.07438340155838048","-0.000755790197664691","0.07459737092358452","0.3086796171051304","-0.27802214767757816"
"-0.25202774645980563","-0.13353174952106903","0.0941217434806258","0.08946903193223663","0.03345433763149414","0.038447675257572055","0.07459737092358452","0.30872185216676723","-0.2779577364331383"
"-0.21459893989420015","-0.0866474167796975","0.09517339074233615","-0.07292296281819163","-0.03581286627142003","0.07270218839048931","0.07773537252021231","0.29646523727978424","-0.2726116031446314"
"-0.24511701951555329","0.07774397277785708","0.06636895048938844","-0.16791078655855454","-0.09697797548387802","0.08172674850766015","0.08087337411684009","0.275043614017628","-0.27493040794446577"
"0.17156371441046722","0.21139529006414481","0.13704321138229542","-0.1919788757055789","-0.10941640254387414","0.23300942832130891","0.09184644932023785","0.23546936126399953","-0.2839222176682677"
"0.44934657264538613","0.07635710136132597","0.17572244117740463","0.3162228830533592","-0.2655243678473117","0.1619774067538997","0.10125052372532183","0.2387214610100288","-0.3730931444707856"
"0.30749616622623654","-0.15689312726554913","-0.29431041121754026","0.11110326936776412","-0.39972244328360007","0.1238413623877907","0.11536160052534743","0.23912691760174157","-0.44909841290979974"
"0.035618369447413804","-0.1225714258991631","-0.11676026928708724","0.06445444489740795","-0.09914614166864799","-0.035689571296390506","0.11536160052534743","0.2545004800375161","-0.45038663779859656"
"0.12820406009419744","-0.13498594479277154","0.11016382035417341","-0.18156739893973126","0.2547214024877555","-0.055873533708987635","0.1043885253219496","0.24193132569442127","-0.37743446234603106"
"0.055331991644730634","0.03756509601155819","0.02676284514158535","-0.2566111600442173","0.21797669135639075","-0.09779407102745864","0.09498445091686569","0.24473573378710103","-0.3183307044480316"
"-0.12691264521535664","0.049239052498281095","0.0499169094290724","0.0004306234866437731","0.0999828053010147","-0.23112466888759547","0.08557541131938202","0.2721378417770203","-0.31695230381701894"
"-0.17813711937489865","0.06444077899598599","0.10388958584363034","0.19851911000569242","0.13353232416008678","-0.22413791266785033","0.07773537252021231","0.30261466225409417","-0.3153677872037988"
"-0.0520421389368616","-0.10944327414073773","0.026620248902709365","-0.08191469275233275","0.21306978893822712","-0.10478082724720378","0.07302837012527058","0.31785307249263106","-0.26609318520731934"
"0.14889756148510225","0.062205627004295126","0.12378176116682939","0.01949579522670238","0.14186264686999248","-0.10099633429484182","0.0714593693269567","0.3208771029058219","-0.2537133440259816"
"-0.05500756281219378","0.16410701419174475","0.15467167141333826","-0.10192636238019567","-0.11934432138992608","0.01971928705742183","0.0714593693269567","0.3147445719561668","-0.2616359270920822"
"-0.026436348430732576","-0.07031464951511289","0.018171421749307637","-0.03053337884295496","0.01143033375462028","0.00448427696714418","0.0714593693269567","0.3208771029058219","-0.253970989003741"
"-0.012640680836796097","-0.07436754559643191","0.029080034023320003","0.11583575880678576","0.10945426810816768","-0.08498501795792582","0.06833129811512839","0.33309148273116806","-0.2420549087823701"
"-0.012640680836796097","-0.08738797918658305","0.011754590999888589","-0.08894581991887919","0.11436117052633131","-0.032293231467347715","0.06833129811512839","0.33309148273116806","-0.21656093823308048"
"-0.010668029302335982","-0.00725912676156811","0.040077768946629864","-0.1109180923143368","0.11150832028321292","-0.031225810378219983","0.06519329651850057","0.33608172509504947","-0.18318303136435415"
"0.005087396678776591","0.012709128682272777","0.04931087541384949","-0.003220154080601489","0.06860145262671254","-0.05713503135977497","0.06205529492187276","0.33907196745893103","-0.17030078247638566"
"0.012965109669332899","0.03570695760882722","0.051699362415022126","0.013140737980016179","0.02706395308690898","-0.014923379198814604","0.06205529492187276","0.33907196745893103","-0.17050689845859313"
"-0.0028032094590637407","0.007727163399588265","0.07731321182311982","0.02544521052147244","-0.02828134162958752","0.014188105050123575","0.06205529492187276","0.33907196745893103","-0.1790607117202042"
"-0.0037701955053676965","-0.05337596755398555","0.027511475395684236","0.026053673449346653","-0.016071142589040868","0.013896990207634193","0.06205529492187276","0.33907196745893103","-0.1833118538532338"
"-0.0008305579246036693","-0.06440361503106289","0.029062209493460507","-0.0015299792809509028","-0.029993051775458548","0.024377124537251937","0.06519329651850057","0.33304924766953137","-0.186918883541865"
"-0.01461333237125617","-0.016267058583503084","0.029721717098261907","-0.02221771882867407","-0.06936238513049214","0.04650185256644496","0.06676229731681449","0.3299745351823764","-0.19485434885685357"
"-0.011660801643208074","-0.033299993941870394","0.027101511208915796","0.0007686584465738933","-0.03729634839784159","0.0377684072917635","0.06676229731681449","0.32689982269522155","-0.19889937500767568"
"-0.0018104371181916937","-0.037352890023189415","0.027137160268634795","0.015101340747610858","-0.027140201532340168","0.029811268263720398","0.06833129811512839","0.3207926327825484","-0.2070280740559838"
"-0.019551407781048406","-0.010234841160144541","0.04403481457543827","0.04180610258209011","-0.06753656097489638","0.054070838471168885","0.06989533372104255","0.3146938898822027","-0.223710586365903"
"-0.03038165149965281","0.04588632451074477","0.14060811735419487","0.03578908029533403","-0.16898391562018583","0.11064415619493873","0.07616637172189837","0.2994977147053025","-0.26048940694105305"
"-0.09342914171867132","0.0941440638976131","0.21409865396490244","-0.03553629624992068","-0.2656384818570364","0.22359671508081888","0.08557541131938202","0.26594618174107354","-0.29581253339186264"
"-0.10623203697173582","0.03112893545717119","0.14531379323710217","-0.005586398800112309","-0.2606174654291481","0.29753988507312185","0.10125052372532183","0.2325720360357189","-0.34283274183294765"
"0.03266583871936571","-0.00537405881676857","0.03793882536349018","0.004757470973749275","-0.23904991759117314","0.2665846734884176","0.11379259972703352","0.20833755766855563","-0.3743169581151426"
"-0.017578756246588334","0.04583246542660765","-0.020668228814537077","-0.0009215163530766928","-0.2716865243724474","0.1783768762141349","0.12790367652705917","0.19025250427570214","-0.4190054795075053"
"0.027740656456857492","-0.023430316773741352","-0.03407227526887909","0.1364558913625229","-0.23904991759117314","0.17633907231670923","0.14044575252877084","0.18440717174517685","-0.4730336313436452"
"0.09571332893838418","-0.11998618986058089","-0.10520997393813297","0.13179100891548728","-0.02017924693913133","0.06445393451995683","0.14044575252877084","0.1937157793299151","-0.48655999267601224"
"0.369550884104383","-0.044718119778941925","-0.05127294658329402","0.03578908029533403","0.29146611361912006","-0.11011793269284244","0.12790864171945887","0.20565985476078608","-0.44154941506145035"
"0.3380271389948737","-0.003542849956106153","-0.013520592340878644","-0.11362237199377774","0.39302758227413426","-0.16969943712233593","0.10909056252449158","0.22673515051752113","-0.359038610934012"
"0.21096517251053273","0.041012077396334515","0.02164720507190961","0.07317574686360498","0.6779702645567977","-0.41607963214918275","0.08714441211769594","0.2690631292898652","-0.28694954615694035"
"0.04546873397243018","-0.13355867906313762","0.20932167996255713","0.10285521634546926","0.5887331089520549","-0.44752003513803595","0.06989533372104255","0.31464320780823857","-0.22345294138814367"
"-0.23034147272802868","-0.04252336210035388","0.003929622391569254","-0.39270403491208244","0.06814499658781359","-0.13428046461946114","0.06519329651850057","0.31455873768496506","-0.16836844514319035"
"-0.16336157258737405","0.35576456509372134","0.17557984493852866","-0.27594675975222","0.0482891588957097","-0.0023084026909413937","0.06833129811512839","0.30537683528513715","-0.14628827054921234"
"-0.17714434703402657","0.1455794892485721","0.12135762510593774","0.09480998429913247","-0.15277972623927344","0.032237225284465244","0.06833129811512839","0.3084937828339288","-0.1847417834797983"
"-0.31900764660046027","-0.10626558817664707","0.020720329519215753","0.3745677171372974","-0.07917618996681935","-0.02093975261026183","0.06833129811512839","0.3177686023693576","-0.23221287063196225"
"-0.27368823389701447","-0.14050650091682734","0.07528121541913711","0.16951571044368835","-0.009224302005556765","0.10783004605087472","0.0714593693269567","0.3116698594690118","-0.24437371358220444"
"-0.22640906280639259","-0.15771447829864033","0.10408565567208482","-0.09225856252619434","-0.06525428078040169","0.10540408903012985","0.07459737092358452","0.2932638196077192","-0.2427247857245445"
"-0.22640906280639259","-0.03451182333495582","0.06881091108013958","-0.192316910665509","-0.12265362767194339","0.08434678209006459","0.07773537252021231","0.27191821945650907","-0.24079244839134922"
"-0.09046371784333916","0.2834722094106588","0.04403481457543827","-0.24167001481530606","-0.09720620350332751","0.1829376754131352","0.08714441211769594","0.2383244514306435","-0.22936589362772114"
"0.44639404191733806","0.17731595457637586","0.14998382006029048","0.10015093666602834","-0.26803487606125587","0.35246355202278523","0.10125052372532183","0.2110068135639978","-0.2982601606805767"
"0.29666592250763213","-0.055476471835333614","-0.06661986679232121","0.37490575209722754","-0.46168635056413126","0.1257821280043866","0.11536160052534743","0.22375335516596698","-0.4222904529739373"
"0.14003996930095797","-0.18308210692722848","-0.1613215939358306","0.2142039321464498","-0.17845537842733883","0.01758444487916636","0.1184996021219752","0.23613667523786008","-0.4487119454431607"
"0.17944142740102348","-0.17916385855625228","0.07950562899583799","-0.14627654912302704","0.12291972125568643","-0.029673197884943277","0.11222359892871965","0.22366888504269344","-0.4096529668148402"
"0.13314213550398968","0.03827872887637517","-0.0057669218519972925","-0.333683130908284","0.1762109637971377","-0.04257928923530587","0.10595752612026348","0.21122643588450887","-0.33235947348702927"
"-0.059932745074702","0.08605173650600935","0.030060383165592362","-0.0892838548788093","0.14083562078246983","-0.20269245260446583","0.09498445091686569","0.23239464877684463","-0.3096223041997649"
"-0.1525184357214856","0.06236720425670649","0.09216104519608109","0.20818690985969374","0.23497967880537624","-0.2921617475295359","0.08401137571346787","0.27512808414090156","-0.29949685657382163"
"-0.1436608435373413","-0.052864306254682816","0.07269665858951","0.1438250534889995","0.2625952691587622","-0.15465850359371786","0.07616637172189837","0.2933905247926294","-0.25966494301222304"
"-0.052055032084145685","-0.10128362289396255","0.09055683750872634","-0.15296964132964336","0.1628596246593437","-0.11225277487109793","0.0714593693269567","0.3024457220075471","-0.23509849438286715"
"0.006067275872364615","0.0998396620451146","0.1391465059057161","-0.03959271576908208","-0.014131204423720371","-0.03345769083730524","0.0714593693269567","0.3024457220075471","-0.23084735224983755"
"0.13511478703844979","0.13428254635080916","0.07558423242674858","-0.046623842935628525","0.016907806221407563","0.017099253475017392","0.0714593693269567","0.29633853209487404","-0.2308602344987255"
"-0.07865359493114671","0.016007997585671983","-0.09816928464363153","0.04309063542982456","-0.15175270015175082","0.02864680889376287","0.07302837012527058","0.3024879570691839","-0.26029617320773357"
"-0.06880323040613036","-0.1813451514638061","-0.056513358361986246","0.15721123790223207","0.0707696188114825","-0.04015333221456103","0.0714593693269567","0.30859514698185697","-0.26112063713656347"
"0.013957882010204993","-0.11853199458887838","0.07549510977745108","0.0891309969723065","0.1596644323870511","-0.05723206964060475","0.06833129811512839","0.31771792029539353","-0.24076668389357325"
"0.03266583871936571","0.01059515962989043","0.1258137575708121","-0.07826391518508749","0.09770052510651998","-0.03268138459066689","0.06519329651850057","0.320708162659275","-0.22381364435700676"
"-0.02446369689627255","0.01081059596643895","0.03432044580201222","-0.05892831547708478","0.024096988834065868","-0.0469460118726466","0.06676229731681449","0.32382511020806665","-0.21158839016232464"
"-0.015606104712128262","0.026766349642063675","0.016763283890407345","-0.001191944321020786","0.028090979174431596","-0.032002116624858336","0.06519329651850057","0.32685758763358475","-0.20765930425149426"
"0.007060048213236708","0.020707202676636564","0.07995124224232542","0.01577741066747109","0.009946851628198725","0.0013790519805907753","0.06519329651850057","0.32685758763358475","-0.2119104463845239"
"0.004107517485188612","-0.0133317384980295","0.09110939793437076","0.00942235342078489","-0.045512557098022516","0.012926607399336255","0.06519329651850057","0.32685758763358475","-0.22041273065058306"
"-0.003783088652651765","-0.017303845953142834","0.06442607673470323","-0.019581046141219156","-0.10998697259249782","0.04999523067631754","0.06833129811512839","0.3176756852337567","-0.23656707075609557"
"-0.023496710849968593","0.01782574167530011","0.09831050799760768","-0.04459563317604782","-0.14935630594753138","0.1016195960777679","0.0714593693269567","0.3024457220075471","-0.2566118500257745"
"-0.025443576089860573","0.07589929914616038","0.11994948724703744","-0.031885518682675425","-0.2158847736170519","0.16663524423372983","0.07930437331852622","0.28122682704124724","-0.29251467767654277"
"-0.11214999157511613","0.09425178206588737","0.10294488576107698","-0.0061948617279865194","-0.2767075408003357","0.21398992527866928","0.09184644932023785","0.2538247190513282","-0.33190859477595036"
"-0.10425938543727573","0.11532414873453943","0.14919954074647257","-0.05122111839067813","-0.22877965671594697","0.31219266547842073","0.10752652691857742","0.21430114837166378","-0.34530613361943757"
"-0.058952865881113946","-0.008161266420865043","0.0005964353078432464","0.01672390855527542","-0.2698607002168516","0.35013463328287014","0.12633964092114497","0.18106215486354676","-0.4055306471706903"
"0.07994500980998753","-0.08973084934654821","0.008973964341806993","0.19513876040639122","-0.1512962441128519","0.1352918795257064","0.13417967972031475","0.18739741410905827","-0.45677623324702893"
"0.2848429064481557","-0.08546251692868066","-0.04089907020506657","0.09447194933920236","0.014625526026912862","0.021368937831528326","0.13417967972031475","0.19354683908336814","-0.4572915232025477"
"0.3291695468107294","-0.04156736335691983","-0.05282368068107028","-0.06257909304433006","0.22687758411492007","-0.07363153910083993","0.1247706401228311","0.20250067215035772","-0.40739857325944556"
"0.3331148498796496","-0.07163419707647256","0.028901788724725028","-0.01789087134156857","0.5018923475515314","-0.2852720295906205","0.09968648811940767","0.23252980097408218","-0.3301308444294107"
"0.06714211455692307","0.021488159396624944","0.12870133140805065","-0.10064182953246124","0.3066432769125098","-0.3771672815364353","0.07930437331852622","0.2749929319436639","-0.25799025065678716"
"-0.23231412426248876","0.0404734865549632","0.01396483270246626","-0.17527994868503108","0.06243929610157685","-0.18687521282920946","0.07459737092358452","0.28408191720789117","-0.22919842439217755"
"-0.2539875048469816","0.13183195802256972","0.11269490359422202","-0.14762868896274753","0.16753829905805784","-0.08944877887609634","0.07459737092358452","0.2932131375337551","-0.18757587823515137"
"-0.17616446784043857","0.11350640464491128","0.1560619847423791","0.10914266660016944","0.024096988834065868","-0.012400383897239964","0.0714593693269567","0.2962962970332373","-0.20059983186088756"
"-0.25201485331252155","-0.08651276906935469","0.14148151931731023","0.11678225669459008","0.0013883008988435956","-0.02229828854187894","0.0714593693269567","0.29936256250806487","-0.21779763412632544"
"-0.238219185718585","-0.06453826274140571","0.11059160907080134","0.08886056900436241","-0.08784885470589922","0.020398555023230385","0.07459737092358452","0.29638076715651085","-0.2385251725870668"
"-0.25300762565339363","-0.04245603824518247","0.0592747876053085","-0.03824057592936162","-0.12984281028460168","0.08007709773355365","0.07773537252021231","0.2903158123054745","-0.25090501376840446"
"-0.25694003557502976","-0.023389922460638504","0.03070206624053426","-0.08759368007915871","-0.10736235036882891","0.05397380019033908","0.07773537252021231","0.28114235691797385","-0.25856995185674575"
"0.010992458134872828","0.1328552806211752","0.08626112581258748","-0.1366087492690257","-0.11363862090368934","0.11753387413385409","0.08714441211769594","0.250623301379263","-0.2647147845763067"
"0.4601897095112745","0.226516227935644","0.23249356877990368","-0.1222084599760027","-0.4233440432966203","0.36925117460633955","0.1043885253219496","0.21412376111278947","-0.3326557652114525"
"0.13314213550398968","-0.06087584502008088","-0.22691586381878082","0.3432656798477685","-0.5279865902142022","0.218841839320159","0.1184996021219752","0.22383782528924046","-0.4561836497981824"
"0.14299250002900604","-0.2820481740292046","-0.009706142950946222","0.24117912194887317","-0.068563587062419","-0.0516038493524767","0.1184996021219752","0.24839329012484299","-0.4628308902243742"
"0.20012203564464445","-0.10419201343736757","0.10408565567208482","-0.3119812864807705","0.0841209579492765","0.07037326965057426","0.1169306013236613","0.2084220277918291","-0.40394613055747003"
"0.04153632405079406","0.04769060382933861","-0.016425990707976717","-0.2960260363720689","0.13478757826705887","-0.03995925565290144","0.10909056252449158","0.2021881326942458","-0.34446878744171966"
"-0.06387804814362216","0.023965677266932908","0.05503254949874813","0.003810973085944947","0.14848125943402707","-0.2590716937665761","0.09654848652277985","0.2385863088127912","-0.3321791220025977"
"-0.12986517594340471","0.009154429129222205","0.09861352500521914","0.2305648242070675","0.26168235708096427","-0.356595166000519","0.08400641052106815","0.29049319956434877","-0.31861411392356687"
