"AccX","AccY","AccZ","GyroX","GyroY","GyroZ","MagX","MagY","MagZ"
"-0.12945259523031505","-0.004121835110580301","0.1457950555433086","0.029095988088717707","-0.02805311361013805","0.052809340820381565","-0.061136093707766674","-0.40975567536052837","-0.04509820553421985"
"0.23244515588576486","0.07369107669653806","-0.22222801246573304","-0.11017441540249054","-0.06308611459563172","0.1988519534692214","-0.040063817163323086","-0.43129555679526743","-0.03489546441494881"
"0.04264513471722264","0.17314187555574834","-0.1466698303913238","-0.08022451795268218","-0.09811911558112538","0.24795332356909716","-0.015168342471089329","-0.45648454755542117","-0.030425324050823748"
"0.2570323877564537","0.12625754281437682","-0.1789144049071545","0.11401037002316312","0.023069962746543257","0.16644116767207026","-0.0036739220657201325","-0.46716157113719","-0.05241532290258596"
"0.2619446768716779","-0.11781836172406142","-0.07055908789127012","0.15558867009456756","0.027976865164706863","0.04232920649076381","-0.0017573577994253315","-0.47087825656122334","-0.0581608059066199"
"0.08984694692414015","-0.05095230876781471","-0.11699198817526071","-0.06771722443526786","0.025238128931313223","-0.04490820797522093","-0.007507050598309735","-0.46364761400901283","-0.041504058094476645"
"-0.014394148867427278","0.0874790022356433","-0.1204142979082842","-0.1397862778923688","0.06517803233497048","-0.15999560903935656","-0.024746198610163722","-0.445554113603832","-0.01899876928719569"
"-0.10486536335962622","0.03415850893988474","-0.024144012137139063","-0.00835828547153927","0.13045124589751894","-0.18182922222606016","-0.04006878235572284","-0.4276464474698528","-0.0021359054928449324"
"-0.1304453675711871","-0.040436322590040104","0.01875963123467104","0.02382264271380788","0.14608486522980765","-0.15252366141546242","-0.05347480183498715","-0.4132020563900866","0.009316413768559061"
"-0.14322247652968353","-0.041405786104508444","0.037172370579531794","0.010706886268519336","0.1322770700531147","-0.14087906771588712","-0.05921952944147187","-0.39489738067672203","0.021168082745490074"
"-0.02914390936038378","0.10663937141742723","0.03606724972824296","0.0066504667493579315","0.06803088257808886","-0.13204858416037588","-0.07070898465444146","-0.38422880410728066","0.021258258487705847"
"0.06919212497508745","0.19218106179822367","0.035354268533863066","0.11434840498309326","-0.004773855626292098","-0.0025024792526009833","-0.06879738558054627","-0.3915945988567288","0.009960526212957482"
"-0.0743730700328412","-0.06680034427516517","-0.04628207822263474","-0.01802608532554062","-0.015957028579316135","0.09327430392640564","-0.0649642570479566","-0.39880834738428456","0.009921879466293582"
"0.013132720584025608","0.02181131390144771","-0.07089775395860058","-0.09611216106939767","-0.0887617667836971","0.00720134883037841","-0.061131128515367","-0.4061065660351137","0.014842898541497541"
"-0.030136681701255826","0.08745207269357472","-0.003075417843213197","-0.02242053980463214","-0.025086149357294935","-0.006966240170771502","-0.0630476927816618","-0.4024574567096992","0.009921879466293582"
"-0.04684620058138833","0.031007752517862645","-0.009563546712070244","0.05877545757058198","0.032313197534246794","-0.0356895712963905","-0.06879738558054627","-0.3988759234829033","0.009780174728525921"
"-0.013414269673839253","0.02691446212344077","-0.0184936361716784","0.044713203237489126","0.015424324094986008","-0.0325843463098371","-0.06879738558054627","-0.39894349958152203","-0.001131090079583386"
"0.005267900740753368","-0.014462779264909228","-0.016158622760084247","-0.03526586828197659","-0.029878937765733814","0.029908306544550192","-0.06688082131425147","-0.39894349958152203","0.00411198521781979"
"-0.02325174105157161","0.01180698902297585","-0.03965135311490175","-0.08299640462410912","-0.056011045992698134","0.034663182305210094","-0.0630476927816618","-0.4061741421337326","0.009741527981862013"
"-0.02718415097320773","0.04611522561832758","-0.05077385974722809","-0.06176780914049777","-0.0383233744853642","-0.0052195511158352114","-0.0630476927816618","-0.4024574567096992","0.015023250025929103"
"-0.01930643798265142","0.023911818182795783","-0.05180768247907893","-0.00835828547153927","0.014283183997738657","-0.029479121323283695","-0.0649642570479566","-0.39880834738428456","0.020717204034411175"
"-0.010461738945791157","-0.022514712343410147","-0.024375731025312524","0.001985584302322315","0.018505402357553855","-0.04034740877622062","-0.06879738558054627","-0.39894349958152203","0.02058838154553149"
"-0.015374028061015257","-0.026540678882660602","-0.0165151133572742","-0.06832568736314204","-0.01299006432647302","-0.036951068947177826","-0.07262058372833644","-0.3915945988567288","0.026436922540669185"
"-0.016353907254603325","0.051137585214114926","-0.013235399863126687","-0.11801682647286925","-0.05178882763288294","-0.01725229793872966","-0.07262058372833644","-0.38422880410728066","0.04315808159725229"
"-0.02423162024515959","0.08443596398189547","-0.008333654151764913","-0.06514815873979894","-0.038437488495088934","-0.0052195511158352114","-0.07262058372833644","-0.38422880410728066","0.04315808159725229"
"-0.01930643798265142","0.048108011731401376","0.004196990339461709","-0.0021384422088251143","-0.003404487509595277","0.011471033186889345","-0.06879738558054627","-0.38416122800866187","0.037618714575425836"
"-0.014394148867427278","0.03297360908886788","0.013697464754573799","-0.05859028051715467","-0.04140445274793205","0.04388181898404052","-0.0649642570479566","-0.39139187056087243","0.03750277433543412"
"-0.014394148867427278","0.036003182571581444","-0.016960726603761626","-0.04209417447256495","-0.03957862859233629","0.05766125486187125","-0.0649642570479566","-0.3950325328739597","0.042681438388397455"
"-0.03406909162289195","0.02393874772486436","-0.044054011990197595","-0.01586266158198787","-0.025656719405918613","0.05086857520378568","-0.05921952944147187","-0.39860561908842806","0.04262990939284558"
"-0.021279089517111494","-0.004337271447128814","-0.05546171110027589","-0.008628713439483363","-0.01070778413197832","0.025444545626379673","-0.057307930367576754","-0.4059714138378762","0.04220479517954262"
"-0.013414269673839253","-0.008376702757413557","-0.049971755903550706","0.01097731423646343","-0.0007798652859263705","0.008268769919506144","-0.05539136610128195","-0.39853804298980944","0.04251396915285387"
"-0.014394148867427278","0.0016949459762297223","-0.038047145427546995","0.020374686122520684","0.010060965637923459","-0.0021143261292818063","-0.057307930367576754","-0.4059714138378762","0.031332177118097215"
"-0.01243439048025123","-0.001334627506483833","-0.0379936718379685","0.02003665116259057","0.013484385929665511","-0.008518852664048206","-0.057307930367576754","-0.4059714138378762","0.042127501686214805"
"-0.016353907254603325","-0.008376702757413557","-0.04467787053528","0.015033733755624836","0.00937628157957505","-0.009392197191516351","-0.057307930367576754","-0.4022547284138428","0.03184746707361596"
"-0.013414269673839253","-0.006356987102271189","-0.0459790612150233","0.0013095143824620806","-0.0003234092470274303","-0.009004044068197175","-0.061131128515367","-0.40603898993649495","0.031267765873657365"
"-0.013414269673839253","-0.0053471292747000075","-0.0419685419966364","-0.01802608532554062","-0.01184892422922567","-0.013661881548027282","-0.061131128515367","-0.3987407712856658","0.03188611382027986"
"-0.022258968710699517","0.010797131195404663","-0.03564083389651484","-0.021474041916827814","-0.011278354180601996","-0.021910135418559764","-0.0630476927816618","-0.3986731951870469","0.03725801160656272"
"-0.015374028061015257","0.01987238687251105","-0.026211657600840762","-0.007749822543665058","-0.003518601519320012","-0.02550055180926214","-0.0649642570479566","-0.39880834738428456","0.03718071811323491"
"-0.006529329024155038","0.013786310365015375","-0.02592646512308879","-0.01586266158198787","-0.008767845966657823","-0.021910135418559764","-0.06879738558054627","-0.39894349958152203","0.04228208867287043"
"-0.02029921032352347","0.027951249493080532","-0.0036992763882956066","-0.02580088940393331","-0.0139029764042709","-0.015505608883793369","-0.06879738558054627","-0.3915945988567288","0.04273296738394933"
"-0.016353907254603325","0.06526213002907723","0.018813104824249534","0.027202992313109048","0.005496405248934058","-0.02763539398751761","-0.07262058372833644","-0.39166217495534755","0.03723224710878678"
"-0.016353907254603325","0.055163551753365375","0.010863364506913716","0.02970445101659192","0.023298190765992724","-0.014341149513835841","-0.07262058372833644","-0.39166217495534755","0.03723224710878678"
"-0.011454511286663204","0.03398346691643907","-0.003521031089700637","0.012261847084197874","0.024211102843790605","0.006133927741250677","-0.07262058372833644","-0.39166217495534755","0.03748989208654615"
"-0.016353907254603325","0.02388488864072722","0.004482182817213667","0.013208344972002201","0.007892799453153495","0.02243635892065606","-0.07070898465444146","-0.3915945988567288","0.037296658353226625"
"-0.013414269673839253","0.025904604295869597","-0.007531550308087533","0.008137820573050446","0.007322229404529818","0.027385311242975552","-0.06879738558054627","-0.3915270227581099","0.0319505250647197"
"-0.02423162024515959","0.014836562505689412","-0.022343734621329832","0.0025940472301965254","0.006295203317007203","0.03417799090106112","-0.0649642570479566","-0.39880834738428456","0.03156405759808065"
"-0.030136681701255826","0.03804982776879238","0.00808273784883213","0.00942235342078489","-0.023716781240598114","0.04999523067631754","-0.05921952944147187","-0.4023223045124616","0.026089101820694037"
"-0.038981380738116043","0.1086725518436039","0.0565654590666649","0.028149490200913375","-0.08111612813213986","0.1076359694892151","-0.051558237568692426","-0.41333720858732426","0.009187591279679372"
"-0.07929825229534941","0.1329495340184152","0.018224895338886115","0.016588694571303374","-0.10485184215488474","0.20166606361328546","-0.030490926216648444","-0.4384586232488591","-0.0025610197061478913"
"-0.10585813570049832","0.07650521384270309","0.08109201215333324","-0.01052170921509202","-0.175374300164771","0.28133449217454626","-0.007507050598309735","-0.46364761400901283","-0.03064432228191921"
"0.05246971294767088","-0.07912060977153362","-0.006426429456798693","0.03754686208697064","-0.1340650286444169","0.32752471384952814","0.02888284449929322","-0.49579694292690196","-0.04791941804068496"
"-0.031116560894843805","-0.22824294897621192","-0.13921917691005395","0.12557116565277313","-0.1530079542587229","0.21602772917609495","0.04229382917095725","-0.5138904433320828","-0.07584813362980065"
"0.13804153147192974","-0.16301959808614763","-0.2766997757163569","-0.07549202851366052","0.02466755888268954","-0.11322315767939588","0.02696628023299842","-0.49593209512413955","-0.06434428537284478"
"0.4655145793395885","0.35682828200542965","-0.18968042094229084","-0.1039545721397764","0.023526418785442194","-0.27653858431593903","-0.0017573577994253315","-0.47087825656122334","-0.041800349818899914"
"0.20687804482148797","-0.022945585016507182","-0.2352755683228851","-0.09516566318159334","0.32296158030314703","-0.24432187508044742","-0.017079941544984448","-0.4491356468306279","0.0077318971553389385"
"0.1045967074170966","0.2101834606710594","0.05984517256081241","-0.10361653717984627","0.16046323045512428","-0.41695297667665093","-0.0553864009088822","-0.40218715231522395","0.020794497527738987"
"-0.13733030822087133","-0.015203341671794766","0.20019552067449448","0.20210228058095167","0.23109980247473527","-0.286436488960578","-0.07837027652722091","-0.3769981615550702","0.011068399617322778"
"-0.28188827556967205","0.020384048171813784","0.13010946926695094","0.07939559012631914","0.04737624681791182","-0.15980153247769696","-0.08603156840000044","-0.3625368764506493","0.01699423410578828"
"-0.2268087503721982","0.03339101699093063","0.03086248700926974","-0.17169677810977185","-0.003404487509595277","0.030684612791188542","-0.08411996932610531","-0.3697675190028598","0.038146886779832544"
"-0.21796405133533794","-0.0009172196044210749","0.02066685592963726","-0.08455136543978765","-0.12037134747744868","0.09715583515959737","-0.07645371226092604","-0.3842963802058995","0.02137419872769757"
"-0.25336863377734714","0.011254933410570264","0.07863222703272262","0.1321290438754174","-0.05338642376902923","0.055041221279466826","-0.07645371226092604","-0.38436395630451825","-0.005768699679252047"
"-0.25730104369898327","-0.019000407103462423","0.08818617503741319","0.16586493287644308","-0.021434501046103414","0.03485725886686969","-0.07453714799463124","-0.39166217495534755","-0.03341400579283243"
"-0.1638772984787362","-0.045364428788587485","0.10907652403274408","0.10968352253605763","-0.021434501046103414","0.0489278095871898","-0.07070898465444146","-0.3990110756801408","-0.06635391619936783"
"0.17933828222275103","0.015280899949820726","-0.1262963927619183","-0.004910328880252074","-0.1565454885601897","0.16488855517879353","-0.05539136610128195","-0.42076213242306365","-0.07236992643004916"
"0.10557658661068463","0.040635063807374604","-0.31318658833874796","-0.16419240199932325","-0.09766265954222643","0.2419369501576499","-0.028574361950353643","-0.4459595701955448","-0.046476606165232484"
"0.2894715463231307","0.3572456899074924","-0.07784932060380455","-0.0402011786969563","-0.06308611459563172","0.1876925511737951","-0.017079941544984448","-0.46026880907807344","-0.05787739643108462"
"0.1400012898591058","-0.15902056108896573","-0.0346248356945235","0.2161645349140445","0.14209087488944191","0.042135129929104224","-0.01899650581127925","-0.45661969975265876","-0.07904293135401684"
"0.08885417458326805","-0.04893259311267233","-0.07692244505111069","-0.05548035888579759","0.10386268163165567","-0.1573755754569521","-0.036235653823133165","-0.4349446661206822","-0.056795287524495246"
"-0.04487354904692822","0.027008715520680744","0.01986475208595988","-0.07272014184223356","0.07419303910322454","-0.1526206996962922","-0.04772510903610268","-0.41671601351826365","-0.03414829397944663"
"-0.13338500515195115","0.01705824972634602","0.057118019492309324","-0.08299640462410912","-0.011050126161152526","-0.08246202265635118","-0.05539136610128195","-0.4132020563900866","-0.02306955993579373"
"-0.13436488434553917","-0.005131692938151488","0.018403140637481094","-0.08076537388857036","0.013370271919940776","-0.0818797929713724","-0.061131128515367","-0.40603898993649495","-0.012171177376572386"
"-0.11273018320289846","0.020060893666991004","-0.04022173807040567","-0.009913246287217809","0.05251137725552489","-0.06150175399711569","-0.0630476927816618","-0.3987407712856658","-0.0011826190751352602"
"0.15475105035206224","0.19503559325749162","-0.07374967873612015","0.0585050296026379","0.06848733861698782","0.012247339433527698","-0.061131128515367","-0.3987407712856658","-0.011977943643252852"
"-0.010461738945791157","0.0107702016533361","0.05816966675401967","0.08223508378973211","-0.0010080933053758416","0.0807563656993622","-0.05539136610128195","-0.41333720858732426","-0.007095571314712799"
"-0.04291379065975221","-0.11524659045651346","-0.05366143358446667","-0.09861361977288052","-0.0015786633539995158","0.02447416281808173","-0.05347480183498715","-0.41326963248870535","0.009252002524119219"
"-0.00848908741133104","0.05918951829261584","-0.011649016705631416","-0.09800515684500632","-0.052701739710680824","-0.029867274446602865","-0.05539136610128195","-0.4059714138378762","0.009689998986310145"
"-0.03504897081647997","0.07941360438610809","0.010239505961831315","0.022538109866073436","0.036535415894061986","-0.036951068947177826","-0.057307930367576754","-0.4059714138378762","0.020485323554427743"
"-0.037988608397244","0.04410897473421948","-0.013520592340878644","0.038155325014844844","0.035280161787089905","-0.025694628370921728","-0.057307930367576754","-0.4059714138378762","0.015049014523705042"
"-0.018339451936347468","0.05014119215757803","-0.018529285231397394","-0.011806242062826464","-9.518122757796018e-05","-0.007742546417409854","-0.061131128515367","-0.4061065660351137","0.020356501065548063"
"0.00035561162552922394","0.007740628170622552","0.008956139811947506","-0.03519826128999057","-0.023260325201699173","0.04999523067631754","-0.05539136610128195","-0.4059714138378762","0.020485323554427743"
"-0.03209644008843183","0.04612869038936185","-0.026835516145923156","-0.042432209432495066","-0.035128182213071624","0.03214018700363545","-0.05347480183498715","-0.41326963248870535","0.020124620585564624"
"-0.025211499438747613","0.05822005477814751","-0.04414313463949506","-0.0021384422088251134","-0.003975057558218952","-0.0026965558142605698","-0.05347480183498715","-0.41326963248870535","0.020124620585564624"
"-0.016353907254603325","0.02189210252765342","-0.01555258874486134","0.03159744679220057","0.01165856177406975","-0.0038610151842180967","-0.05347480183498715","-0.41326963248870535","0.020124620585564624"
"-0.014394148867427278","0.006744235114085652","-0.011345999698019955","0.009489960412770915","-0.0013504353345500455","-0.0030847089375797454","-0.05539136610128195","-0.41326963248870535","0.020047327092236812"
"-0.017333786448191304","0.024908211239332685","-0.015606062334439834","-0.0018004072488949968","-0.003518601519320012","-0.013564843267197488","-0.057307930367576754","-0.40975567536052837","0.014868663039273476"
"-0.022258968710699517","0.03601664734261573","-0.007798918255980003","-0.009304783359343597","0.010175079647648194","-0.0181256424661978","-0.057307930367576754","-0.4059714138378762","0.020485323554427743"
"-0.033089212429303926","0.04511883256179067","-0.0399008965329347","-0.015524626622057752","0.025922812989661634","-0.0357866095772203","-0.0630476927816618","-0.4061065660351137","0.020536852549979612"
"0.001348383966401271","0.008737021227159452","-0.015071326438654909","0.061006488306120765","0.036535415894061986","-0.03287546115232648","-0.0649642570479566","-0.39880834738428456","0.020717204034411175"
"-0.011441618139379182","-0.0013211627354495462","-0.01122122798900348","0.0250395685695563","0.025922812989661634","-0.02666501117921967","-0.06879738558054627","-0.39894349958152203","0.02058838154553149"
"-0.01931933112993549","0.010783666424370389","-0.028885337079765355","-0.01329359588651898","0.017364262260306504","-0.024530169000964202","-0.06879738558054627","-0.39523526116981605","0.020833144274402894"
"-0.01243439048025123","0.022875030813156037","-0.02216548932273486","-0.005856826768056402","0.018277174338104385","-0.026762049460049463","-0.06879738558054627","-0.3915270227581099","0.02107790700327429"
"-0.011454511286663204","0.011793524251941563","-0.0033249612612461644","-0.02715302924365378","-0.011963038238950405","-0.011915192493090993","-0.06879738558054627","-0.3915270227581099","0.02107790700327429"
"-0.02029921032352347","0.0450919030197221","-0.0239122932489656","-0.048652052695209225","-0.023488553221148643","-0.001920249567622218","-0.07070898465444146","-0.3915270227581099","0.03187323157139189"
"-0.03012378855397176","0.06326934391600342","-0.022896295046974244","-0.022690967772576235","-0.014017090413995636","-0.000949866759324279","-0.06879738558054627","-0.3915270227581099","0.0319505250647197"
"-0.026191378632335637","0.0440955099631852","-0.03867100397262939","0.023755035721821853","0.02181470863957117","0.0033198175971866535","-0.06879738558054627","-0.3915270227581099","0.02107790700327429"
"-0.02029921032352347","0.01987238687251105","-0.02765544451946004","0.061006488306120765","0.036535415894061986","0.0026405496313780964","-0.07070898465444146","-0.3878779134326954","0.02127114073659382"
"-0.015374028061015257","-0.018475281033125405","-0.05385750341292113","0.031665053784186596","0.03413902168984255","0.010209535536102023","-0.06879738558054627","-0.3915270227581099","0.02107790700327429"
"-0.012421497332967161","-0.007366844929842376","-0.04722677830518812","0.03592429427930607","0.021928822649295906","0.002058319946399333","-0.07070898465444146","-0.3915270227581099","0.015834831705871116"
"-0.017333786448191304","-0.006356987102271195","-0.06476611568693351","0.03098898386432636","0.03356845164121888","-0.007936622979069443","-0.07070898465444146","-0.3878779134326954","0.02094908451439461"
"-0.017333786448191304","-0.02046806714619921","-0.06194983996913293","0.041873709574076136","0.045550422662316056","-0.022395326822708735","-0.07262058372833644","-0.38801306562993293","0.010269700186268728"
"-0.016353907254603325","-0.016455565377983036","-0.05394662606221861","0.03470736842355766","0.03356845164121888","-0.023850901035155646","-0.07262058372833644","-0.38422880410728066","0.02137419872769757"
"-0.011454511286663204","-0.015445707550411854","-0.04184377028761991","0.01415484285980653","0.020102998493700144","-0.01482634091798481","-0.07645371226092604","-0.38436395630451825","0.021309787483257722"
"-0.010461738945791157","-0.011406276240127118","-0.005802570911716299","-0.011806242062826464","-0.018923992832159245","-0.004637321430856448","-0.07645371226092604","-0.38436395630451825","0.021309787483257722"
"-0.007509208217743016","0.0057209125154801775","0.012752764672020432","-0.05487189595792338","-0.056125160002422875","0.004290200405484594","-0.07645371226092604","-0.38436395630451825","0.010462933919588255"
"-0.01636680040188735","0.06930156133936197","0.009401753058434945","-0.06055088328474935","-0.059662694303889666","0.005648736337101708","-0.07645371226092604","-0.38801306562993293","0.01564159797255159"
"-0.045866321387800356","0.09153189831696229","-0.04346580250483417","-0.05548035888579759","-0.01070778413197832","0.008948037885314702","-0.07262058372833644","-0.38422880410728066","0.02143860997213741"
"-0.02423162024515959","0.05014119215757803","-0.017299392671092092","0.004081401053889041","0.023526418785442194","0.012441415995187286","-0.07262058372833644","-0.3878779134326953","0.021258258487705847"
"-0.02914390936038378","0.05822005477814751","0.00515951495187457","0.036329936231222215","-0.009680758044455704","0.030587574510358744","-0.06879738558054627","-0.3914594466594912","0.0157188914658794"
"-0.03111656089484385","0.08544582180946664","0.034356094861731225","0.05695006878695936","-0.03284590201857692","0.08182378678848994","-0.0630476927816618","-0.4024574567096992","-0.006618928105857966"
"-0.031103667747559783","0.08848886006321449","0.08499558419256316","0.07966601809426323","-0.11923020738020136","0.1688671246928151","-0.04772510903610268","-0.4206269802258261","-0.0291757459086908"
"-0.07045355325848912","0.03813061639499807","0.07406914738869129","-0.04459563317604782","-0.1584854267255102","0.2393169165752455","-0.028574361950353643","-0.445891994096926","-0.046425077169680605"
"-0.06454849180239296","0.06531598911321437","0.11135806385475973","-0.08022451795268216","-0.25011897653447246","0.26901063050916246","0.003987369807059461","-0.47087825656122334","-0.07417344127436476"
"0.00035561162552922394","-0.10625212340561278","-0.07553213172206992","-0.000245446433216458","-0.19214905959430703","0.35314281998859376","0.04420542824485237","-0.5026897049860185","-0.08045997873169339"
"0.0013354908191172024","-0.2000477184304244","-0.15608118215713837","0.0359919012712921","-0.17274967794110208","0.15984256457564425","0.05569984865022157","-0.5171340960657846","-0.09191229799309736"
"0.19999310417180377","0.0930803469859048","-0.22297664271983197","-0.1092279175146862","-0.07255757740278472","-0.0932332718284583","0.04420542824485237","-0.5100470527231391","-0.07546166616316159"
"0.34553095071419254","0.15330826782225027","-0.1908568399130177","-0.06893415029101624","0.0505714390902044","-0.17862695895867697","0.0250546811591033","-0.48849872427607266","-0.052969259604768594"
"0.2884916671295426","0.058597068367107416","-0.21281666069991848","-0.15134707352197882","0.2357784768734494","-0.29439362798862106","-0.009423614864604605","-0.45622269017327344","0.008337362853073455"
"0.03871272479558647","0.1477338526140573","0.10160804602161468","-0.15824298670455317","0.112763574390185","-0.34999656290409303","-0.034319089556838364","-0.4201539475354946","0.02571551660294295"
"-0.1796069381652807","0.01922607786286549","0.11392479615452736","0.020374686122520684","0.12520200145018112","-0.2358795446482554","-0.05730296517517708","-0.3985380429898093","0.04264279164173355"
"-0.2877804438784842","0.08191805179848463","0.10135850260358173","0.062493842129813286","0.07476360915184824","-0.20385691197442338","-0.06879738558054627","-0.38416122800866187","0.05951853768497227"
"-0.219923809722514","0.06464275056150023","0.06547772399641358","-0.08637675422341029","0.08777260626046803","-0.016961183096240274","-0.06688082131425147","-0.38774276123545776","0.07024945100865003"
"-0.22878140190665833","0.0021258186493267675","0.019080472772141987","0.025715638489416534","-0.06765067498462111","0.07396368604127664","-0.061131128515367","-0.39496495677534094","0.05902901222722946"
"-0.23762610094351858","-0.02003719447310217","0.06050468016561381","0.148354721952063","-0.017440510705737686","0.053876761909509296","-0.05921952944147187","-0.39860561908842806","0.026333864549565437"
"-0.25237586143647506","-0.008928758369819143","0.06554902211585156","0.16836639157992594","-0.01367474838482143","0.017099253475017392","-0.061131128515367","-0.4061065660351137","0.004060456222267916"
"-0.22582887117861022","-0.04027474533762871","0.10246362345487055","0.14936882683185335","-0.03227533196995325","0.0008938605764418059","-0.06688082131425147","-0.3988759234829033","-0.028222459490981122"
