"AccX","AccY","AccZ","GyroX","GyroY","GyroZ","MagX","MagY","MagZ"
"0.06316138375833735","0.09774824594445053","-0.02103175774152365","0.0019198971450722086","-0.006289030389071711","0.0032956495588484626","-2.096980597740999","-1.1737949294880736","0.06440957983676404"
"0.06316042093900423","0.09782614975008518","-0.02134154556654545","0.0002523185638997639","-0.0041800570241472485","-0.0016149067243776882","-2.1028320010674553","-1.1758134071768434","0.06381467837195379"
"0.06300925830370332","0.09781887872822592","-0.02087892908117956","0.0009127647891086416","-0.005889349780875631","0.0003266001583844553","-2.102692681940635","-1.1741247461038857","0.06250720262511808"
"0.06315175556500607","0.09789885996867748","-0.02164720288723363","0.0016120098231745424","-0.00484132500046208","-0.0011652051926579067","-2.0999341632295914","-1.1738081221527064","0.06302038685575109"
"0.06315175556500607","0.09782095616304284","-0.02195699071225543","0.0005265096498173855","-0.005044515920437213","0.005685401843168316","-2.106398570714057","-1.1787949493837846","0.06329005372853595"
"0.06315175556500607","0.09789885996867748","-0.02149230897472273","0.0015864969587896514","-0.006735380289841583","0.001605567817404017","-2.1021911330840815","-1.175879370500006","0.06318055263473847"
"0.0630805069343547","0.09789782125126902","-0.02133948031437864","0.0004150232462034087","-0.002519108867931207","-0.0011487023841544285","-2.1014109459738872","-1.1758925631646384","0.06342243564790306"
"0.06315271838433921","0.09774201363999974","-0.021337415062211828","0.0038217127037859368","-0.005900598277034442","0.0005404086038486361","-2.100547167387601","-1.176618159719425","0.06432295956853619"
"0.06315271838433921","0.09782095616304284","-0.02164720288723363","0.0019372266378619462","-0.005894615034396778","0.0007544597376731625","-2.1038072349551977","-1.1746656453538176","0.06335215882651064"
"0.0630082954843702","0.09789782125126902","-0.021653398643734067","0.001239040628355418","-0.006521658862824159","0.002249420037400013","-2.1026090904645427","-1.1750218472988945","0.0633864800648651"
"0.0630082954843702","0.09781991744563438","-0.021653398643734067","0.002254741455753911","-0.007156121912122246","0.0035296011382213006","-2.1014388097992516","-1.1748503426586723","0.06341753261385245"
"0.0633683899149596","0.09782095616304284","-0.02148198271388867","0.00123942572819519","-0.005893897045280257","0.0022533030511655374","-2.1015502651007076","-1.1771854442986218","0.06080094677549744"
"0.06343963854561098","0.0978219948804513","-0.021634811374232756","0.0005519262392423335","-0.007577820853224936","0.0024552197669728","-2.1013830821485233","-1.1745337187074927","0.06429190701954883"
"0.0630082954843702","0.09774201363999974","-0.021653398643734067","0.0009052553422330889","-0.005257040698927104","0.0014009815296329563","-2.1007143503397856","-1.1739796267929286","0.06321814256245999"
"0.06286676104240056","0.09758308987650507","-0.020418377847980482","0.0017613322860461121","-0.003150939290468722","0.0014160282079743627","-2.1018010395289846","-1.1750218472988945","0.06362672873334616"
"0.0630082954843702","0.09789782125126902","-0.021343610818712264","-0.00046117516423769856","-0.0025140829441155674","0.0012068308413567418","-2.096869142439543","-1.1758397925061086","0.0666077734361316"
"0.0630805069343547","0.0977430523574082","-0.021649268139400445","0.00014189118484516","-0.003359874123376013","0.0007716906112576765","-2.1006864865144212","-1.1748371499940398","0.0630024090642321"
"0.06329714128430822","0.0975882834635474","-0.021950794955754995","0.0013974129374616287","-0.005471480115061048","0.0039681390053652","-2.1010765800695186","-1.1755099758902965","0.0625562329656244"
"0.0630082954843702","0.09774201363999974","-0.021653398643734067","-0.0001063056618878555","-0.004201596697642846","-0.00030487495523393206","-2.1010765800695186","-1.1741643240977833","0.06342570433727016"
"0.0632961784649751","0.0978219948804513","-0.021950794955754995","0.0008280428243588148","-0.004207579940280513","0.0005518149567848639","-2.099404750547674","-1.176261957774348","0.06391600774233357"
"0.0632249298343237","0.0977430523574082","-0.021333284557878203","0.0005665600331536672","-0.002098606575356051","0.0012090150365998494","-2.1002685291339604","-1.175364856579339","0.06301548382170045"
"0.0628648354037343","0.09789678253386057","-0.021349806575212703","0.001781357477714253","-0.006734183641314051","-0.001178067675756206","-2.1010208524187908","-1.1753780492439716","0.0634306073713208"
"0.06300925830370332","0.09758724474613895","-0.021808292556244967","0.0015890001077481688","-0.00757686353440291","0.0013837506560484423","-2.100157073832504","-1.1761036457987581","0.0645501334795489"
"0.06315175556500607","0.0977440910748167","-0.022111884624766334","0.0005579915617187416","-0.010524448187422618","0.0015774159676039661","-2.1032499584479165","-1.175417627237869","0.06533461892765031"
"0.06315271838433921","0.0977430523574082","-0.02164720288723363","-0.0011375067578371688","-0.010098680641326315","-0.0003468600415736635","-2.09801155927947","-1.1760244898109633","0.06177011317283943"
"0.06300925830370332","0.09774201363999974","-0.021343610818712264","-0.0007958269249995149","-0.005252254104816971","0.00011594666160476257","-2.101215899196339","-1.17478437933551","0.06124058549537095"
"0.06301022112303645","0.09758620602873048","-0.02134154556654545","0.0018691602411822555","-0.00210147853182213","-0.0009327097434471403","-2.104949651795125","-1.175852985170741","0.06310373843461187"
"0.0632249298343237","0.09766514855177359","-0.021643072382900003","0.0005344041965327103","-0.004203272005581392","0.004834051075077116","-2.1014388097992516","-1.175523168554929","0.06298279692802955"
"0.0632961784649751","0.0977440910748167","-0.0221056888682659","0.0026006573868290563","-0.005897008331451844","0.0033235587202881684","-2.099070384643305","-1.1738608928112362","0.06435564646220707"
"0.06329714128430822","0.0975882834635474","-0.021950794955754995","0.0012504973485886334","-0.0023125673320789817","0.001420639286820923","-2.099850571753499","-1.1755495538841938","0.06346492860967524"
"0.06329714128430822","0.0977430523574082","-0.021331219305711392","0.001072773772533883","-0.004628800221972188","0.0018336948761285689","-2.10224686073481","-1.1756814805305187","0.06252354607195353"
"0.06300925830370332","0.09758620602873048","-0.021651333391567256","0.0012626279935414495","-0.0054700441368280076","-0.0003143398012873975","-2.099739116452043","-1.1767896643596474","0.0643458403941058"
"0.06300925830370332","0.09766410983436509","-0.021498504731223163","0.001750838315412327","-0.004205665302636459","0.0026930543601111625","-2.099432614373038","-1.1757342511890487","0.06369537121005503"
"0.06301022112303645","0.0974303984174612","-0.021496439479056353","0.0003170153369814499","-0.006309373414039774","0.00010720988063233303","-2.1016895842275285","-1.1761036457987581","0.06472500836068816"
"0.0630082954843702","0.09782095616304284","-0.021808292556244967","0.0002204515521586358","-0.0029374571931568036","0.001631535471960961","-2.1049775156204893","-1.1744809480489629","0.06331783758815622"
"0.0632961784649751","0.0977440910748167","-0.021950794955754995","0.0011806980026299694","-0.005473634082410608","-0.0007424420689364499","-2.1041694646849307","-1.1753516639147066","0.0633423527584094"
"0.06329521564564197","0.09789989868608594","-0.021950794955754995","0.0005604947106772593","-0.008841003038888953","0.0013757419401570483","-2.1024419075123584","-1.174243480085578","0.06622860546954923"
"0.06315175556500607","0.09789782125126902","-0.021337415062211828","0.0005758024293081939","-0.006733226322492024","-0.00032186314045810075","-2.104531694414664","-1.1762091871158178","0.06333581537967521"
"0.06300925830370332","0.09774201363999974","-0.021343610818712264","-0.0005269309618787575","-0.0037794190971291437","-0.001158409918568239","-2.102302588385538","-1.1758397925061086","0.06186817385385212"
"0.06272233814243156","0.09773889748777435","-0.02057946751699182","0.0014502678904703276","-0.002939611160506364","-0.0022221130019615485","-2.102302588385538","-1.1749690766403647","0.06208390735208"
"0.06301022112303645","0.09758516731132202","-0.02103175774152365","0.0021647243682072197","-0.002520544846164247","0.004418083225445327","-2.0998784355788636","-1.1760508751402283","0.06280955639157382"
"0.06358309862624686","0.09782407231526825","-0.022093297355265024","0.0029663096846925135","-0.006535300656038037","0.0005353121482813857","-2.103862962605926","-1.1756550952012539","0.062041414390307845"
"0.06358309862624686","0.09774616850963361","-0.022248191267775927","0.0009409733523719363","-0.005477463357698714","-0.0026701157151589132","-2.1002685291339604","-1.1741775167624158","0.06366758735043479"
"0.06315464402300547","0.09758516731132202","-0.020870668072512314","0.001097708987159116","-0.01073840894414555","-0.0016362633000880718","-2.103445005225465","-1.1758397925061086","0.06227185699068764"
"0.06293800967305194","0.09758516731132202","-0.021345676070879074","0.0012241180095642556","-0.007151574647717621","0.003956732652428973","-2.0999341632295914","-1.1765390037316301","0.061936816330560994"
"0.06308146975368784","0.09766307111695663","-0.02102969248935684","0.0011444023427314637","-0.00841738946014221","0.0030917913361584383","-2.1006586226890573","-1.1758661778353736","0.06278667556600422"
"0.06329521564564197","0.09789989868608594","-0.0221056888682659","0.0019450249096173281","-0.005897008331451844","-0.00010223017434563319","-2.1014945374499794","-1.1738081221527064","0.06319526173689038"
"0.06307954411502158","0.09782095616304284","-0.021959055964422245","-0.0007995816484372911","-0.003778461778307117","0.0007687783509335333","-2.100602895038329","-1.1757342511890487","0.06388168650397912"
"0.06301022112303645","0.09758516731132202","-0.02087686382901275","-0.00014038699770767225","-0.004620184352573949","0.003546346635085124","-2.100602895038329","-1.1753912419086041","0.06409905434689057"
"0.06301022112303645","0.09758516731132202","-0.02103175774152365","0.0017464096672549496","-0.004626646254622628","0.003118244367436072","-2.1055069283024066","-1.1768028570242797","0.06571215254954912"
"0.06329714128430822","0.09766514855177359","-0.021641007130733192","0.0011510453149675298","-0.0054712407853555415","0.0026838322024180425","-2.100575031212965","-1.1747184160123476","0.06453379003271344"
"0.0632961784649751","0.0978219948804513","-0.021950794955754995","0.0012513638232281201","-0.005472676763588581","0.0009711804434614868","-2.1010208524187908","-1.1745337187074927","0.058623999657015986"
"0.06315368120367233","0.09758724474613895","-0.021645137635066817","0.0008993825696765668","-0.0037837270318282624","0.0022671362877052176","-2.1018846310050767","-1.1756814805305187","0.06231598429714334"
"0.06308146975368784","0.09758724474613895","-0.021649268139400445","0.0019292358161866782","-0.007578538842341456","0.001598044478233314","-2.102664818115271","-1.1751669666098519","0.06272947350208015"
"0.0633683899149596","0.0977440910748167","-0.021636876626399567","-0.00029221260953775976","-0.004204229324403419","0.0014077768037226237","-2.1017453118782563","-1.175905755829271","0.06428700398549819"
"0.06307954411502158","0.0978219948804513","-0.02211394987693314","0.0005734918302695622","-0.011788827021614167","-0.00035850908287023603","-2.10224686073481","-1.1755099758902965","0.06274254825954852"
"0.06315271838433921","0.09758724474613895","-0.02195699071225543","0.001271389014896261","-0.009264616617635694","-0.001626313077313916","-2.0990982484686693","-1.175193351939117","0.06304817071537133"
"0.06329714128430822","0.09758724474613895","-0.02148404796605548","0.0008317012728366481","-0.0042078192699860194","0.00012249924733408483","-2.1014666736246155","-1.1762091871158178","0.06254806124220669"
"0.0630082954843702","0.09774201363999974","-0.021653398643734067","0.0002079358073660478","-0.007571598280881764","0.002669270900797326","-2.1046988773668485","-1.1739268561343985","0.0620136305306876"
"0.0630805069343547","0.09774201363999974","-0.021494374226889542","0.0009080473160714353","-0.006311527381389334","0.0009651132344528551","-2.10238617986163","-1.1756287098719889","0.06077316291587719"
"0.06315271838433921","0.09766514855177359","-0.02164720288723363","0.0005920728975385583","-0.003363942728369626","-0.0017983791247987108","-2.102581226639179","-1.1760508751402283","0.06338974875423219"
"0.06315271838433921","0.0977430523574082","-0.02164720288723363","0.0015977611291029805","-0.004629518211088709","0.0005489026964607206","-2.1053954730009505","-1.1744677553843303","0.06308739498777642"
"0.06301022112303645","0.09758620602873048","-0.02134154556654545","0.0012228664350849964","-0.006309852073450788","0.004176850995262131","-2.100770077990514","-1.1753120859208093","0.061472662440434304"
"0.0630805069343547","0.09782095616304284","-0.021649268139400445","0.00022853864879384658","-0.004203032675875886","0.0005520576451452092","-2.1057855665560474","-1.1744677553843303","0.06307595457499161"
"0.06315368120367233","0.09750934094050431","-0.021645137635066817","0.0017600807115668534","-0.00757901750175247","0.001383507967688097","-2.103835098780562","-1.1760112971463306","0.06226205092258636"
"0.06300925830370332","0.09758620602873048","-0.021496439479056353","0.00037709091198587257","-0.0054650182130123685","0.0031119344700670953","-2.101132307720247","-1.1758397925061086","0.061900860747523"
"0.0630082954843702","0.09774201363999974","-0.021653398643734067","0.0014307240736019015","-0.003995533821201634","0.00012516881929788273","-2.1065100260155134","-1.1761959944511857","0.0630612454728397"
"0.0630805069343547","0.09782095616304284","-0.021649268139400445","0.00014246883460481793","-0.004834623768707894","0.0005474465662986491","-2.101243763021703","-1.176974361664502","0.06517772183803003"
"0.06300925830370332","0.09758620602873048","-0.021651333391567256","0.0012645534927403093","-0.007998323145800092","-0.0007606436959623451","-2.103082775495732","-1.1754835905610315","0.06206266087119392"
"0.06300925830370332","0.09758620602873048","-0.021651333391567256","-0.0002747868417880794","-0.008836216444778819","-0.0009810047271558485","-2.1013830821485233","-1.1769215910059723","0.06342570433727016"
"0.06329714128430822","0.09758724474613895","-0.021638941878566385","1.7118836759051314e-05","-0.004623534968451042","0.00525899839404168","-2.099014656992577","-1.176261957774348","0.06392744815511837"
"0.06315464402300547","0.09750726350568739","-0.020870668072512314","0.0027936886815147412","-0.007161147835937885","0.0005304583810744803","-2.1039186902566542","-1.1745996820306552","0.0616001413257508"
"0.06300925830370332","0.09766410983436509","-0.021343610818712264","5.736177001521908e-05","-0.0014627075478249227","0.0007850384710766662","-2.1050611070965815","-1.1764862330731","0.06135498962321911"
"0.06308146975368784","0.09758724474613895","-0.021804162051911342","0.0017371672711004229","-0.003573595550393438","0.004410074509553934","-2.10389082643129","-1.1737685441588088","0.06225387919916865"
"0.06329714128430822","0.09758724474613895","-0.021638941878566385","0.0005917840726587293","-0.00673633760866361","-0.002036941783018109","-2.103472869050829","-1.1756550952012539","0.06183385261549767"
"0.06315368120367233","0.09743143713486967","-0.02195492546008862","0.0007455351836876765","-0.006523334170762705","0.00010526837374957084","-2.09862456343748","-1.1752461225976467","0.06437198990904251"
"0.0630082954843702","0.0977440910748167","-0.022272974293777673","0.0012607024943425897","-0.008841003038888953","-0.00033788057224088845","-2.1010487162441547","-1.1753516639147066","0.06299260299613083"
"0.0628648354037343","0.09774201363999974","-0.021659594400234503","0.001516601337871044","-0.008839806390361419","-0.00033739519552019806","-2.098318061358475","-1.1755495538841938","0.062852049353346"
"0.06315368120367233","0.09758620602873048","-0.021025561985023217","0.0012519414729877782","-0.008841481698299965","0.0005185666514175621","-2.102943456368912","-1.1743490214026382","0.0644667819006881"
"0.06315271838433921","0.0977430523574082","-0.02164720288723363","0.001084230492767098","-0.0020998032238835835","0.0007806700805904514","-2.1039186902566542","-1.1764730404084676","0.060732304298788585"
"0.06300925830370332","0.09758724474613895","-0.021963186468755867","-0.0008188366404258881","-0.0031442380587145364","0.0031277092134895375","-2.103472869050829","-1.1761696091219207","0.06161648477258624"
"0.06315368120367233","0.09766410983436509","-0.021337415062211828","0.0002214143017580657","-0.0037818123941842094","0.0014109317524071123","-2.105451200651679","-1.1758002145122113","0.06156091705334573"
"0.06315271838433921","0.09782095616304284","-0.02164720288723363","0.00019041376465642453","-0.0033584381451429736","0.00505489748299131","-2.1014666736246155","-1.1751801592744844","0.06298116258334603"
"0.0630805069343547","0.0977430523574082","-0.021649268139400445","5.158527241863996e-05","-0.007362184788563458","0.0009575898952821518","-2.1006586226890573","-1.1763806917560404","0.06257094206777632"
"0.06315175556500607","0.09789885996867748","-0.02164720288723363","0.0019170088962739192","-0.005471719444766554","0.003113390600229167","-2.1021354054333536","-1.176235572445083","0.06383919354220696"
"0.06300925830370332","0.09758724474613895","-0.021963186468755867","0.00038883645709891676","-0.00799425454080648","0.0015946468411884801","-2.1014109459738872","-1.177079902981562","0.06277033211916876"
"0.06315175556500607","0.0978219948804513","-0.02226677853727723","6.621906632997371e-05","-0.005889589110581138","-0.0005310605070757214","-2.0973985551214605","-1.1761300311280232","0.06462694767967547"
"0.0633683899149596","0.0977440910748167","-0.021636876626399567","0.0009157493128668742","-0.0061049858455371085","0.00010987945259613091","-2.1021354054333536","-1.1753912419086041","0.06427392922802982"
"0.06315271838433921","0.0977430523574082","-0.02164720288723363","0.0007493861820853959","-0.009683682931977812","-0.0007720500488985727","-2.0982066060570186","-1.1749163059818348","0.06503880253992873"
"0.0630082954843702","0.09774201363999974","-0.021653398643734067","0.0007936726636591691","-0.005676346342974727","0.004395998584653908","-2.1014666736246155","-1.1734783055368943","0.06385063395499178"
"0.06315368120367233","0.09758620602873048","-0.021335349810045017","0.000845853691948267","-0.004628321562561175","-0.0015933074603069594","-2.1006307588636934","-1.1769083983413398","0.06279157860005484"
"0.06329714128430822","0.09766514855177359","-0.021641007130733192","0.00083304912227585","-0.00483988902222904","-9.567758861631092e-05","-2.103027047845004","-1.175852985170741","0.06272130177866242"
"0.06315271838433921","0.0977430523574082","-0.02149230897472273","0.0005505783898031317","-0.004203511335286899","0.0029073481822960343","-2.104531694414664","-1.175193351939117","0.06376891672081454"
"0.0630082954843702","0.09781991744563438","-0.021653398643734067","0.0014433360933544324","-0.006735380289841583","-0.0016071406968466396","-2.1039186902566542","-1.17664454504869","0.060732304298788585"
"0.06301022112303645","0.09766307111695663","-0.02103175774152365","0.00041155734764546125","-0.005045951898670252","-0.0009533382540764877","-2.0998784355788636","-1.1757078658597837","0.06280955639157382"
"0.06315175556500607","0.09782095616304284","-0.02195699071225543","0.0011023301852363793","-0.005471958774472061","-0.00159840391587421","-2.102692681940635","-1.1737949294880736","0.06294357265562449"
"0.06315271838433921","0.0977430523574082","-0.02164720288723363","0.001582453410472046","-0.0054712407853555415","0.0022559726231293348","-2.1017453118782563","-1.1769347836706046","0.06363490045676388"
"0.06329714128430822","0.09758724474613895","-0.021638941878566385","-0.0006298488940578085","-0.00336011345308152","0.0009847709916408216","-2.1007979418158778","-1.1754835905610315","0.06125366025283933"
"0.0630805069343547","0.0977430523574082","-0.021649268139400445","0.0004008708270917899","-0.007995929848745026","9.65315927771411e-05","-2.1014109459738872","-1.174190709427048","0.06429027267486528"
"0.06300925830370332","0.09758620602873048","-0.021651333391567256","0.0014221556021669758","-0.00631248470021136","0.0009646278577321645","-2.099070384643305","-1.1765785817255277","0.063053073749422"
"0.06315368120367233","0.09758724474613895","-0.021490243722555917","0.000574647129788878","-0.004626646254622628","0.00011958698700994166","-2.1021911330840815","-1.175035039963527","0.06383429050815632"
"0.06315271838433921","0.0977430523574082","-0.02195699071225543","0.001077780070450918","-0.009262462650286135","0.0009439993471028167","-2.1017453118782563","-1.1757342511890487","0.06406800179790319"
"0.06315271838433921","0.09758724474613895","-0.02195699071225543","0.00038999175661823254","-0.00378253038330073","0.0018385486433354743","-2.097983695454106","-1.1748503426586723","0.06264121888916874"
"0.06315271838433921","0.0977430523574082","-0.02164720288723363","0.001910943573797511","-0.004207101280869498","0.003978089228139356","-2.1017453118782563","-1.1748767279879373","0.06450110313904255"
"0.06300925830370332","0.09758620602873048","-0.021651333391567256","0.00024461656710432516","-0.0031499819716466946","-0.0011547695931630603","-2.0999341632295914","-1.1755099758902965","0.062150915484105354"
"0.06300925830370332","0.09774097492259128","-0.02103175774152365","0.000561650010196575","-0.005887674472937084","0.0013968558275070865","-2.1026090904645427","-1.176895205676707","0.06251700869321933"
"0.06315271838433921","0.0977430523574082","-0.02164720288723363","0.0003975012034937855","-0.007575188226464364","0.0005277888091106823","-2.0999620270549557","-1.174322636073373","0.06258401682524466"
"0.0630082954843702","0.0977430523574082","-0.021963186468755867","0.002278617645819771","-0.005472676763588581","0.0009711804434614868","-2.1018010395289846","-1.1760640678048608","0.06341262957980179"
"0.06315368120367233","0.09758620602873048","-0.021335349810045017","0.0026306951743312675","-0.006739927554246209","-0.00032307658225982705","-2.103054911670368","-1.1766973157072198","0.06184856171764958"
"0.06308146975368784","0.09774201363999974","-0.02133948031437864","0.0005742620299491061","-0.004204229324403419","0.00012347000077546583","-2.1034171414001013","-1.1750086546342622","0.0576842514639778"
"0.06315175556500607","0.09782095616304284","-0.02195699071225543","0.0002339300465506538","-0.007575188226464364","-0.0003286584145477683","-2.1018289033543485","-1.1762091871158178","0.06275562301701687"
"0.0630082954843702","0.09781991744563438","-0.021653398643734067","0.0012748549134542087","-0.00294272244667795","-0.0015802022888483148","-2.1028041372420914","-1.1751010032866893","0.06622043374613151"
"0.06315271838433921","0.0975882834635474","-0.022111884624766334","0.0002213180267981227","-0.0031502213013522014","0.0016286232116368175","-2.0999341632295914","-1.1746656453538176","0.06280465335752321"
"0.0630805069343547","0.0977430523574082","-0.021649268139400445","0.0015960281798240068","-0.00715660057153326","0.0005309437577951709","-2.1025533628138144","-1.176393884420673","0.0633913830989157"
"0.06329714128430822","0.09758724474613895","-0.021638941878566385","0.0019346272139434853","-0.00252533144027438","0.0014194258450191965","-2.1061477962857804","-1.1756550952012539","0.06263304716575101"
"0.06315368120367233","0.09758724474613895","-0.02180209679974453","0.0002189111527995481","-0.0058886317917591115","0.0016094508311695413","-2.105618383603863","-1.1755627465488263","0.06483287510980211"
"0.0630082954843702","0.09774201363999974","-0.021653398643734067","0.00043832178650961116","-0.007154925263594713","-0.004180365381587516","-2.1024697713377223","-1.175932141158536","0.06492112972271351"
"0.0632961784649751","0.0977430523574082","-0.021641007130733192","0.0012692709657775155","-0.0006284041944287965","-0.0007079803217674219","-2.1014388097992516","-1.175523168554929","0.06298279692802955"
"0.0630805069343547","0.09782095616304284","-0.021649268139400445","0.0005835044261036326","-0.0071544466041837","-0.00118195068952173","-2.09951620584913","-1.1743358287380055","0.06303346161321946"
"0.0632961784649751","0.0977430523574082","-0.021641007130733192","0.0005609760854769742","-0.007998083816094586","0.0013813237724449895","-2.1014666736246155","-1.1751801592744844","0.06298116258334603"
"0.06315368120367233","0.09758724474613895","-0.021645137635066817","0.0002238211757566403","-0.006520940873707639","0.0009626863508494023","-2.1004357120861448","-1.1780165821704682","0.06498486916537174"
"0.06300925830370332","0.09774201363999974","-0.021498504731223163","0.0010666121750975317","-0.005888871121464618","0.0024673541849900634","-2.1014945374499794","-1.1749954619696297","0.06276216039575103"
"0.06329714128430822","0.09758724474613895","-0.021638941878566385","0.001097901537079002","-0.001470605428106642","-0.0007147755958570894","-2.1026369542899066","-1.174322636073373","0.06316420918790303"
"0.06315368120367233","0.09758724474613895","-0.021645137635066817","0.0009061218168725757","-0.004626885584328135","0.0014046218550381353","-2.1014666736246155","-1.1756946731951512","0.06276542908511815"
"0.06329714128430822","0.0977430523574082","-0.021331219305711392","0.0007350412130538911","-0.005891982407636204","0.00118231931696187","-2.1039465540820186","-1.177488875585169","0.06532154417018196"
