"AccX","AccY","AccZ","GyroX","GyroY","GyroZ","MagX","MagY","MagZ"
"0.06662271926092803","-0.09284912748644158","-0.017229628502422732","0.0009248954340614578","-0.008968565771923988","0.0006520452496074596","-2.032810207927531","0.8598675162737688","0.41207718698848317"
"0.06705502514150194","-0.09269539730998926","-0.01783061688296503","0.001195331796541303","-0.007493816126592108","-0.0006618695333018207","-2.032308659070978","0.8610944340845895","0.41336831928848355"
"0.06691156506086605","-0.09269539730998926","-0.017372130901932764","0.0013679527997190752","-0.00598125238779018","-0.0002119253132216943","-2.0345656289254683","0.8594981216640593","0.41313951103278723"
"0.06676617934156392","-0.09292703129207622","-0.017533220570944103","0.0010163566460072936","-0.005536577794958852","0.0006731591369574976","-2.0340083524181867","0.8598411309445037","0.41446333022645837"
"0.06691156506086605","-0.0928512049212585","-0.016909514416566875","0.00014940063172071285","-0.00727961604016367","-0.00021289606666307552","-2.0349835863059296","0.8607250394748801","0.4128943593302556"
"0.06705502514150194","-0.09292807000948468","-0.01783061688296503","0.001710210282316387","-0.008110568777682703","0.0004285292697294676","-2.0298009147882112","0.8607382321395125","0.4154112501429143"
"0.06705502514150194","-0.09300597381511932","-0.01736800039759914","0.0012823643603297613","-0.009003747238633465","-0.0011113283766612573","-2.0346213565761966","0.8600258282493586","0.4126982379682302"
"0.06669493071091254","-0.09292807000948468","-0.01676494676489003","0.0010102913235308856","-0.005947985558724757","0.001549264117803915","-2.0359030925429438","0.8603556448651707","0.4146431081416484"
"0.06676714216089705","-0.09300493509771086","-0.01707060408557821","0.0011969684708603337","-0.007286556601623362","-0.00109579632159916","-2.0364603690502254","0.8608965441151023","0.4133029455011417"
"0.06705502514150194","-0.09269539730998926","-0.017520829057943225","-0.0005432014301091219","-0.005785002029274739","-0.00020051896028546668","-2.034844267179109","0.8596696263042816","0.41379324890620506"
"0.06705502514150194","-0.09285016620385005","-0.01767778822262094","-0.00040119586419321896","-0.004153970086247026","0.006175632331065758","-2.0347606757030166","0.8612395533955469","0.4148555729505091"
"0.06669493071091254","-0.09292703129207622","-0.01722756325025592","0.000232389647191566","-0.006830394182927717","0.0006700041882730094","-2.0357916372414877","0.8599994429200937","0.41531318946190154"
"0.06698377651085057","-0.09269539730998926","-0.017370065649765953","-0.00019998119791238","-0.0072741114569370175","0.0002270979306428953","-2.0364603690502254","0.8593134243592044","0.4128943593302556"
"0.06676329088356454","-0.09301324483697858","-0.016731902730221036","0.0009182524618253918","-0.005945352931964184","0.0011158227062272666","-2.0302188721686725","0.8606063054931877","0.41595058388848394"
"0.06705117386416945","-0.09301324483697858","-0.01749191552760786","0.0008412324938710037","-0.0074890295324819755","-0.0008730084068022041","-2.0335068035616333","0.8586669837922127","0.41328660205430634"
"0.06705117386416945","-0.09301324483697858","-0.01749191552760786","0.0016028637019799585","-0.005896529672040831","0.003303658274739857","-2.0342869906718275","0.860421608188333","0.41345003652266077"
"0.06705117386416945","-0.0928574372257093","-0.01749191552760786","0.0017083810580774705","-0.0059661746163432615","-0.00020974111797858683","-2.0332560291333563","0.8600785989078884","0.41260017728721743"
"0.06676329088356454","-0.09285639850830084","-0.01719245396342012","0.0010233847180831316","-0.006872755540802392","-0.002403401207139463","-2.0325872973246186","0.8615034066881966","0.41235502558468573"
"0.06669107943358003","-0.09285639850830084","-0.017196584467753743","0.0008361299209940255","-0.007254486421085473","1.0619913214916213e-05","-2.0318071102144244","0.8591946903775122","0.41506803775936985"
"0.06705117386416945","-0.09293534103134393","-0.01733702161509696","0.0009985457784178412","-0.00634886281544837","0.002426339852091713","-2.0364603690502254","0.8598807089384012","0.4140710875024076"
"0.06690675096420043","-0.09301220611957012","-0.017343217371597393","0.0001393880358866424","-0.004022578077923883","0.0011320828263703994","-2.0347049480522887","0.8598939016030337","0.4130087634581037"
"0.06669107943358003","-0.09270059089703155","-0.017504307040608732","-4.2956738245371424e-05","-0.007222416240547585","0.0019916849987133382","-2.0321972037695217","0.8593661950177344","0.41483922950367375"
"0.06676329088356454","-0.09285639850830084","-0.01750224178844192","0.000651763372703209","-0.005706262556163056","0.0024358046981451786","-2.035958820193672","0.8600522135786235","0.41496997707835725"
"0.06690771378353355","-0.0928574372257093","-0.017188323459086493","0.0012703299903368882","-0.0046646996777981835","0.0006814105412092368","-2.035624454289303","0.8611208194138547","0.4149536336315217"
"0.06690771378353355","-0.09270162961444","-0.017496046031941485","0.0010114466230502013","-0.006396250097138683","1.2561420097678404e-05","-2.035345816035662","0.8586537911275802","0.4136951882251924"
"0.06690771378353355","-0.0928574372257093","-0.017188323459086493","0.001162502035200745","-0.006525727467817772","0.004181704762469036","-2.0327823441021673","0.8593793876823669","0.41328660205430634"
"0.06676232806423141","-0.09301220611957012","-0.017347347875931018","-0.0002048912208694723","-0.008993695391002185","-0.0006538608174104274","-2.0387730665554438","0.8591683050482471","0.41338466273531893"
"0.06690675096420043","-0.0928574372257093","-0.017496046031941485","0.0011677008830376662","-0.006328519790480305","0.0033048717165415826","-2.0323922505470704","0.8586669837922127","0.4133029455011417"
"0.06705213668350257","-0.09270266833184847","-0.01748985027544105","0.0013635241515616977","-0.006626245944130559","-0.0008708242115590966","-2.037045509382871","0.8600522135786235","0.41539490669607876"
"0.06676329088356454","-0.09270162961444","-0.017500176536275107","0.0008317012728366481","-0.006374710423643086","0.0011131531342634684","-2.037296283811148","0.8597092042981789","0.4131885413732935"
"0.06719559676413844","-0.09293637974875239","-0.017177997198252432","0.0008373814954732843","-0.005537774443486386","0.00023607739997567013","-2.036683279653138","0.8611208194138547","0.41250211660620484"
"0.06705117386416945","-0.0928574372257093","-0.01779963810046285","0.0008385367949926001","-0.005107220303279951","0.0002404457904618849","-2.0329216632289877","0.8609625074382647","0.41258383384038205"
"0.06726780821412295","-0.09270266833184847","-0.017946271004306506","0.0013488903576503641","-0.007646987138116354","0.0017540930939353213","-2.033088846181172","0.8600785989078884","0.41392399648088857"
"0.06705502514150194","-0.09292807000948468","-0.01752289431011004","0.001189073924145009","-0.008549020798170858","0.0002093816803376909","-2.031277697532507","0.8586142131336829","0.41498632052519263"
"0.06691060224153293","-0.09292807000948468","-0.017529090066610478","0.001182912326708658","-0.006800956629150401","0.0017594322378629169","-2.036321049923405","0.859300231694572","0.4139893702682304"
"0.06691156506086605","-0.09269539730998926","-0.017372130901932764","0.00118878509926518","-0.006608774875628574","0.0006629662258229966","-2.03150060813542","0.8612659387248119","0.413825935799876"
"0.06676714216089705","-0.09285016620385005","-0.017223432745922296","-0.0005575463991406266","-0.008532028389079889","0.0017601603029439529","-2.036934054081415","0.8612527460601795","0.41261652073405297"
"0.06691156506086605","-0.0926943585925808","-0.017527024814443667","0.0011839713512680307","-0.006805503893555028","0.001539556583390104","-2.0371012370335992","0.8603556448651707","0.4139566833745595"
"0.06691060224153293","-0.09292807000948468","-0.017374196154099575","0.00014786023236162507","-0.005116554161794709","0.0006797117226868199","-2.03300525470508","0.8614374433650342","0.4140057137150658"
"0.06691060224153293","-0.09300493509771086","-0.017529090066610478","0.0005667525830735532","-0.006561148264232754","0.00330147407949675","-2.0342312630210992","0.8579150019081613","0.41230599524417944"
"0.06705502514150194","-0.09269539730998926","-0.017520829057943225","0.0001310121143716027","-0.007638849928129129","0.003294921493767427","-2.033423212085541","0.8596696263042816","0.4131558544796226"
"0.06698281369151743","-0.09292910872689314","-0.01706234307691096","0.0016226963437282137","-0.006819863675885425","0.0006583551469764363","-2.032810207927531","0.8617936453101112","0.41268189452139464"
"0.06676714216089705","-0.0926943585925808","-0.0173783266584332","0.000225554125035614","-0.006804546574733001","0.0019863458547857427","-2.03225293142025","0.8610812414199571","0.4138095923530406"
"0.06691060224153293","-0.09285016620385005","-0.017374196154099575","0.0013587104035645487","-0.009824648128521218","0.0006401535199505412","-2.033673986513818","0.8609229294443674","0.4115868835834198"
"0.06705502514150194","-0.09292807000948468","-0.01752289431011004","0.001541151452656505","-0.01071710860035546","-0.0011246762364802469","-2.0339247609420945","0.8609097367797349","0.4124694297125339"
"0.06662271926092803","-0.0930038963803024","-0.017229628502422732","0.0009212369855836243","-0.008092858379475213","0.0015361589463452705","-2.0335625312123615","0.8591551123836146","0.41207718698848317"
"0.06705598796083508","-0.09269539730998926","-0.01736800039759914","0.001189073924145009","-0.006395292778316656","0.0006627235374626513","-2.031918565515881","0.8600522135786235","0.41032843817709036"
"0.06719944804147096","-0.09292910872689314","-0.017208975980754614","-0.000730552502158171","-0.008107696821216624","0.0017591895495025717","-2.0301910083433086","0.8611076267492221","0.41230599524417944"
"0.06676617934156392","-0.09292703129207622","-0.0173783266584332","0.00014073588532584422","-0.005089270575366953","0.0019987229611633513","-2.0317792463890605","0.8616353333345214","0.41183203528595147"
"0.06705502514150194","-0.09300597381511932","-0.01721517173725505","0.0009983532284979556","-0.010642916391648402","0.0028304159720665845","-2.0331167100065364","0.859682818968914","0.4127309248619011"
"0.06705502514150194","-0.09269539730998926","-0.017520829057943225","0.00066533814205517","-0.006605663589456987","0.0011034455998496576","-2.0367947349545945","0.8586010204690504","0.41312316758595186"
"0.06647829636095902","-0.09269228115776383","-0.01754148157961135","0.0011898441238245526","-0.008549260127876365","-3.941388405799899e-06","-2.030469646596949","0.8598675162737688","0.4127799552024074"
"0.06698281369151743","-0.09285016620385005","-0.017524959562276853","0.00015122985595962958","-0.006421619045922386","-0.00020804229945617015","-2.0348164033537453","0.8601841402249483","0.41421817852392673"
"0.06691060224153293","-0.09285016620385005","-0.017527024814443667","0.0008618353352988025","-0.005180694522870488","-0.0028373279954368035","-2.0343705821479197","0.8605667274992903","0.41179934839228055"
"0.06705502514150194","-0.09292910872689314","-0.01690538391223325","0.0008416175937107757","-0.009848341769366376","-0.0002361941492562212","-2.0311105145803228","0.8595113143286917","0.4136461578846861"
"0.06676714216089705","-0.09269539730998926","-0.016605922348045504","-0.0003768382993276436","-0.008990823434536105","0.00021933190311184674","-2.0344820374493757","0.8608965441151023","0.4139893702682304"
"0.06719944804147096","-0.09300597381511932","-0.017826486378631407","-0.00020412102118992848","-0.007472276453096511","0.0011017467813272408","-2.0330609823558077","0.8605535348346579","0.41336831928848355"
"0.06734290812210685","-0.09300597381511932","-0.018437801020007763","0.001528828257783803","-0.0063579573442576216","0.002413720057353759","-2.037407739112604","0.8596432409750164","0.4144142998859521"
"0.06669493071091254","-0.09284912748644158","-0.01722756325025592","0.0022247036682516994","-0.0042027933461703795","0.0024314363076589638","-2.0341198077196427","0.8594981216640593","0.41359712754417965"
"0.06655147063027665","-0.09269539730998926","-0.016151566871346865","0.0008406548441113458","-0.00855380739228099","-2.2425698833830093e-06","-2.0338411694660024","0.8607250394748801","0.41312316758595186"
"0.06655147063027665","-0.0925385509813115","-0.016921905929567743","0.00013861783620709852","-0.007237494011994502","0.001766712888673275","-2.0340083524181867","0.8591551123836146","0.41140710566823"
"0.06669396789157941","-0.09284808876903312","-0.017997902308476803","-2.562724545563406e-05","-0.007270042851943405","0.0002295248142463481","-2.0329495270543516","0.8584427084934606","0.4136461578846861"
"0.06712723659148645","-0.09300597381511932","-0.01782855163079822","-0.0007400837231925264","-0.009792099288572317","0.0032852139593536164","-2.032364386721706","0.8577303046033066","0.41521512878088895"
"0.06705502514150194","-0.09300597381511932","-0.01752289431011004","0.0013602508029236363","-0.006813641103542253","0.001098106455922062","-2.0332838929587207","0.8605535348346579","0.41446333022645837"
"0.06691156506086605","-0.09269539730998926","-0.01721723698942186","0.0008451797672286661","-0.005119186788555282","0.00023607739997567013","-2.0365439605263176","0.8589572224141274","0.4122406214568376"
"0.06661886798359554","-0.09285639850830084","-0.016888861894898757","-0.001086192204187558","-0.0050780220792081415","0.0024527928833693474","-2.0324758420231626","0.8611472047431196","0.4130251069049391"
"0.06676329088356454","-0.09293430231393547","-0.01750224178844192","0.0005722402557903033","-0.006381411655397272","0.0008954616750337631","-2.0347049480522887","0.8614770213589317","0.41341734962898985"
"0.06719559676413844","-0.09285847594311776","-0.017485719771107425","-0.0002075869197478759","-0.005752692519031342","0.0006799544110471652","-2.0345656289254683","0.8602369108834782","0.41433258265177486"
"0.06690771378353355","-0.0928574372257093","-0.017343217371597393","0.0022235483687323837","-0.005076107441564088","0.0011116970041013968","-2.0354851351624825","0.8607514248041451","0.4160649880163321"
"0.06676329088356454","-0.09285639850830084","-0.017347347875931018","0.000658021245099503","-0.008101234919167945","0.0006636942909040322","-2.032308659070978","0.8586669837922127","0.41397302682139503"
"0.06676329088356454","-0.09270162961444","-0.017500176536275107","0.0008244806508409243","-0.00850211217589156","0.001976638320371932","-2.0339247609420945","0.860421608188333","0.41345003652266077"
"0.06676329088356454","-0.09270162961444","-0.01719245396342012","0.0007481346076061371","-0.007251375134913887","0.0002297675026066932","-2.0367947349545945","0.8597223969628114","0.4114397925619007"
"0.06705117386416945","-0.09293534103134393","-0.01733702161509696","0.0022101661493003086","-0.00459529406320126","0.0037477779741716967","-2.033339620609449","0.859735589627444","0.41194643941379966"
"0.06661886798359554","-0.09270162961444","-0.016888861894898757","0.00012359894245599285","-0.006765535832735419","0.00331166699063125","-2.034203399195735","0.8620311132734959","0.41165225737076167"
"0.06690771378353355","-0.09270266833184847","-0.017186258206919682","-0.0007017662891352184","-0.006075787621465299","-0.0045841988132020416","-2.040277713125104","0.8602237182188458","0.4135644406505089"
"0.06719559676413844","-0.09301220611957012","-0.018103230168984213","0.0009982569535380125","-0.005482489281514353","0.0028694887980821723","-2.0351229054327495","0.8616353333345214","0.41604864456949675"
"0.06705117386416945","-0.09301220611957012","-0.01764680944011876","0.0016183639705307793","-0.0068160344005973195","0.00022418567031875212","-2.035540862813211","0.860421608188333","0.41253480349987576"
"0.06647540790295964","-0.09270162961444","-0.016585269826377386","0.0013399367863756665","-0.006539129931326144","0.0033072986001450363","-2.035178633083478","0.8584954791519905","0.4119300959669643"
"0.06726780821412295","-0.09301428355438704","-0.017483654518940614","0.0001343817379696072","-0.004651057884584306","0.0020016352214874945","-2.039581117491002","0.8596960116335465","0.41313951103278723"
"0.06719559676413844","-0.09301324483697858","-0.017640613683618325","0.001510824840274465","-0.004584763556158968","0.004628494033864675","-2.033590395037726","0.8591946903775122","0.41282898554291375"
"0.06676329088356454","-0.09270162961444","-0.017037560050909218","0.0011803129027901972","-0.005084962640667833","0.0011197057199927906","-2.035847364892216","0.862004727944231","0.41338466273531893"
"0.06676329088356454","-0.09309114864261323","-0.01657700881771014","-1.850289841985322e-05","-0.005595692232218991","-0.0023878691520773663","-2.03450990127474","0.8606063054931877","0.4116849442644324"
"0.06705117386416945","-0.09293534103134393","-0.01749191552760786","-0.00021480754174359981","-0.0068021532776779345","0.0017720520326008709","-2.0339247609420945","0.8616617186637864","0.4136461578846861"
"0.06690771378353355","-0.09270266833184847","-0.017186258206919682","0.0006617759685372795","-0.0029455944031440296","0.0011357231517755784","-2.029717323312119","0.8593925803469994","0.4137769054593697"
"0.06676329088356454","-0.09301220611957012","-0.017194519215586932","0.0002961236706738221","-0.007189149411482162","0.0035257181244557766","-2.037296283811148","0.8605799201639228","0.4136134709910152"
"0.06676617934156392","-0.09292703129207622","-0.017533220570944103","0.0013472536833313334","-0.006763142535680353","0.003516253278402311","-2.0336461226884537","0.8594849289994266","0.41447967367329375"
"0.06691156506086605","-0.0928512049212585","-0.016909514416566875","-0.000549651852425302","-0.004685521362177261","0.0011260156173617676","-2.032336522896342","0.859326617023837","0.4127472683087365"
"0.06676714216089705","-0.09285016620385005","-0.017223432745922296","-0.00019632274943454656","-0.005994415521593044","-0.00020051896028546668","-2.0331445738319003","0.8598543236091363","0.41250211660620484"
"0.06705502514150194","-0.09269539730998926","-0.01783061688296503","0.00032789440745500725","-0.007291582525439002","-0.000874707225324621","-2.0299680977403955","0.859682818968914","0.4138913095872178"
"0.06705502514150194","-0.0928512049212585","-0.01752289431011004","-0.000373757500609468","-0.0055514162367002635","0.0006782555925247483","-2.03737987528724","0.8601709475603159","0.4146104212479775"
"0.06676714216089705","-0.0926943585925808","-0.01753115531877729","0.0005765726289877377","-0.008968326442218481","0.0008719209040802722","-2.0342312630210992","0.8584163231641957","0.4153785632492434"
"0.06676714216089705","-0.0926943585925808","-0.0173783266584332","-0.00019747804895386254","-0.005127563328248015","0.0002440861158670642","-2.0360424116697646","0.8605403421700253","0.413531753756838"
"0.06691060224153293","-0.09292807000948468","-0.017374196154099575","0.00030093741867097135","-0.00676050990891978","0.004179763255586274","-2.0330609823558077","0.8594849289994266","0.41603230112266115"
"0.06691060224153293","-0.09285016620385005","-0.017527024814443667","-0.0003842514712432535","-0.00637303511570454","0.0024304655542175826","-2.0365718243516815","0.8608965441151023","0.4124203993720276"
"0.06691060224153293","-0.09300597381511932","-0.017219302241588675","0.000135537037488923","-0.007441163591380648","0.0024202726430830814","-2.03300525470508","0.8600258282493586","0.41359712754417965"
"0.06698377651085057","-0.09269539730998926","-0.01721517173725505","-0.00012276868003810606","-0.00939217935067073","0.001529363672255603","-2.0365439605263176","0.8594717363347943","0.41531318946190154"
"0.06691060224153293","-0.0926943585925808","-0.017834747387298653","0.00024307616774523735","-0.006437893465896837","-0.0010860887871853495","-2.0324479781977987","0.8580865065483836","0.4145450474606356"
"0.06705598796083508","-0.09269643602739772","-0.01721310648508824","0.0008501860651457013","-0.006862703693171113","-0.0010943401914370887","-2.034955722480565","0.8582448185239734","0.4155910280581041"
"0.06691060224153293","-0.09285016620385005","-0.017374196154099575","-2.524214561586207e-05","-0.007490944170126029","6.008834368356353e-06","-2.035930956368308","0.8580733138837511","0.4138095923530406"
"0.06691060224153293","-0.09292807000948468","-0.017219302241588675","-0.0005534065758630784","-0.00811727000943689","0.001102717534768622","-2.0322250675948856","0.8591551123836146","0.4136298144378506"
"0.06691156506086605","-0.09269539730998926","-0.017372130901932764","0.0003109500145050418","-0.0042130845235071645","0.0028796817092166735","-2.0322250675948856","0.8587989104385376","0.4136461578846861"
"0.06691060224153293","-0.09284912748644158","-0.017836812639465467","-1.2918950743160012e-05","-0.006457757831453888","-0.001962679144752457","-2.0352900883849343","0.8612527460601795","0.41374421856569876"
"0.06691156506086605","-0.09285016620385005","-0.017219302241588675","0.001536722804499128","-0.008115834031203849","0.00021180856394114328","-2.0348999948298374","0.8598411309445037","0.413351975841648"
"0.06676714216089705","-0.09300597381511932","-0.016607987600212322","0.0001388103861269845","-0.00594774622901925","0.001992898440515065","-2.033451075910905","0.8609097367797349","0.413351975841648"
"0.06691060224153293","-0.09285016620385005","-0.017527024814443667","-3.41957168905597e-05","-0.009180372561297358","0.0013116722130258975","-2.036209594621949","0.858944029749495","0.4146757950353193"
"0.06698281369151743","-0.09285016620385005","-0.017832682135131842","-0.0012594871320849312","-0.008079695245672348","0.00330147407949675","-2.03150060813542","0.859656433639649","0.4165062610808891"
"0.06705502514150194","-0.09300597381511932","-0.01752289431011004","0.0005834081511436897","-0.006409413230941548","0.0002275833073635859","-2.032643024975347","0.859326617023837","0.4134010061821543"
"0.06676617934156392","-0.09300493509771086","-0.01738039191060001","0.0015395147783374744","-0.006832069490866264","2.6111973235225725e-06","-2.032030020817337","0.8593134243592044","0.41518244188721803"
"0.06676714216089705","-0.09285016620385005","-0.016915710173067307","0.00030748411594709433","-0.006571918100980552","0.002865605784316648","-2.033534667386997","0.8607382321395125","0.4124694297125339"
"0.06698281369151743","-0.09300597381511932","-0.017372130901932764","-8.68285250566869e-06","-0.006476186218777899","-0.002841453697562672","-2.0368225987799584","0.8598411309445037","0.41309048069228094"
"0.06727165949145547","-0.09269643602739772","-0.017822355874297785","0.0015231480351471673","-0.008494214295609839","0.0028389100646786687","-2.0309711954535024","0.859326617023837","0.41475751226949653"
"0.06662271926092803","-0.09269331987517233","-0.01738245716276682","0.0010866373667656728","-0.005473155422999594","0.003747535285811352","-2.0324758420231626","0.8598411309445037","0.41470848192899007"
"0.06691060224153293","-0.09300597381511932","-0.017374196154099575","0.00033155285593284065","-0.008599998025443771","-0.001979181953255935","-2.035568726638575","0.8607382321395125","0.41134173188088813"
"0.06698281369151743","-0.09284912748644158","-0.018142469960153642","0.00014545335836305045","-0.007905223890358012","0.0006598112771385079","-2.03074828485059","0.8602105255542133","0.4136461578846861"
"0.06662271926092803","-0.09284808876903312","-0.017537351075277725","-4.6711461683147754e-05","-0.0067614672277418065","0.0041851023995138695","-2.0312219698817793","0.859682818968914","0.41276361175557186"
"0.06691060224153293","-0.09300597381511932","-0.01706647358124459","0.0008509562648252452","-0.006003749380107802","-0.00108657416390604","-2.0328380717528955","0.8587857177739052","0.414741168822661"
"0.06676617934156392","-0.09300493509771086","-0.01722549799808911","-0.00037934144828616123","-0.006823214291762518","0.0013315726585742098","-2.036321049923405","0.8605403421700253","0.41418549163025575"
"0.06719559676413844","-0.09293534103134393","-0.017795507596129224","-0.0001279675278750271","-0.007231032109945823","0.0017669555770336203","-2.034454173624012","0.8595376996579568","0.4150026639720282"
"0.06705117386416945","-0.09301324483697858","-0.01749191552760786","0.0010037446262547627","-0.008091183071536667","0.001097378390841026","-2.0332560291333563","0.8609625074382647","0.4127962986492428"
"0.06697896241418494","-0.09293534103134393","-0.017493980779774675","0.0003133568885036164","-0.005960909362822115","0.0006777702158040578","-2.0368504626053223","0.8593530023531019","0.4138586226935469"
"0.06705117386416945","-0.09301324483697858","-0.01749191552760786","0.001355148230046658","-0.00487052322453389","0.0011170361480289928","-2.035624454289303","0.8600522135786235","0.41475751226949653"
"0.06719559676413844","-0.09285847594311776","-0.017795507596129224","0.0007545850299223171","-0.008567449185494869","-0.0011011354655267559","-2.031444880484692","0.860091791572521","0.4121915911163313"
"0.06661886798359554","-0.09262372580880536","-0.017196584467753743","0.0008154308046062837","-0.003943838604812202","0.004643298023845736","-2.034426309798648","0.8602369108834782","0.4154275935897497"
"0.06676329088356454","-0.09285639850830084","-0.01719245396342012","-0.00022260581349898157","-0.005049063184841838","0.003543434374760981","-2.035512998987847","0.8602237182188458","0.4156237149517751"
"0.06690675096420043","-0.0928574372257093","-0.017496046031941485","-0.0003778010489270734","-0.009429514784729765","-0.0008771341089280736","-2.0353736798610265","0.8602369108834782","0.4136461578846861"
