"AccX","AccY","AccZ","GyroX","GyroY","GyroZ","MagX","MagY","MagZ"
"0.06719559676413844","-0.09285847594311776","-0.017330825858596525","-0.0003978262405952143","-0.00461587641787483","0.00398148686518419","-2.0420331341230407","0.8598675162737688","0.4115541966897489"
"0.06719559676413844","-0.09285847594311776","-0.017330825858596525","0.0009957538045794947","-0.006770083097140045","0.0028607520171097427","-2.03526222455957","0.8605931128285553","0.414741168822661"
"0.06719559676413844","-0.09285847594311776","-0.017330825858596525","0.0013620800271625531","-0.00683733474438741","-0.0006541035057707724","-2.039581117491002","0.8604084155237005","0.41312316758595186"
"0.06712338531415395","-0.09285847594311776","-0.017334956362930146","0.0008305459733173324","-0.009389307394204653","0.0006496183660040068","-2.0383272453496186","0.8618068379747438","0.41443064333278745"
"0.06705213668350257","-0.09285847594311776","-0.016874405129731068","0.0007386996615317246","-0.009157875568979736","0.0015308198024176745","-2.0393582068880893","0.8586274057983153","0.4144960171201293"
"0.06705213668350257","-0.09270266833184847","-0.017182127702586057","0.0006696705152526043","-0.006208136948610468","-0.0010831765268612063","-2.0408907172831134","0.8598543236091363","0.4146594515884838"
"0.06705117386416945","-0.09324591753647402","-0.01764680944011876","0.0010954946630804274","-0.008107936150922132","0.00021884652639115614","-2.0368504626053223","0.8591814977128797","0.4136461578846861"
"0.06705213668350257","-0.09270266833184847","-0.01748985027544105","0.0008300645985176175","-0.005938891029915504","0.0015516910014073677","-2.0383272453496186","0.8593398096884695","0.41405474405557224"
"0.06690771378353355","-0.09285847594311776","-0.016878535634064693","0.0009238364095020851","-0.006397446745666216","1.3532173539059604e-05","-2.0376306497155166","0.8621630399198208","0.41421817852392673"
"0.06719559676413844","-0.09301428355438704","-0.017332891110763336","-0.0015276128955261446","-0.006779895615065818","0.003534940282148897","-2.034259126846463","0.8597223969628114","0.41346637996949615"
"0.06712338531415395","-0.09285847594311776","-0.017487785023274232","0.0008322789225963062","-0.00810219223798997","0.0006583551469764363","-2.0397204366178223","0.8598543236091363","0.4149046032910154"
"0.06705213668350257","-0.09270266833184847","-0.01748985027544105","0.0006472384495858888","-0.005690945455010631","0.00331069623718987","-2.035763773416124","0.8588384884324352","0.4132375717137998"
"0.06676329088356454","-0.09293430231393547","-0.017347347875931018","-0.0006450603377288001","-0.007898522658603826","0.0006731591369574976","-2.0371012370335992","0.8584690938227255","0.4145450474606356"
"0.06705117386416945","-0.09301324483697858","-0.01749191552760786","0.0003129717886638445","-0.006390266854501017","0.0006741298903988789","-2.0363767775741333","0.8595245069933242","0.4145287040138002"
"0.06748347974474335","-0.09301428355438704","-0.017940075247806064","0.0009251842589412868","-0.007692220452457107","-0.00022139015927515998","-2.03963684514173","0.8591683050482471","0.41250211660620484"
"0.06697896241418494","-0.0928574372257093","-0.017648874692285575","-0.00021143791814559514","-0.005089749234777966","0.0015650388612263575","-2.035568726638575","0.8620179206088634","0.4127309248619011"
"0.06690771378353355","-0.09285847594311776","-0.016878535634064693","0.0010163566460072936","-0.004693897901869993","-0.0006342030602224603","-2.0375470582394244","0.8591683050482471","0.4140710875024076"
"0.06697896241418494","-0.0928574372257093","-0.01733908686726377","-0.0010753131337140006","-0.0064115671982911075","0.0002443288042274093","-2.0369897817321427","0.8605931128285553","0.4129597331175974"
"0.06690771378353355","-0.0928574372257093","-0.017188323459086493","0.0004979159867143189","-0.008371438156684934","-0.0019728720558869583","-2.038605883603259","0.858455901158093","0.41451236056696467"
"0.06705117386416945","-0.09293534103134393","-0.01779963810046285","-0.0003966709410758987","-0.00892644374375482","0.002856383626623528","-2.037742105016973","0.858455901158093","0.4154112501429143"
"0.06705117386416945","-0.0928574372257093","-0.01749191552760786","0.0008246732007608103","-0.008504266143241117","0.0019737260600477887","-2.035624454289303","0.8597092042981789","0.4145450474606356"
"0.06719559676413844","-0.09285847594311776","-0.017795507596129224","0.00013130093925143167","-0.007438770294325582","0.0019834335944615995","-2.0390795686344485","0.8590099930726574","0.41096583260367275"
"0.06705117386416945","-0.09293637974875239","-0.017182127702586057","0.0005001303107930075","-0.006656401487024394","-0.0019629218331128026","-2.0372126923350558","0.8591551123836146","0.41671872588975006"
"0.06690771378353355","-0.09285847594311776","-0.016878535634064693","-0.0004742685587899446","-0.005087834597133914","0.0017870987109422775","-2.037602785890152","0.8609361221089998","0.41403840060873687"
"0.06719559676413844","-0.09285847594311776","-0.017485719771107425","0.0013590955034043207","-0.005532748519670746","0.00023267976293083636","-2.0383272453496186","0.8598675162737688","0.41403840060873687"
"0.06734001966410746","-0.09285847594311776","-0.018099099664650592","0.0001385215612471555","-0.007680493296887281","0.0006629662258229966","-2.041475857615759","0.8582580111886058","0.4155583411644332"
"0.06705213668350257","-0.09262476452621382","-0.01748985027544105","0.002051312465394383","-0.009824169469110204","-0.00023813565613898337","-2.0393303430627254","0.8602369108834782","0.41225696490367314"
"0.06661886798359554","-0.09301220611957012","-0.016890927147065565","0.0011837788013481447","-0.005959473384589076","0.00023777621849808704","-2.0375749220647883","0.8604084155237005","0.414267208864433"
"0.06705117386416945","-0.09285847594311776","-0.01702929904224197","0.00031393453826327437","-0.008982446894843373","-0.00022139015927515998","-2.0382157900481626","0.8607514248041451","0.41513341154671174"
"0.06734001966410746","-0.09317112988306478","-0.016866144121063822","0.0009215258104634533","-0.005743837319927597","0.0006717030067954261","-2.0354572713371186","0.8598939016030337","0.4129924200112682"
"0.06705213668350257","-0.09270370704925693","-0.016872339877564257","0.00031740043682122184","-0.005979337750146126","-0.0002012470253665026","-2.037797832667701","0.8595113143286917","0.41516609844038266"
"0.06690675096420043","-0.09301220611957012","-0.017343217371597393","-0.00011448903348300931","-0.008144553595864646","-0.001089486424230183","-2.038856658031536","0.8582975891825033","0.41253480349987576"
"0.06719559676413844","-0.09301324483697858","-0.017487785023274232","-0.00011275608420403552","-0.005997287478059123","-0.0008586897935418333","-2.034844267179109","0.858126084542281","0.4145940778011421"
"0.06719559676413844","-0.09316905244824786","-0.017180062450419246","-0.0003721208262904373","-0.005575109877545421","-0.0010734689924473955","-2.035708045765395","0.8590099930726574","0.4138913095872178"
"0.06734001966410746","-0.09293741846616085","-0.0173266953542629","0.0009272060331000894","-0.009210767433896701","-0.0011081734279767684","-2.037491330588696","0.8600522135786235","0.41470848192899007"
"0.06697992523351806","-0.09285847594311776","-0.01687647038189788","0.0002916950225164448","-0.00782145849343069","0.004177579060343167","-2.036209594621949","0.8590099930726574","0.4127799552024074"
"0.06690771378353355","-0.09293534103134393","-0.016880600886231504","-0.00037914889836627525","-0.008996567347468265","-0.000654588882491463","-2.0360424116697646","0.8598807089384012","0.4143162392049393"
"0.06690675096420043","-0.09293534103134393","-0.017343217371597393","-0.0005386765069918016","-0.003447229465885935","-0.0019330711647903341","-2.0364603690502254","0.8609361221089998","0.414267208864433"
"0.06719559676413844","-0.0928574372257093","-0.018103230168984213","-0.00039744114075544246","-0.006983565194451963","0.003526203501176467","-2.034454173624012","0.8591814977128797","0.4147901991631673"
"0.06719559676413844","-0.09270370704925693","-0.017485719771107425","0.0003010336936309144","-0.00850115485706953","0.0024142054340744496","-2.03751919441406","0.8602501035481107","0.4116359139239261"
"0.06690771378353355","-0.09293637974875239","-0.016570813061209704","0.0004893475152793933","-0.006187075934525885","1.7657875664929074e-05","-2.034091943894279","0.8605931128285553","0.41498632052519263"
"0.06676232806423141","-0.0932438401016571","-0.01781202961346372","-0.000109964110365689","-0.00471112964066647","-0.0010644895231146205","-2.033785441815274","0.8588384884324352","0.41415280473658483"
"0.06705213668350257","-0.09270266833184847","-0.017182127702586057","-0.0005608197477786882","-0.008105782183572571","0.0011068432368944914","-2.0348999948298374","0.8582975891825033","0.41415280473658483"
"0.06705117386416945","-0.09301324483697858","-0.01749191552760786","0.00012022931885798834","-0.008475307248874814","0.003734430114352707","-2.0354015436863904","0.8579281945727938","0.41590155354797764"
"0.06690675096420043","-0.09301220611957012","-0.017805833856963285","-0.0005549469752221661","-0.005753410508147863","0.0006855362433351064","-2.0372405561604197","0.8588252957678025","0.4136461578846861"
"0.06676329088356454","-0.09270162961444","-0.01719245396342012","0.0008285241991585297","-0.00291639617907222","0.002453520948450383","-2.035624454289303","0.8595245069933242","0.4145450474606356"
"0.06690675096420043","-0.09301220611957012","-0.017805833856963285","0.0010965536876398002","-0.003370165300712799","0.0011303840078479826","-2.03751919441406","0.8612791313894445","0.4149046032910154"
"0.06690771378353355","-0.09270162961444","-0.017803768604796474","0.0008369001206735693","-0.01027195534811312","-0.0006710916909949413","-2.0387452027300794","0.8605799201639228","0.4140220571619013"
"0.06690675096420043","-0.09301324483697858","-0.016880600886231504","0.0010062477752132801","-0.007241323287282608","0.0006658784861471396","-2.03526222455957","0.8597092042981789","0.4145450474606356"
"0.06705213668350257","-0.09270266833184847","-0.017182127702586057","0.000310179814825498","-0.006381890314808285","0.0011131531342634684","-2.0359030925429438","0.8572553686765371","0.41194643941379966"
"0.06719559676413844","-0.09309114864261323","-0.017487785023274232","0.00032885715705443705","-0.00688208939931715","-0.0024038865838601543","-2.035763773416124","0.8605931128285553","0.4136298144378506"
"0.06690675096420043","-0.09301220611957012","-0.017343217371597393","0.0011730922807944733","-0.007641961214300715","0.0019790652039753842","-2.04038916842656","0.8619915352795984","0.4130741372454454"
"0.06719559676413844","-0.09285951466052621","-0.017177997198252432","0.0010038409012147055","-0.006801195958855908","0.0013238066310431612","-2.038382973000347","0.8614770213589317","0.4111456105188628"
"0.06690675096420043","-0.09293534103134393","-0.017343217371597393","0.0007505414816047117","-0.009414915672693862","-0.0006645391052656188","-2.035680181940031","0.8600785989078884","0.41122732775304"
"0.06697992523351806","-0.09285847594311776","-0.01687647038189788","0.0005772465537073386","-0.004680734768067128","0.0002457849343894811","-2.036432505224861","0.8591814977128797","0.41410377439607854"
"0.06676232806423141","-0.09301116740216166","-0.01781202961346372","0.0001400619606062433","-0.007685519220702921","0.00023073825604807437","-2.0367947349545945","0.8593530023531019","0.41429989575810394"
"0.06676329088356454","-0.09293430231393547","-0.017347347875931018","-0.0005645744712164646","-0.00830490449855409","0.0017674409537543109","-2.035512998987847","0.8597223969628114","0.4125674903935467"
"0.06705117386416945","-0.09301324483697858","-0.01749191552760786","0.0011793501531907674","-0.008527481124675261","0.000654472133210912","-2.0362653222726768","0.8600522135786235","0.4156237149517751"
"0.06719559676413844","-0.09285847594311776","-0.017330825858596525","0.0012621466187417345","-0.003988114600330928","0.002438959646829667","-2.0367390073038663","0.8598807089384012","0.414741168822661"
"0.06705117386416945","-0.09301428355438704","-0.016874405129731068","0.0013519711563685396","-0.005939130359621011","0.0013293884633311021","-2.0359030925429438","0.8600522135786235","0.4154112501429143"
"0.06690771378353355","-0.09293534103134393","-0.016880600886231504","0.00011531929590089612","-0.011906816566428939","0.0037128308502819784","-2.0376863773662444","0.8600522135786235","0.41317219792645815"
"0.06705117386416945","-0.0928574372257093","-0.01749191552760786","0.0005701222066715576","-0.008313999027363343","0.0008789588665302849","-2.037017645557507","0.8602369108834782","0.4127472683087365"
"0.06719463394480532","-0.09316801373083937","-0.017795507596129224","0.0009104541900700101","-0.003973276158589517","0.003319433018162299","-2.036237458447313","0.8586405984629479","0.4154275935897497"
"0.06712338531415395","-0.09285847594311776","-0.017180062450419246","0.00022305097607709645","-0.0007796605683089887","0.0024678395617107537","-2.0359866840190364","0.8595113143286917","0.41761761546569953"
"0.06669107943358003","-0.09285639850830084","-0.017504307040608732","0.00014044706044601522","-0.007041722312890075","0.00023583471161532505","-2.039302479237361","0.8593530023531019","0.4122733083505085"
"0.06661886798359554","-0.09285535979089238","-0.01781616011779735","-0.0006452528876486861","-0.006386916238623924","0.0011238314221186604","-2.0343148544971914","0.8595508923225891","0.4130251069049391"
"0.06690675096420043","-0.09293430231393547","-0.017805833856963285","0.0008215924020426348","-0.005473394752705101","0.003312880432432977","-2.0357916372414877","0.860065406243256","0.4134336930758252"
"0.06676329088356454","-0.0928574372257093","-0.01688473139056513","-3.8046715288279116e-05","-0.0074600706381156715","0.0008918213496285841","-2.0347049480522887","0.8595508923225891","0.4130251069049391"
"0.06719559676413844","-0.09301324483697858","-0.017487785023274232","0.00029410189651501946","-0.008474828589463801","0.003731760542388909","-2.0354015436863904","0.8612923240540767","0.41384227924671135"
"0.06705117386416945","-0.0928574372257093","-0.01749191552760786","0.0011888813742251228","-0.006408934571530534","-0.0006485216734828311","-2.036961917906779","0.8605931128285553","0.41317219792645815"
"0.06690771378353355","-0.09270266833184847","-0.016878535634064693","0.0010180895952862673","-0.005131631933241627","-0.0010763812527715387","-2.0357916372414877","0.860065406243256","0.4134336930758252"
"0.06719559676413844","-0.09285951466052621","-0.017177997198252432","0.0015497199240914312","-0.0068887906310713355","-0.003289699099120382","-2.0376863773662444","0.8589968004080248","0.4129760765644328"
"0.06719559676413844","-0.09293637974875239","-0.017332891110763336","-4.0261039366967815e-05","-0.008097405643879839","0.0013216224358000535","-2.037797832667701","0.8611208194138547","0.4126982379682302"
"0.06697896241418494","-0.09301324483697858","-0.017341152119430582","0.0003013225185107433","-0.006131312113142839","0.002871915681685625","-2.037491330588696","0.860065406243256","0.41184837873278685"
"0.06697896241418494","-0.0928574372257093","-0.017493980779774675","0.0008254434004403542","-0.005920941302002507","0.0024309509309382734","-2.037769968842337","0.8590099930726574","0.4123223386910148"
"0.06697896241418494","-0.0928574372257093","-0.017493980779774675","0.000839980919391745","-0.009423292212386594","-0.0011050184792922803","-2.0376585135408805","0.8602369108834782","0.4136134709910152"
"0.06697896241418494","-0.09293534103134393","-0.017493980779774675","0.00012677601613411137","-0.007853289344263072","0.002641847116078311","-2.0357359095907595","0.8584822864873581","0.41346637996949615"
"0.06705213668350257","-0.09270266833184847","-0.017182127702586057","0.0016993312118428298","-0.008303947179732065","0.0008719209040802722","-2.037797832667701","0.8602369108834782","0.41250211660620484"
"0.06676329088356454","-0.09301220611957012","-0.017194519215586932","0.000658406344939275","-0.0076723560869000566","0.0006666065512281756","-2.033367484434813","0.8602632962127432","0.4119300959669643"
"0.06719559676413844","-0.09270370704925693","-0.01717593194608562","0.0006547478964614417","-0.005075150122742062","0.001996053389199553","-2.038940249507628","0.8593530023531019","0.4120608435416478"
"0.06719559676413844","-0.09309114864261323","-0.017332891110763336","0.0010028781516152757","-0.006796648694451282","0.0015436822855159737","-2.037602785890152","0.8586405984629479","0.4136461578846861"
"0.06734001966410746","-0.09301428355438704","-0.0176364831792847","0.0006482011991853186","-0.009142558467827312","0.002406196718183056","-2.0398040280939145","0.8593530023531019","0.41116195396569816"
"0.06690675096420043","-0.09293534103134393","-0.017188323459086493","0.00125328932242698","-0.007186038125310576","0.003298804507532951","-2.0371012370335992","0.86077781013341","0.4120608435416478"
"0.06705117386416945","-0.09285847594311776","-0.01702929904224197","0.0005679078825928691","-0.006799759980622868","0.0015478079876418433","-2.0386894750793516","0.8588121031031701","0.4140710875024076"
"0.06690675096420043","-0.09301324483697858","-0.016880600886231504","0.000548652890604272","-0.008882167748236094","0.004608836276676708","-2.0366275520024097","0.8602369108834782","0.4127472683087365"
"0.06705117386416945","-0.09301428355438704","-0.01672157646938698","4.6675249461547735e-05","-0.006375667742465112","0.0015541178850108203","-2.0350393139566574","0.8621894252490856","0.413825935799876"
"0.06690771378353355","-0.09262580324362228","-0.016568747809042893","0.0011846452759876316","-0.005966413946048767","1.4502926980440595e-05","-2.0388287942061716","0.8586669837922127","0.4098871651125333"
"0.06669107943358003","-0.09270162961444","-0.017194519215586932","0.00014468315868350654","-0.0051201441073773085","-0.00019032604915096557","-2.0347049480522887","0.8609493147736323","0.4132048848201291"
"0.06705117386416945","-0.09301428355438704","-0.016874405129731068","0.0010078844495323108","-0.005955404779595463","0.0006729164485971524","-2.0382157900481626","0.8618464159686412","0.4095929830694954"
"0.06719559676413844","-0.09293637974875239","-0.017177997198252432","0.000135633312448866","-0.008104824864750546","0.0008816284384940828","-2.0338968971167306","0.8606063054931877","0.41367884477835687"
"0.06719559676413844","-0.0930153222717955","-0.01656048680037564","0.000820629652443205","-0.0033225386893169784","0.00376355271759414","-2.0347049480522887","0.8590231857372898","0.4128126420960784"
"0.06697992523351806","-0.09285847594311776","-0.017186258206919682","0.0003207700604192263","0.0004741877588402677","0.000721454120666206","-2.0336461226884537","0.859735589627444","0.4123713690315211"
"0.06719559676413844","-0.09316905244824786","-0.017487785023274232","-0.0009026921305362284","-0.0057589150913745155","0.0006845654898937255","-2.0376863773662444","0.8595245069933242","0.4131885413732935"
"0.06719559676413844","-0.09301324483697858","-0.017487785023274232","-0.00011699218244152685","-0.00856673119637835","-0.000656530389374225","-2.0349835863059296","0.8591814977128797","0.41367884477835687"
"0.06705117386416945","-0.0928574372257093","-0.01779963810046285","0.0004895400651992791","-0.00725975167460662","8.435717971808933e-06","-2.031556335786148","0.860447993517598","0.41129270154038167"
"0.06669107943358003","-0.09270162961444","-0.01688679664273194","-0.00047301698431068573","-0.006815555741186306","0.001118977654911755","-2.0372126923350558","0.8616617186637864","0.41137441877455905"
"0.06697896241418494","-0.09301324483697858","-0.016878535634064693","0.00014237255964487494","-0.005975987134269033","2.0570135989072465e-05","-2.0346770842269244","0.8609493147736323","0.4134336930758252"
"0.06734001966410746","-0.09301428355438704","-0.017789311839628792","0.0001381364614073836","-0.007680732626592789","0.0006632089141833417","-2.0317513825636966","0.8595640849872216","0.41263286418088835"
"0.06690675096420043","-0.09301324483697858","-0.016880600886231504","0.0016795948450545179","-0.009738728764244338","0.004156950549713818","-2.036599688177046","0.8614770213589317","0.41338466273531893"
"0.06690771378353355","-0.09270370704925693","-0.01672364172155379","0.0005698333817917288","-0.007670202119550498","0.0008847833871785714","-2.038466564476439","0.8606063054931877","0.41027940783658406"
"0.06661886798359554","-0.09270059089703155","-0.017196584467753743","-0.00012045808099947444","-0.006829197534400184","0.0002394750370205039","-2.0363767775741333","0.860421608188333","0.4118647221796224"
"0.06719559676413844","-0.09270266833184847","-0.017793442343962414","0.00031152766426469975","-0.0059534901419514095","0.0011141238877048496","-2.0372126923350558","0.8583107818471357","0.4108023981353183"
"0.06705117386416945","-0.09293637974875239","-0.016874405129731068","0.0019645687264857534","-0.007242519935810141","0.00021908921475150144","-2.035512998987847","0.8598939016030337","0.41255114694671113"
"0.06676329088356454","-0.09270162961444","-0.01719245396342012","0.0010105801484107146","-0.003808138661789939","0.0006903900105420117","-2.0368783264306867","0.8597092042981789","0.4136298144378506"
"0.06690771378353355","-0.09293637974875239","-0.0167257069737206","0.0006476235494256607","-0.006557079659239141","0.0028677899795597557","-2.037853560318429","0.8602369108834782","0.4120608435416478"
"0.06734001966410746","-0.09285951466052621","-0.017481589266773796","0.0004750025462478884","-0.008500676197658517","0.0024115358621106513","-2.0386894750793516","0.8611076267492221","0.414446986779623"
"0.06719559676413844","-0.09301324483697858","-0.017950401508640128","0.0004750988212078314","-0.0028958138243986497","0.0037681637964406996","-2.0372405561604197","0.8591683050482471","0.4136461578846861"
"0.06705117386416945","-0.09285847594311776","-0.017182127702586057","0.0027418927530654153","-0.008509052737351249","0.0008641548765492236","-2.0357916372414877","0.8591814977128797","0.41322122826696445"
"0.06676329088356454","-0.09285847594311776","-0.016267220992688337","0.0009132461639083566","-0.010669242659254131","0.0008643975649095689","-2.0350950416073856","0.8598939016030337","0.4130087634581037"
"0.06705213668350257","-0.09270370704925693","-0.01702723379007516","-0.00020903104414702063","-0.006395532108022162","0.0006772848390833674","-2.0350393139566574","0.8609493147736323","0.4136461578846861"
"0.06719559676413844","-0.09285847594311776","-0.017795507596129224","-0.0005617824973781181","-0.007668526811611951","0.0015470799225608075","-2.03526222455957","0.8618332233040087","0.41207718698848317"
"0.06705117386416945","-0.09285847594311776","-0.017182127702586057","0.0005838895259434046","-0.0034115693397654464","-0.0006244955258086501","-2.0360702754951285","0.8593793876823669","0.41101486294417927"
"0.06705117386416945","-0.09301324483697858","-0.01749191552760786","0.0006655306919750559","-0.005113442875623122","2.2026266151143847e-05","-2.032308659070978","0.8597223969628114","0.41416914818342043"
"0.06719559676413844","-0.09293741846616085","-0.016870274625397447","0.0013545705802870001","-0.006811247806487186","0.0006632089141833417","-2.034147671545007","0.8606194981578202","0.4116849442644324"
"0.06669107943358003","-0.0928574372257093","-0.01688679664273194","0.0017069369336783257","-0.008332427414687354","-0.0006606560915000945","-2.0368504626053223","0.8591814977128797","0.4136461578846861"
"0.06647444508362652","-0.09301116740216166","-0.0167422289910551","0.001259450919863331","-0.007209492436450226","0.0019865885431460876","-2.0339804885928228","0.8593793876823669","0.4128126420960784"
"0.06719559676413844","-0.09270370704925693","-0.017485719771107425","0.001000856377456473","-0.0065731147495080855","0.00198391897118229","-2.0331167100065364","0.8581392772069135","0.4133029455011417"
"0.06705117386416945","-0.09301324483697858","-0.01749191552760786","0.00012754621581365517","-0.010226482704066857","0.0019664454092374302","-2.0332838929587207","0.8586801764568454","0.4121915911163313"
"0.06676232806423141","-0.09301116740216166","-0.01765713570095282","-4.9310885601608446e-05","-0.009783722748879585","0.0026323822700248458","-2.035178633083478","0.8593661950177344","0.412142560775825"
"0.06690771378353355","-0.09270266833184847","-0.017186258206919682","0.0001393880358866424","-0.00768695519893596","0.0002287967491653122","-2.0380764709213417","0.8593530023531019","0.4129597331175974"
"0.06697992523351806","-0.09270266833184847","-0.01733908686726377","0.0012693672407374586","-0.0046608704025100775","0.0009000727538803233","-2.035596590463939","0.8604084155237005","0.41496997707835725"
"0.06697896241418494","-0.09301324483697858","-0.017031364294408782","0.0012760102129735244","-0.007703708278321425","-0.00109579632159916","-2.0348999948298374","0.8595376996579568","0.41433258265177486"
"0.06690771378353355","-0.09270162961444","-0.017496046031941485","-0.00019247175103682715","-0.008609571213664036","-0.002848491660012685","-2.0347606757030166","0.8605799201639228","0.41564005839861046"
"0.06705117386416945","-0.09293534103134393","-0.01779963810046285","-0.00037847497364667447","-0.0074866362354269085","-0.00020707154601478896","-2.034788539528381","0.8579413872374263","0.4148228860568382"
"0.06719559676413844","-0.09270370704925693","-0.017485719771107425","0.0013554370549264873","-0.006596329730942229","0.0006644223559850682","-2.034259126846463","0.8614770213589317","0.4138586226935469"
