"AccX","AccY","AccZ","GyroX","GyroY","GyroZ","MagX","MagY","MagZ"
"0.06335298480562958","0.09757581885464586","-0.0216244851133987","0.0006994194778749867","-0.007205184501751107","0.0040074545197411335","-2.1020518139572615","-1.1758661778353736","0.06297462520461183"
"0.06328077335564507","0.0975747801372374","-0.02162861561773232","0.00014054333540595821","-0.007626883442853797","-0.0007067668799656956","-2.100212801483232","-1.1756550952012539","0.06695915754309369"
"0.06328077335564507","0.0975747801372374","-0.02162861561773232","0.0009118983144691548","-0.0008875982654924807","-0.0002306123169682799","-2.100073482356412","-1.1760640678048608","0.06346819729904232"
"0.06313635045567605","0.09765268394287203","-0.021634811374232756","-0.00014269759674630385","-0.003198087242453529","0.002751299566594027","-2.1040580093834746","-1.175140581280587","0.06269842095309279"
"0.06313635045567605","0.09780745283673287","-0.021325023549210956","0.000814082955167082","-0.00636226527895674","0.0005884608991969993","-2.100547167387601","-1.1765258110669978","0.06192701026245974"
"0.06306413900569154","0.09772954903109822","-0.02148404796605548","0.0019234593185900992","-0.006364658576011807","0.0010165631668460518","-2.1032499584479165","-1.1758397925061086","0.06272293612334597"
"0.06313635045567605","0.09780745283673287","-0.021325023549210956","0.0010637239262992423","-0.005941044997265064","0.0014480630715399381","-2.1016895842275285","-1.1744941407135951","0.06341753261385245"
"0.06327981053631195","0.09788639535977597","-0.02162861561773232","0.0008842674009655179","-0.007627122772559304","0.0022928612539018156","-2.100073482356412","-1.1755363612195615","0.06346656295435878"
"0.06306317618635841","0.09804116425363675","-0.02132915405354458","0.0008960129460785622","-0.005518628067045855","0.0010240865060167552","-2.101132307720247","-1.1745732967013902","0.06583799709018207"
"0.06320856190566056","0.09780745283673287","-0.021322958297044146","0.000910935564869725","-0.0008866409466704541","-0.0002293988751665536","-2.1024976351630866","-1.1772118296278866","0.0618747112325863"
"0.06313731327500917","0.09772851031368973","-0.020705447899167354","0.0014167642044101687","-0.005521500023511934","0.0001661831521962332","-2.100073482356412","-1.1772514076217844","0.06303509595790298"
"0.06313731327500917","0.09765060650805513","-0.021015235724189153","0.0005318047726142496","-0.0059381730407989846","0.0035888170981455466","-2.1024140436869945","-1.1774097195973738","0.06296972217056122"
"0.06313731327500917","0.09757374141982894","-0.021325023549210956","0.0017466022171748355","-0.006785878857703483","0.0016553189312747969","-2.100017754705684","-1.1766049670547924","0.06412683820651081"
"0.06327981053631195","0.09773162646591514","-0.021938403442754127","0.0007276280411382813","-0.0038356615779232025","0.001033794040430566","-2.1015502651007076","-1.1748899206525696","0.06517118445929584"
"0.0631344248170098","0.09804220297104521","-0.021944599199254563","0.001143150768252205","-0.0021488658135124434","0.0025464705904626205","-2.1018010395289846","-1.1751273886159546","0.061449781614864675"
"0.06313538763634292","0.09788535664236747","-0.021325023549210956","0.001253770697226695","-0.005100279741820257","-0.0006868664344173835","-2.1012716268470673","-1.1763806917560404","0.06299914037486501"
"0.06313635045567605","0.09780745283673287","-0.02147991746172186","0.0009309607565378659","-0.004047229037591067","-0.0028215532520143604","-2.1006864865144212","-1.1756155172073561","0.060608094102839176"
"0.06313731327500917","0.09765060650805513","-0.021015235724189153","0.0017509345903722697","-0.00762879808049785","0.0010073410091529316","-2.1037236434791056","-1.1759717191524335","0.06139748258499126"
"0.06313538763634292","0.09788535664236747","-0.02147991746172186","0.0011373742706556258","-0.00994335566245251","0.0024908949559435544","-2.1028041372420914","-1.175193351939117","0.06404512097233359"
"0.06313538763634292","0.09788639535977597","-0.021944599199254563","0.00019474613785385884","-0.004673554876901929","0.0031701796765499593","-2.102692681940635","-1.1771194809754595","0.06448966272625772"
"0.06320952472499368","0.09757374141982894","-0.02101110521985553","0.0010565033043035185","-0.0034132446477039926","0.002535792302607429","-2.1024976351630866","-1.1760112971463306","0.06230781257372561"
"0.06299289037504016","0.09772851031368973","-0.02086653756817869","0.0022556079303933975","-0.003835900907628709","0.00231979966190014","-2.1039465540820186","-1.175193351939117","0.06423143626625766"
"0.06313635045567605","0.09772954903109822","-0.021325023549210956","-0.00012305750491793497","-0.005727562899953146","0.00016424164531347077","-2.1003521206100526","-1.1752461225976467","0.0652055056976503"
"0.06327981053631195","0.09788639535977597","-0.02162861561773232","0.0007268578414587375","-0.0038354222482176958","0.001034764793871947","-2.1044202391132076","-1.1756814805305187","0.06312661926018148"
"0.06313538763634292","0.09780849155414133","-0.021634811374232756","0.0005543331132409081","-0.005939848348737531","0.0010194754271701952","-2.101605992751436","-1.174863535323305","0.06429517570891592"
"0.06299289037504016","0.09765164522546359","-0.021795901043244095","0.0010491864073478515","-0.007202551874990533","0.003151492672803374","-2.1028041372420914","-1.1750218472988945","0.06382448444005505"
"0.06313731327500917","0.09772851031368973","-0.021015235724189153","0.0012533855973869228","-0.005521500023511934","-0.0006905067598225629","-2.1017731757036207","-1.1753120859208093","0.06188778599005465"
"0.06306510182502467","0.09772954903109822","-0.021327088801377767","0.0007289758905774832","-0.005939848348737531","0.0005911304711607972","-2.1020796777826254","-1.1755099758902965","0.06297299085992829"
"0.06313538763634292","0.09788535664236747","-0.021325023549210956","0.0017218595524694886","-0.006783964220059431","0.004440653242957436","-2.099683388801315","-1.176393884420673","0.06304326768132072"
"0.06313538763634292","0.09788639535977597","-0.021634811374232756","0.0015801428114334145","-0.007417709280240998","0.0010097678927563844","-2.101243763021703","-1.1782672427984853","0.06234867119081423"
"0.06327981053631195","0.09780849155414133","-0.02162861561773232","0.00030777294082692336","-0.00720566316116212","-0.00027429622183042804","-2.10238617986163","-1.1765653890608951","0.06362346004397908"
"0.06313635045567605","0.09772954903109822","-0.021325023549210956","0.0005464385665255834","-0.006360589971018194","0.0018730103905045023","-2.1020518139572615","-1.176367499091408","0.06275725736170039"
"0.06299289037504016","0.09788327920755055","-0.02071164365566779","-0.00011217843444437754","-0.004251616606093733","-0.0011091441814181497","-2.1021632692587175","-1.1741115534392532","0.06253008345068771"
"0.0630660646443578","0.09757270270242048","-0.021017300976355964","0.0015868820586294231","-0.0029929816848343425","0.0006115162934297997","-2.1004357120861448","-1.1765785817255277","0.0634600255756246"
"0.06299192755570704","0.09788431792495901","-0.021331219305711392","0.0002224733263174385","-0.005937694381387972","-0.0002645886874166175","-2.1019124948304406","-1.177977004176571","0.06429681005359947"
"0.0631344248170098","0.09804220297104521","-0.02178970528674366","0.0014236960015260635","-0.007207577798806173","-0.0007014277360380998","-2.099488342023766","-1.1752857005915442","0.06632339746119484"
"0.06320856190566056","0.09773058774850668","-0.021632746122065945","0.0014943618221242144","-0.008261107162446378","0.0010029726186667168","-2.102023950131897","-1.1755363612195615","0.06362999742271325"
"0.06320856190566056","0.09780641411932436","-0.020856211307344632","0.0007953093379781998","-0.005940087678443038","0.002733097939568132","-2.1004635759115087","-1.1767368937011173","0.06324102338802962"
"0.06313635045567605","0.09773058774850668","-0.021634811374232756","0.00158322361015159","-0.008892698255278384","0.0005702592721711042","-2.1031942307971883","-1.1745073333782277","0.0640304118701817"
"0.06306317618635841","0.09788639535977597","-0.021948729703588184","0.001440544119516086","-0.005101237060642285","-0.0024004889468153203","-2.10436451146248","-1.177568031572964","0.06269678660840924"
"0.06335202198629644","0.09773162646591514","-0.02162655036556551","0.0005797497026658562","-0.001520146677146515","-0.0015195301987619978","-2.100017754705684","-1.1764202697499377","0.06412683820651081"
"0.06299192755570704","0.09772954903109822","-0.021641007130733192","0.0019203785198719237","-0.0032035918256801813","0.0016812865858317407","-2.101299490672431","-1.1751669666098519","0.06299423734081437"
"0.0629938531943733","0.09757270270242048","-0.021331219305711392","-0.00013307010075200532","-0.004882489709809221","0.0014543729689089151","-2.1029155925435474","-1.1744545627196978","0.06250883696980163"
"0.06328077335564507","0.0975747801372374","-0.02147372170522142","0.0024504684493179994","-0.003420424538869192","-0.0002483285672734847","-2.0991261122940332","-1.1783595914509128","0.06481326297359957"
"0.06327981053631195","0.09773058774850668","-0.02162861561773232","0.0015490459993718303","-0.0050998010824092445","0.004879919175182372","-2.099349022896946","-1.17467883801845","0.06326553855828278"
"0.06327981053631195","0.0976537226602805","-0.021938403442754127","0.002427940108691341","-0.004683128065122194","0.002312761699450128","-2.1026090904645427","-1.1759585264878007","0.0662384115376505"
"0.06313635045567605","0.09773058774850668","-0.021634811374232756","0.00021862232791971915","-0.002147190505573898","0.0006175835024384315","-2.1051446985726736","-1.175852985170741","0.06354337715448538"
"0.06320856190566056","0.09772954903109822","-0.02132089304487733","0.0007298423652169699","-0.0046773841521900355","0.0006001099404935722","-2.1036400520030134","-1.175852985170741","0.06293049789815613"
"0.06313731327500917","0.09772851031368973","-0.021015235724189153","0.001060161752781352","-0.005519346056162375","0.0018793202878734793","-2.1019960863065332","-1.1758925631646384","0.06385063395499178"
"0.06299289037504016","0.09772851031368973","-0.02102143148068959","-0.00014789644458322517","-0.003827763697641484","0.0031760041971982456","-2.1031942307971883","-1.1758661778353736","0.06337994268613091"
"0.06299192755570704","0.09780641411932436","-0.021331219305711392","0.0017527638146111867","-0.005099083093292725","0.0010260280128995172","-2.0991818399447615","-1.175602324542724","0.06523982693600472"
"0.06306413900569154","0.09780745283673287","-0.021638941878566385","0.0012305684318804355","-0.010154205133003854","0.0016322635370419965","-2.104810332668305","-1.1756682878658864","0.06289617665980168"
"0.06299192755570704","0.09780745283673287","-0.021641007130733192","0.0010744104468529136","-0.007204466512634586","0.00015429142253931496","-2.1035843243522856","-1.1751801592744844","0.06380323795916897"
"0.06313635045567605","0.09772954903109822","-0.02147991746172186","0.00013303388853040538","-0.0017254915644712076","0.0006207384511229197","-2.1051446985726736","-1.1748371499940398","0.06397811284030826"
"0.06313731327500917","0.0975747801372374","-0.021634811374232756","-0.0008960491583001625","-0.005514320132346736","0.0005928292896832141","-2.1042251923356594","-1.1764334624145703","0.06531990982549842"
"0.0629938531943733","0.09757270270242048","-0.021331219305711392","0.0005436465926872368","-0.00572660558113112","0.0023052383602794246","-2.100101346181776","-1.175879370500006","0.06303019292385237"
"0.06320856190566056","0.09780745283673287","-0.021322958297044146","0.0015841863597510196","-0.006576226035679672","0.0005870047690349276","-2.1024419075123584","-1.1745073333782277","0.06383429050815632"
"0.06320856190566056","0.09765268394287203","-0.021630680869899135","0.0012312423566000362","-0.009734660159250725","0.0016344477322851041","-2.103472869050829","-1.1767632790303824","0.0646857840882831"
"0.06299192755570704","0.09788431792495901","-0.02102143148068959","0.0010561182044637465","-0.005517431418518321","0.002308393308963913","-2.1015502651007076","-1.1760904531341256","0.06473808311815651"
"0.06313731327500917","0.09772851031368973","-0.020860341811678253","0.0007912657896605944","-0.0067818102527098705","0.003155132998208553","-2.103389277574737","-1.1763015357682454","0.06075355077967466"
"0.06313635045567605","0.09773058774850668","-0.021944599199254563","0.0010696929738157072","-0.0042564032002038645","0.001031124468466768","-2.103277822273281","-1.1744809480489629","0.06315440311980175"
"0.06313635045567605","0.09773058774850668","-0.021634811374232756","0.0009062180918325187","-0.0032028738365636614","0.00018195789561867558","-2.1035007328761934","-1.1765917743901602","0.0644667819006881"
"0.06313635045567605","0.09773058774850668","-0.021634811374232756","-0.0008091128694716469","-0.008253448611870164","0.0001460400182875758","-2.0996276611505866","-1.1754044345732368","0.06435237777283997"
"0.06313731327500917","0.09757270270242048","-0.021015235724189153","0.0017713448818801826","-0.005102194379464311","-0.0011164248322285079","-2.101215899196339","-1.176235572445083","0.06365451259296641"
"0.06313731327500917","0.09772851031368973","-0.020860341811678253","0.0012276801830821459","-0.005098365104176205","0.0023105775042070206","-2.1028320010674553","-1.1767105083718525","0.06273764522549785"
"0.06313635045567605","0.09772954903109822","-0.021325023549210956","0.0012538669721866378","-0.005521739353217441","-0.0006907494481829079","-2.101856767179713","-1.1745864893660227","0.06647375717208094"
"0.06313538763634292","0.09780849155414133","-0.02178970528674366","0.0004763503956870902","-0.005940327008148545","0.00016278551515139938","-2.0984852443106594","-1.1760772604694931","0.06351232460549802"
"0.0631344248170098","0.09804220297104521","-0.021634811374232756","0.0008148531548466258","-0.005098125774470698","0.0005984111219711553","-2.1026369542899066","-1.1759453338231682","0.06601940935005553"
"0.06313538763634292","0.09788639535977597","-0.021634811374232756","-0.0002786378401857988","-0.0072027912046960406","-0.0017731395353228025","-2.0983737890092033","-1.1759585264878007","0.0652643421062579"
"0.06328077335564507","0.09773058774850668","-0.02131882779271052","0.0007180968201039258","-0.008258953195096817","0.001645368708500641","-2.0998227079281353","-1.175826599841476","0.06150698367878875"
"0.06313635045567605","0.09773058774850668","-0.021634811374232756","0.0011402625194539156","-0.009311764569620502","0.002280241459163862","-2.1004635759115087","-1.1753780492439716","0.06389312691676395"
"0.06313538763634292","0.09788639535977597","-0.021634811374232756","0.0012757213880936955","-0.005944634942847664","-0.0032627606911220576","-2.1051446985726736","-1.1767105083718525","0.06332764365625747"
"0.06313635045567605","0.09772954903109822","-0.02147991746172186","0.0011985088702194213","-0.005939130359621011","0.005730541878192536","-2.102023950131897","-1.175035039963527","0.06406636745321967"
"0.06313635045567605","0.09780745283673287","-0.021325023549210956","0.0021677088919654524","-0.0025731973813757063","0.0027571240872423133","-2.0992375675954893","-1.175747443853681","0.06436545253030834"
"0.06327981053631195","0.09773058774850668","-0.02147372170522142","0.0005322861474139646","-0.005940087678443038","0.0035888170981455466","-2.1006307588636934","-1.1764862330731","0.06629561360157456"
"0.06313538763634292","0.09780849155414133","-0.021634811374232756","0.0011715518814353855","-0.0063644192463063005","-0.0011246762364802469","-2.1064264345394212","-1.1756287098719889","0.06219504279056105"
"0.06320856190566056","0.09780745283673287","-0.021322958297044146","0.0005493268153238729","-0.004676187503662502","0.0016710936746972395","-2.105980613333596","-1.1753252785854418","0.06308085760904224"
"0.0629938531943733","0.09757270270242048","-0.021331219305711392","4.118757674479761e-05","-0.0057258875920146","0.0010202034922512308","-2.10238617986163","-1.175035039963527","0.06449293141562482"
"0.06313635045567605","0.09780641411932436","-0.021015235724189153","0.001919223220352608","-0.005943677624025637","0.0014485484482606287","-2.101940358655805","-1.1760904531341256","0.0647266427053717"
"0.06306413900569154","0.09780745283673287","-0.02132915405354458","0.0011569180875240519","-0.005730434856419227","0.0005930719780435593","-2.1003242567846883","-1.1762883431036129","0.059746794454611146"
"0.06327981053631195","0.09773162646591514","-0.021938403442754127","0.0012353821798775848","-0.006786357517114497","0.0014412677974502707","-2.1051446985726736","-1.1753516639147066","0.06376074499739681"
"0.06299192755570704","0.09788431792495901","-0.021331219305711392","0.0008181265034846872","-0.005517910077929335","0.00016666852891692358","-2.0976771933751013","-1.1752461225976467","0.0644079454920805"
"0.06328077335564507","0.09772954903109822","-0.020854146055177814","0.001516119963071329","-0.00720997109586124","-0.0015590884014982764","-2.101605992751436","-1.1765653890608951","0.06342570433727016"
"0.06306413900569154","0.09780745283673287","-0.02148404796605548","0.001232301381159409","-0.0074153159831859316","0.0016519212942299633","-2.1002685291339604","-1.1752857005915442","0.06105590454613043"
"0.06313635045567605","0.09773058774850668","-0.021944599199254563","7.055143952740804e-05","-0.0013057072610125706","-0.001946419024609324","-2.103110639321096","-1.1755627465488263","0.06469232146701726"
"0.06320759908632743","0.09780849155414133","-0.021632746122065945","0.0008102319567693625","-0.0019387343320776186","0.0014762149213399893","-2.1035843243522856","-1.1760376824755958","0.0633685022733461"
"0.06327981053631195","0.09773058774850668","-0.02147372170522142","0.001271003915056489","-0.002364501878173921","-0.0023818019430687344","-2.101243763021703","-1.1770667103169292","0.06278177253195356"
"0.06313731327500917","0.09772851031368973","-0.020860341811678253","0.0014090622076147299","-0.006363701257189781","0.001016805855206397","-2.0981787422316547","-1.1757078658597837","0.06286512411081435"
"0.06299289037504016","0.09780641411932436","-0.02102143148068959","0.001247609099790344","-0.008258235205980296","-0.0002810914959200956","-2.1019124948304406","-1.174903113317202","0.06559938276638454"
"0.06313635045567605","0.09773058774850668","-0.02178970528674366","0.0013949097885031108","-0.007416273302007958","0.0027219342749922495","-2.101327354497795","-1.175496783225664","0.06233886512271297"
"0.06327981053631195","0.09773058774850668","-0.02162861561773232","0.0010767210458915452","-0.006786596846820003","-5.757551604210386e-05","-2.1019682224811693","-1.1772646002864164","0.06363653480144743"
"0.06313731327500917","0.09772851031368973","-0.021015235724189153","0.0012380778787559883","-0.006363222597778767","0.001016805855206397","-2.1016895842275285","-1.174151131433151","0.06363653480144743"
"0.06313731327500917","0.09757374141982894","-0.021325023549210956","0.00022411000063646928","-0.004675708844251489","-0.00025730803660625935","-2.099711252626679","-1.1760508751402283","0.06304163333663718"
"0.06313635045567605","0.09772954903109822","-0.021325023549210956","0.0017796245284352795","-0.0038387728640947886","-0.0019636498981938384","-2.1011601715456107","-1.1760904531341256","0.06474952353094134"
"0.06313635045567605","0.09772954903109822","-0.021325023549210956","0.000980638635868446","-0.002780935565755465","0.0014701477123313575","-2.1021075416079893","-1.1758397925061086","0.06253662082942187"
"0.06313731327500917","0.09757270270242048","-0.021015235724189153","-0.0002864361119411807","-0.005095493147710125","-0.0006885652529398009","-2.100770077990514","-1.176947976335237","0.06432622825790325"
"0.0631344248170098","0.09804116425363675","-0.02147991746172186","0.0019268289421881038","-0.002994896322478396","0.0008277516224974334","-2.10238617986163","-1.1767368937011173","0.06340445785638409"
"0.06299192755570704","0.09780745283673287","-0.021486113218222296","-0.00011535550812249622","-3.797781094392876e-05","-0.00022357435451826705","-2.1031663669718244","-1.1752065446037496","0.06447168493473873"
"0.06299289037504016","0.09772851031368973","-0.021331219305711392","0.0007283019658578823","-0.0017252522347657006","0.001049326095492663","-2.1033335499240087","-1.1768292423535447","0.060974187311953185"
"0.06306413900569154","0.09772954903109822","-0.02148404796605548","0.00013264878869063347","-0.0023566039978922025","0.0006163700606367051","-2.1024419075123584","-1.174322636073373","0.06383429050815632"
"0.06313731327500917","0.09757270270242048","-0.021015235724189153","0.00018848826545756473","-0.00762233617844917","0.0035766826801282826","-2.0984852443106594","-1.174190709427048","0.06438179597714379"
"0.06313635045567605","0.09780745283673287","-0.02147991746172186","0.00252691076751273","-0.0051036303576973505","0.0005976830568901195","-2.1028320010674553","-1.1765390037316301","0.0627360108808143"
"0.06320856190566056","0.0975747801372374","-0.021630680869899135","-0.0009773052244920416","-0.007200637237346481","-6.145852980762824e-05","-2.100575031212965","-1.1761828017865532","0.06192537591777619"
"0.06327981053631195","0.09788639535977597","-0.02131882779271052","0.001504566967878171","-0.008262543140679417","-0.0002810914959200956","-2.104531694414664","-1.1754572052317667","0.061593603947016615"
"0.06313731327500917","0.09757374141982894","-0.02147991746172186","0.0011544149385655342","-0.005099083093292725","0.0010245718827374456","-2.102358316036266","-1.1760640678048608","0.06427883226208048"
"0.06328077335564507","0.09773058774850668","-0.02131882779271052","0.0010640127511790712","-0.003204070485091195","0.0016810438974713953","-2.1023304522109023","-1.1762487651097155","0.06449783444967545"
"0.06299192755570704","0.09788431792495901","-0.021331219305711392","0.0010087509241717978","-0.009312243229031516","-0.0024298542384170977","-2.099265431420853","-1.1769215910059723","0.06327534462638407"
"0.06306413900569154","0.09772954903109822","-0.021638941878566385","0.0014205189278479451","-0.002150301791745484","0.00018972392314972413","-2.102023950131897","-1.1760508751402283","0.06363163176739679"
"0.06356769351691684","0.09773162646591514","-0.021306436279709646","0.0008026262349338666","-0.0072092531067447195","0.0018667004931355253","-2.100519303562237","-1.1746656453538176","0.0632328516646119"
"0.06327981053631195","0.09773162646591514","-0.021783509530243224","0.0007391810363314395","-0.008050018362189526","-0.0007089510752088027","-2.1037236434791056","-1.1735970395185864","0.06270332398714343"
"0.06299289037504016","0.09772851031368973","-0.021331219305711392","0.0002108240561643373","-0.00467283688778541","0.0012425060303274964","-2.103361413749373","-1.173412342213732","0.062494127867649706"
"0.0631382760943423","0.09757270270242048","-0.020705447899167354","0.000820052002683547","-0.002780935565755465","0.00018487015594281854","-2.0962561382815332","-1.1758661778353736","0.06204468307967494"
"0.06320856190566056","0.09772954903109822","-0.02132089304487733","0.0019210524445915245","-0.004259514486375452","0.0014597121128365111","-2.1039744179073825","-1.175364856579339","0.06401243407866271"
"0.0631344248170098","0.09804220297104521","-0.021944599199254563","0.001426680525284296","-0.008471956632997723","-0.0011387521613802727","-2.099265431420853","-1.1743622140672705","0.06435891515157416"
"0.06335298480562958","0.09757581885464586","-0.0216244851133987","0.0019087292497188225","-0.00720997109586124","0.0027226623400732853","-2.098429516659931","-1.1774624902559037","0.06373622982714364"
"0.06299289037504016","0.09757374141982894","-0.021641007130733192","0.000878587178328882","-0.006359393322490661","0.003157074505091315","-2.104810332668305","-1.1773701416034767","0.06202833963283949"
"0.06313635045567605","0.09773058774850668","-0.021634811374232756","0.0012539632471465806","-0.005943198964614624","-0.0006939043968673965","-2.1024697713377223","-1.1770403249876644","0.06209207907549773"
"0.06328077335564507","0.09773058774850668","-0.02131882779271052","0.0007430320347291589","-0.0017297994991703272","-0.0006640537285449282","-2.1021075416079893","-1.1765126184023653","0.06188288295600401"
"0.0629938531943733","0.09757270270242048","-0.02086653756817869","0.0013908662401855055","-0.006571200111864032","0.0031561037516499336","-2.1015224012753437","-1.176947976335237","0.06452234961992863"
"0.06327981053631195","0.09773058774850668","-0.02162861561773232","0.000561938835076404","-0.005942241645792597","0.0001625428267910541","-2.1039465540820186","-1.1752065446037496","0.06445043845385266"
"0.06327981053631195","0.09780849155414133","-0.02162861561773232","0.002265620526227468","-0.004051058312879173","0.0012473597975344018","-2.10074221416515","-1.1757606365183135","0.06519733397423257"
"0.0629938531943733","0.09757270270242048","-0.021331219305711392","0.00021236445552342512","-0.008254405930692191","0.0007881934197611547","-2.1043366476371155","-1.1760376824755958","0.06378526016765"
"0.06306510182502467","0.09780641411932436","-0.020862407063845068","0.0019400186117002926","-0.004890866249501953","-0.0008994614380798382","-2.1014945374499794","-1.1762751504389803","0.06517772183803003"
"0.06320856190566056","0.09765268394287203","-0.02147578695738823","0.000478083344966064","-0.003413005317998486","0.00018025907709625868","-2.102720545765999","-1.1750614252927922","0.06514013191030851"
"0.06356865633624996","0.09757581885464586","-0.02161622410473145","0.0005672339578732682","-0.0015218219850850615","-2.1414950350658983e-05","-2.102358316036266","-1.1764070770853052","0.06406146441916903"
