"AccX","AccY","AccZ","GyroX","GyroY","GyroZ","MagX","MagY","MagZ"
"-0.17786903753359468","0.24991386859297152","-0.09430359161453607","0.04483885643970938","-0.02597867878438656","-0.6598378245061546","0.4413905271616645","-0.6668386858261697","-0.3301014830017876"
"-0.10300364470776628","-0.03813276535367992","-0.07555165123107332","-0.34524725545958335","0.14746980654071212","-0.3857533622281213","0.5698191872542726","-0.5791421209855734","-0.3535390849919641"
"-0.0464233478255734","-0.026346658104746738","0.09035697370790885","0.051621438207086645","0.07006426195275234","-0.44206587071142034","0.7188270044743496","-0.4704057759365586","-0.34350958091498596"
"-0.018626059113415923","0.09251456658041797","0.08291960135748257","0.17173713805196616","-0.015907895405391927","-0.38839732723749837","0.8144762093350334","-0.3794429300442746","-0.2993290240734142"
"0.06786753758384569","0.03562355638215649","0.04176415743579484","0.2521099926918618","0.02921595565536745","-0.16914356917258336","0.8394146377109621","-0.34167732573344023","-0.26818973659052486"
"0.07338592368219893","0.028289106946048324","0.03344904975725711","0.29817916377454573","-0.005735102140964086","-0.14272365016097252","0.858606753986648","-0.3106168417702213","-0.1971929839225565"
"0.10056220913589331","0.09712731333234771","-0.039964053000501","0.13631393772841688","-0.013079655491711896","-0.029800693853765523","0.8731565294522861","-0.2878268279416531","-0.17383423293007969"
"0.09878462838018678","0.12081299047427917","0.011722443802575666","0.044254806655006855","0.06971419697323775","0.11729452364553174","0.8685141886422381","-0.30169311542523297","-0.1236044332432412"
"0.06845732639280931","0.08458198690954696","0.045294226152485226","-0.10235436308004064","0.10301155414236011","0.20231181045451518","0.840348767264203","-0.34112267423409703","-0.08644332934906752"
"-0.03035612066216323","-0.055394495758790865","0.39526232002496753","0.06737388402777054","-0.08280483778929904","0.3933678790052456","0.7903869896438697","-0.40059364055256186","-0.089650507972897"
"-0.20814705354807822","-0.5905081383172304","-0.26675485143872674","0.24851908985643942","0.3011055644279447","-0.07027506268760972","0.7163926062446903","-0.4589799550500888","-0.02324596884487472"
"0.005653853999880488","-0.048250551502841355","-0.03303568212969386","-0.13851686692852982","0.004435790318145127","-0.3563540498104214","0.7758655211343903","-0.3982517786664461","-0.013492443259845556"
"0.07521771900808874","0.17127445084218607","0.20645712957167833","0.1914871036467894","0.08187143099031657","0.0636516305784171","0.7814419914976795","-0.380971303064687","0.0036490779792216132"
"-0.12802449028023427","-0.10591759015557263","0.1379030959144178","0.5642545024004184","-0.25462655056253586","0.30309817812539525","0.7418971737437953","-0.40175224590674535","0.07948316794085471"
"-0.09278501966109846","0.040769997793207176","0.41505564130618955","-0.23027499585250005","-0.09087850838018513","-0.19005457004525345","0.7789226723995438","-0.37544943924900365","0.055210773866335605"
"0.040119534844582104","0.24397458944684877","-0.2049308303860335","-0.28316688232248655","0.18994013337666232","-0.044157029233039664","0.8046820025040784","-0.3500094238124625","-0.018360635291740597"
"-0.047688354463183404","0.09545478991242543","0.007273551259766979","0.08236695951355186","-0.05845710566206532","0.39240105597942865","0.7566450979025454","-0.404845968714193","-0.004167455705792999"
"-0.07464778163614463","-0.020268702393655576","0.24096792578551987","-0.03327278556176292","0.006841259448872933","0.25771668915847584","0.6800181675805947","-0.47888578108207236","0.011277054930606514"
"-0.01793605549290141","0.09520825379692599","-0.05143695343533964","0.004158996824258808","0.058402821322949806","0.34717741566978555","0.6127608397472165","-0.5382827938672914","0.01060853560228289"
"0.03336407082659206","0.024448186328437822","-0.024123728596487922","-0.1934788032683481","0.2056376172996918","0.3558590918199788","0.5040338211411538","-0.6043232990557544","0.035429458356452115"
"0.013117393161779504","-0.02074636611743573","0.030390436134076142","-0.17037028737451212","0.15748388256103424","0.2651750382147782","0.39374991994635494","-0.6704870601329606","0.02881283115817219"
"0.0031911982209487967","-0.004835681640729345","0.053948561887412115","-0.08313986446685244","0.011376897740013459","0.2580718486373474","0.30546052368696686","-0.7229447663819526","0.009905733231481102"
"0.0141951131023927","-0.03434367335125964","0.023987714668804668","-0.10282751733600218","-0.003396636397718028","0.265313155789895","0.19265730339403267","-0.7826006165335317","-0.03539930740337335"
"0.008954371318008388","-0.0007859057116360835","-0.01618939794689283","-0.013567178178436074","-0.02344743970174266","0.2572628742688067","0.09618719680474246","-0.8265659920481356","-0.056227969860963845"
"0.016552625472484064","-0.01608879461723335","-0.018134017378423056","-0.030426466990744278","-0.033413995589099015","0.25365208623361263","0.0031705388668297196","-0.8608188035297963","-0.06397765161314613"
"-0.012941743572986558","-0.00011003255408791942","0.012122702446952557","-0.020925360547373695","-0.03866338627738556","0.21160515015165393","-0.08780801822764715","-0.8902523097616086","-0.08441034493011415"
"0.014292042182417341","-0.03530880621250458","-0.03501218056829834","-0.016626838623794517","-0.016164820924293583","0.13132332306095765","-0.16321774943476813","-0.9161730231642474","-0.10242779790449764"
"-0.0299289755637495","-0.10694435704569243","-0.0828838228581545","-0.17030691850094584","0.02221465606507579","-0.14221064202482472","-0.15829233906313195","-0.918095815028637","-0.14805338498652268"
"-0.031653984615035845","-0.1390248690750563","0.04594420368561054","-0.21942835699373883","-0.051192861336029676","-0.2635587704141511","-0.06827621847805497","-0.889216960296168","-0.281729824217264"
"-0.07091847635383984","-0.1042702806565537","0.1439636493704255","-0.08397210900635622","-0.08039239903906957","-0.5893781301144724","0.08967659688821182","-0.8237434321959224","-0.3648524890097484"
"-0.09950434063229967","0.16899119022704925","-0.06051892833960831","0.17874996005996757","0.02684945303367158","-0.8120828544490891","0.37594484452245164","-0.6925128874513224","-0.32892214634053973"
"-0.13500666977353623","0.013483912823615541","-0.08483198440158189","-0.26866597175473667","0.12896071475054063","-0.3859309419675571","0.5291703982101941","-0.5934767808463765","-0.3289615718393896"
"-0.05754554904196267","-0.03540545957596743","0.015810040931876","0.032471364615357504","0.08401458898707329","-0.41896077350261046","0.6826507145033655","-0.4908539278790111","-0.3507535877906157"
"-0.04724478070713835","0.07349486557899003","-0.0018544710991645235","0.2228441345831692","0.03259463710923444","-0.47552978605398344","0.7911795844163171","-0.3958359632470846","-0.2896286372042261"
"0.04206140217660161","0.06257303550768839","-0.00343779511718641","0.24096763242312463","0.10474287098674671","-0.21314585549655157","0.8263368239655828","-0.3392984870807016","-0.22317095936036277"
"0.0772055865814759","0.03268193227676551","0.023035240779663537","0.2965738189775334","0.100264890456938","-0.1525674870503621","0.8525773723248176","-0.3011014871592668","-0.1281212240897354"
"0.07387221194808537","0.07666201419912765","0.08194764585290717","0.2548559772130672","-0.025639701835897324","-0.04206356141591352","0.8641549173937788","-0.2714954226832146","-0.05679021175760526"
"0.10705152890025631","0.12797094246406387","0.03270910258194442","0.12139056800355848","0.06324829088102722","0.07061670258073124","0.8659948695441024","-0.2662447218227657","-0.009138496865122473"
"0.08792035708860893","0.10433709393732266","0.0032780490397923017","0.034198166420038575","0.07874619024560041","0.2195567762619446","0.83751807164832","-0.2976503222744648","0.03069839849446956"
"0.01192631548351035","0.06698267011900781","0.2997457306066722","-0.047070301632927136","0.06233432032365205","0.3469603737660307","0.7902737618192345","-0.35407686814097916","0.048028476467166466"
"-0.0817121044176031","-0.37361238761306903","-0.25273517254984396","0.1642807339290008","-0.059678373079285876","0.46027597860821234","0.702635425551499","-0.4492673910171457","0.03328676820156872"
"-0.0921771593287404","-0.2793403389022059","0.14940433324443356","-0.15563702427035253","0.1347882670565775","-0.3443378207752676","0.6992952047247574","-0.41651830137814866","0.14959198980863936"
"0.11537428685627225","0.10418020731836847","0.03761209386996654","-0.01662578247590175","-0.003337553032397241","-0.10708536956442916","0.7283664486998747","-0.3904866576756414","0.14151833330503874"
"-0.03035612066216323","0.08839068973933653","0.3004683214336889","0.21590524292766178","0.09059929541169827","0.208073286445098","0.7015880681736227","-0.39684666153477666","0.18627484526024307"
"-0.16812684355823448","-0.42051028049330236","-0.1450833077719447","-0.05637179612456393","0.042372696469159865","-0.21482299748011163","0.7054661211673819","-0.3647631536949914","0.23020856419597216"
"0.07741587339915651","0.2357660574194244","-0.4322175244898589","-0.164487543611776","-0.25285246559848007","-0.2770350995291102","0.7724403794391719","-0.33237150613334887","0.12873075846069465"
"-0.0514012310878569","0.23425322216522332","0.1985723884886432","-0.0669850262990227","-0.050575099607474534","0.2776450821396013","0.7474736441070844","-0.35757733538127845","0.16249955530165694"
"-0.10183721001594405","-0.026850936522813763","0.009760113811559732","0.11139940893794201","-0.08808907657509384","0.375254745582797","0.6643644208247623","-0.44727064561951024","0.1534659736086686"
"-0.02907468536692194","0.06809208263875527","-0.08165825214174383","-0.024068456676261073","-0.0677884757721124","0.27636256179923185","0.608175112849486","-0.5052132389175628","0.1255595770314672"
"0.01954756975866982","0.036206278109700604","-0.1647668235843554","-0.14576204147294092","0.09876167025078715","0.34445452633177037","0.5391910606904196","-0.5641295537366844","0.09168793106307055"
"0.028382901832782293","-0.002298040579145397","-0.03798047033810223","-0.18309686948240625","0.16880951425121193","0.29558063582261423","0.4336910350864631","-0.6367642489728942","0.08975093916305592"
"-0.011841023511689539","0.02710125111682378","0.1541543052984992","-0.15591162272247308","0.13118940898663572","0.300000398226349","0.3106973105763503","-0.7038647548045466","0.09597331137283734"
"0.015488048457975905","-0.06584426519984642","0.026730017699570972","-0.18488175942118973","-0.00751964153427236","0.3017170023742281","0.1838538400286366","-0.7750450305535899","0.044068785060941945"
"-0.006633139042567864","-0.05036151699180526","0.01544874551836765","-0.12557905524208146","-0.018586922101559412","0.24329326809985932","0.08928029950198844","-0.8245322698838772","-0.030325417116609493"
"0.010326164230221846","-0.04636090820847353","-0.0513731954211911","-0.027124948677941206","-0.023689792379868135","0.21182219205540873","0.006510759693571762","-0.8604367102746934","-0.07276782370453976"
"0.0007811141464372556","-0.023539508244173633","-0.033046308465385275","0.04003232737970721","-0.011341685828710084","0.17899756377481438","-0.06858759499580225","-0.8863081213218348","-0.06977491409619863"
"0.01443825723533591","0.024867017570110155","0.030220414763013393","-0.001866010059633606","-0.019962946751805193","0.19044356453555786","-0.1581224973261788","-0.9128944165236852","-0.06482787106660384"
"-0.00513813119811966","-0.07300221718963112","-0.11032102161340615","-0.10690636049788493","0.03804836436927385","-0.06864132908480063","-0.17621064231167066","-0.9185765129947345","-0.07652181685589544"
"-0.041938324292228844","-0.11431662736315562","0.06267041027509851","-0.3114188384541188","-0.05931246805544937","-0.17464262177044446","-0.11724725263282942","-0.9029106895355078","-0.18148792216332316"
"-0.0544076754343846","-0.16800687038007503","0.18725534097727875","-0.14106218335010867","-0.10592655048601561","-0.3748815359582202","-0.01545543828567966","-0.872232298827392","-0.2895600711192699"
"-0.06388701088764394","0.001932575193760234","-0.03205097502228875","0.06005161068718713","-0.0012821488811840171","-0.880036701406511","0.23644816457174136","-0.7645682800104407","-0.3206770746245485"
"-0.24383009792325908","0.22897230650935477","-0.04234789430727667","-0.13264468464472143","0.05165813045067336","-0.4625861961573317","0.48447371443540255","-0.6332884329103435","-0.2921021587190235"
"-0.10840867306846352","-0.003328169325385647","0.04195684832299929","-0.28950376967911434","0.11875972620721978","-0.431746514741986","0.6442664819519933","-0.5230730171964135","-0.3703463465668695"
"-0.09142144107770067","0.004121773876193703","0.05320960650343063","0.11695474685391902","0.057685267315166516","-0.5694891992976661","0.7582302874474396","-0.42326039849238706","-0.34262336426692613"
"0.005216851706887939","0.08786960204066727","0.04407148912559227","0.2188624570274214","-0.027806619899136915","-0.31300486230593366","0.8258839126670414","-0.3426017448990122","-0.30843974261197843"
"0.07646629698806744","0.024967873253723558","0.07380645586851906","0.31859450254181493","0.031755114760172315","-0.16535717450616955","0.8573046340033419","-0.30344334904538256","-0.2542433949104198"
"0.08500262749329027","0.05690130407781788","0.03359179686671188","0.2517614638872473","-0.027626043393866952","-0.10993059161183341","0.8797803571934524","-0.27069425940638553","-0.19869115287885097"
"0.13445617269502574","0.12173750090740203","-0.009671912056153989","0.09822924471508394","-0.032341624588504564","0.008928460763068222","0.8901407031475835","-0.2523414575725629","-0.1748524392916803"
"0.09754426472902374","0.12461188789038406","-0.015229485622767694","-0.05073619096873631","0.12539670477810708","0.1681711189938802","0.8787046928594168","-0.27495891315689097","-0.14375943391613635"
"0.04077010968678154","0.09384249974799447","0.3068547491842335","-0.0828430869089837","0.09082580804550182","0.26582616392604275","0.8458969306713338","-0.3240763848209495","-0.12655963150485638"
"-0.11389584471731735","-0.3102273920088111","0.15083888856277552","0.2055972394942139","-0.2846592745969091","0.5433241034176748","0.7654202543117825","-0.4162717896006628","-0.14168359569408534"
"-0.13911383418136092","-0.36729489965339607","0.17889595690002674","-0.16065372676101622","0.1368015366898944","-0.314543886714377","0.7577490691927398","-0.41515016101310215","-0.03879332860870864"
"0.10334358087287218","0.09145278035571017","-0.11313345845973584","-0.1560066760328225","-0.018483011410807573","-0.2528447928015262","0.8113907511137212","-0.36609431729341513","-0.056714789064153365"
"-0.06694274120706553","0.11802124912092476","0.3840515358705173","0.3607242419844619","0.09017636622830283","0.20582394307891158","0.7930761504789584","-0.3684115280017822","0.004917550550912615"
"-0.15743178744025899","-0.33135105463228537","-0.26573472321235025","-0.24469141458882823","0.05986802542272803","-0.24426177206213062","0.7959351530510004","-0.34992314469034236","0.02751007554400312"
"0.06687524666291525","0.2596492436084321","-0.4281440958081471","-0.2562245495778908","-0.270387394662853","-0.17427365053406121","0.8376879133852733","-0.32534592047500166","-0.10324030601122942"
"-0.035531147816022325","0.17802617855075012","0.17977085853862051","-0.020119519705189198","-0.06674936886459401","0.33310915409004055","0.8070031729091025","-0.36182966354290963","-0.06176982367755428"
"-0.0754034998871844","-0.09250798655514034","-0.033060476912973834","0.19659885944780248","0.0030150967429115106","0.33018895393043013","0.7144394262697312","-0.4572050702521906","-0.02485727184134705"
"-0.027053960478272205","0.0979733804559935","-0.06386622408240625","-0.014710986346307388","0.007037834398908044","0.29191065454094156","0.6477482375595295","-0.5153202217944832","-0.03282807921751328"
"0.024504095766032654","0.03435305492330429","-0.05686701097365628","-0.1368481532579512","0.14518567214949027","0.3786879538785552","0.5691964342187784","-0.570588162306814","-0.05061754995941717"
"0.03354642892629948","-0.02171149897868067","0.05737392577642303","-0.22751844985236697","0.19675135243509084","0.29386403167473507","0.4610072477797334","-0.6434077413761383","-0.053481898158465296"
"-0.010346015667241365","-0.0062661514199794715","0.06143633849013469","-0.08313880831895967","0.05587791825803467","0.2943967708930424","0.3625556542593254","-0.7001917293200073","-0.06939437232469134"
"0.009092372042111297","-0.06049050932803484","0.02526464600772388","-0.09018331476374422","-0.02426795399761847","0.3026049010714069","0.23874102802060648","-0.7674771189847739","-0.08839574861819727"
"0.003813844345175027","-0.0414483959524706","-0.03564976070978367","0.004680205809341443","-0.02816935691410904","0.23826184214917914","0.14258229794906355","-0.8120217971764696","-0.11894536777046276"
"0.01756134505104582","-0.006938522644068838","0.013238467694551873","0.07550516665421673","-0.03325242713701536","0.24495067900125983","0.06077519465004707","-0.841295070752916","-0.1080313611975487"
"0.005399209806595338","-0.051623613810356336","-0.020578074587450115","0.010118100079642292","-0.0295632808144386","0.11705380444318546","-0.01044510704556707","-0.8670062491446916","-0.10297975488839561"
"0.010906095844606683","0.04589682837688859","0.0339927639334682","0.031976031253647764","-0.014896666975880117","0.12323949870019817","-0.04953701350091015","-0.8821913746378209","-0.09625856441055737"
"-0.010066728487509296","-0.07695099735777264","-0.1221162542308846","-0.08204569524994139","0.006238704162866839","-0.03615015609270233","-0.08395827219004631","-0.8902523097616086","-0.09184119438724976"
"-0.00995172788409018","-0.11802587528271531","0.07338848666465646","-0.26983829591571284","-0.06492934777200463","-0.23214688761617913","-0.016304646970444443","-0.87139415878394","-0.19696842999432473"
"-0.09209501604058389","-0.11912968470892867","0.20029031275875642","-0.15163422375674931","-0.127961636142248","-0.38839732723749837","0.09409248204898919","-0.8301773895883036","-0.29167876314441854"
"-0.06515201752525397","-0.01724723420540399","-0.010745171960987612","0.07134394395669783","0.0384459494817542","-0.7987249118270874","0.31817034700228114","-0.7221312775162491","-0.3231163130968678"
"-0.23170574859136062","0.2797223261942667","-0.0833088762858114","-0.013492191678049313","0.007514778133441263","-0.4587780973005424","0.5422765189117318","-0.595855619499115","-0.2875613697427946"
"-0.12574090686948375","-0.04479064124554816","0.031308197326625285","-0.3363439287235213","0.16014501000711798","-0.4146396665096734","0.6836697649250837","-0.49471183719666484","-0.3316647897387905"
"-0.044172621730085466","0.010654350588906127","0.02857191588608412","0.058524420834239844","0.07244818862320232","-0.48190292559151165","0.7814419914976795","-0.400433407897196","-0.3091888270901257"
"0.005077208117021903","0.08368128962394393","0.03985850123513316","0.2055866780152862","0.0005839667403821821","-0.27433194127325455","0.8358762681911083","-0.3319770872893714","-0.2720654345426779"
"0.08140639433779898","0.02815603347461397","0.09993519848896694","0.3004287587861486","0.03786145184627511","-0.13169792145022707","0.8631924808843785","-0.2994128814834887","-0.20978343127265134"
"0.09029922671362099","0.05444154601635762","0.05652059559928287","0.2753346848539026","-0.010589917325191435","-0.09921464089099259","0.8758456902873748","-0.26895635137511015","-0.14794539340271656"
"0.12079410100883772","0.12243228450562771","-0.01862991304402274","0.11196972880003851","0.013239686952272057","0.04608110191535551","0.8892631875066603","-0.2573949490110231","-0.1183488428313432"
"0.09457067769775866","0.11247698806895454","-0.007217228511435506","-0.0022960734815700777","0.09839734923138284","0.2102239744004868","0.8669856130096614","-0.2894907824396827","-0.09142465542114045"
"0.02619953323358267","0.07479478327889613","0.27709038291256044","-0.06708536034883597","0.0847448150303141","0.3021905483460568","0.8248648622453238","-0.3421456981106633","-0.07010917376036044"
"-0.10011220096465767","-0.282940326497851","0.04464035229627306","0.15999277348434934","-0.1814930659281997","0.49646278328879073","0.7460582962991431","-0.4320115665931352","-0.07685779067218117"
"-0.12381875392662178","-0.3489027451277848","0.14915284329973655","-0.11924216788545366","0.17889962248427932","-0.2782584266230011","0.7365754659859352","-0.4203885362846767","0.03501806184671452"
"0.0655593111866482","0.09584560568642736","-0.15416528267621338","-0.10330278388774924","-0.025503477454728755","-0.21243553653880848","0.7815552193223152","-0.3804043259764695","0.025350243867880637"
"0.03230606527513642","0.11358920213546903","0.2765201028971208","0.2006016599614057","0.052321828307762094","0.15644099065003952","0.759815476992334","-0.38135339631979004","0.06455290294162722"
"-0.1577275032776224","-0.23899806545684393","-0.23812750308603584","0.5212375987278435","-0.278624217710255","0.16678797013449714","0.7524273614348796","-0.3783952549899597","0.09573333007549034"
"-0.06575987785761205","0.08850695393016865","0.3870694152068811","-0.15679878695240096","-0.2323396082015848","-0.14676654889546026","0.7855748070968686","-0.3631978039079562","0.054405122368099496"
"0.04375848250991477","0.28835109023674693","0.061711206373352805","-0.09576294408125496","0.2217627824194133","0.08050986717551967","0.7964729852180179","-0.3515747735994977","0.012956924012035062"
"-0.07510778404982103","0.05812838156178098","-0.014032251801534154","0.13612383110771806","-0.09583961026181262","0.40879758525399823","0.7163076853762139","-0.4424513403696616","0.044034502018463824"
"-0.03477542956498263","0.02860288018395669","0.03538587654261363","-0.02930906252019225","-0.008208841862719396","0.29354833436018263","0.6423416089331929","-0.5060760301387632","0.0570620581601549"
"0.01077795231508256","0.07929686893352784","-0.13510872066959656","-0.140608039756217","0.1032760828825363","0.33967960444916406","0.574603062845115","-0.553862338204398","0.036423666588318006"
"0.03155198988985982","-0.01171838166065247","-0.05136611119739682","-0.22963074563790958","0.14449346221262208","0.29112141125456037","0.4665554111868635","-0.6268174987513396","0.02847000073339084"
"-0.0010753241658994948","0.010397588827707","0.09019651603896837","-0.16224851007910085","0.09826746086794305","0.2768558388532201","0.3751522497500042","-0.6867075350915304","0.009460053679265385"
"0.0058674265490873696","-0.06986868713069798","0.006565128880338844","-0.15250026502882177","-0.012228569910294765","0.2780397037827919","0.24578946010415492","-0.7600078121269522","-0.03625638346532671"
"0.008666869809460659","-0.014368644902271386","-0.03581623996894929","0.030611488176187248","-0.02098748081854742","0.25280364970075286","0.1555468838698074","-0.8048483044516309","-0.06646831464918257"
"0.012808534398311078","-0.04457772369125319","0.008045731653343647","0.028915314660396544","-0.048153156830651925","0.22545636982764405","0.06921066758537843","-0.8340599500837059","-0.0691321070497336"
"-0.007553143869920579","-0.0101411108308095","-0.019975915564936206","0.027221253440391384","-0.02712391398886187","0.13684999917384208","0.007614730983766105","-0.8573553130561201","-0.0688252738195543"
"0.01425261340410223","0.05180669128195741","0.06299274245773831","-0.03217227945749523","-0.029783457430513385","0.18192762947550462","-0.05451903778486405","-0.8806506760285342","-0.06675800635812282"
"0.03211713571237649","-0.08170522222143786","-0.13489973606766528","-0.04745262717011034","-0.017472891784398297","0.001814813712092819","-0.10227287282480904","-0.8970190580535956","-0.08095975670468995"
"-0.06306557800607902","-0.08322085902240597","0.025127566277304534","-0.16031575943532939","-0.033754556542020434","-0.1436154950745833","-0.06465292808972498","-0.8849523065456626","-0.12257079951252545"
"-0.0388497366575447","-0.1714807883712034","0.06985487583606892","-0.12796594947974457","-0.09237222455974284","-0.24499182210203324","0.010643575292760872","-0.8624088044945803","-0.2305212436676748"
"-0.05537696623463121","-0.06891335968313766","0.09746634649665988","-0.0193062858277553","-0.06827159712393117","-0.7194256926279355","0.2023665893565109","-0.7827115468334003","-0.2943665536747043"
"-0.17765546498438778","0.2314936985996899","-0.09780674028080817","0.0463502040742651","0.027945584100748915","-0.7486079631418807","0.4785009466858897","-0.6385021570041696","-0.2671269622737027"
"-0.11223655029655619","-0.03829245351940114","-0.09223854037850304","-0.33678751083848524","0.1452474483223458","-0.39664491958018194","0.6345005820771974","-0.5399590739541953","-0.2874465215504929"
"-0.048641216605798725","-0.01677797512192495","0.05573704502651638","0.04573552600067221","0.037655531270090054","-0.47888407002110356","0.7352167320903116","-0.44662971499804704","-0.2898806175664404"
"-0.011512450359063571","0.08956733938149292","0.06839694257920582","0.19592292479642884","-0.03366902030268203","-0.33658350548657223","0.8104849285166383","-0.3654533866719518","-0.2533468933496166"
