"AccX","AccY","AccZ","GyroX","GyroY","GyroZ","MagX","MagY","MagZ"
"-0.023275369223073487","-0.0767464844437788","-0.018187149056880167","-0.19729149716125247","-0.0367277328612461","-0.13988434743821612","-0.06901219933818463","-0.8915341710045351","-0.09489581347205155"
"-0.06171842808031254","-0.13372994568535257","0.14088555413181025","-0.1333734266907336","-0.0748262074643445","-0.3337027674912808","0.03006214721771732","-0.8589453140209038","-0.18744631494602293"
"-0.05493339247858613","-0.040686375231835985","0.024824007287719576","0.06943126012288901","-0.016638755050405633","-0.724910933468285","0.25014873135261456","-0.7670703745519223","-0.21221409898435106"
"-0.1802840502053955","0.24870920348314468","-0.06031702796147131","-0.010810632178302991","0.026828860976053075","-0.5609061785582704","0.49494728821416945","-0.6374914587164775","-0.17402621796795723"
"-0.09554503414315664","-0.03609744162742606","0.0006214651169368003","-0.3259725564165072","0.12510207995371928","-0.4191975464885249","0.6139214249497286","-0.5601360629414133","-0.19945395057398946"
"-0.04819764284975364","-0.011527876480493816","0.1049047814806553","0.03525325816491709","0.08000547376919359","-0.46057362577705957","0.7217143140025498","-0.47460880174269265","-0.1931372999973932"
"-0.021188929703898535","0.08633435441232988","0.07824613892039518","0.15328623436525163","-0.017226579095192335","-0.3836026742727325","0.816995528433169","-0.37727362640239903","-0.15896224910306503"
"0.057151124210949505","0.017039635980341472","0.02533123771139012","0.2630094389452616","0.049432604223442644","-0.16978680245098407","0.8316868386796015","-0.32357103567710344","-0.13341966830473106"
"0.07220963179579795","0.04104735092314404","0.023397953037930748","0.26970541658543157","-0.03311937076471117","-0.18309147115115523","0.8560874348885124","-0.27890310159666476","-0.07153192002320301"
"0.10038642249923842","0.11625207233753963","-0.04173510894907135","0.11925714926016046","-0.003981767634970005","-0.030305809557049496","0.8926883292018782","-0.24456401099288388","-0.04575278623176992"
"0.10015149269511084","0.11115745954167916","0.011400111619935862","0.03949052351071554","0.05714195379492443","0.1244134980886902","0.8852435997321064","-0.25507773830265595","-0.01191542330585137"
"0.05617854767917663","0.06756819339331897","0.10924386855465261","-0.10420684648396147","0.12375726019078769","0.2308429552571958","0.8482747149886752","-0.3005221844821751","0.024681724539557016"
"-0.054456961407278494","-0.13271858730245148","0.4477847552357693","0.06224522986047312","-0.13294649809035838","0.4346255718008232","0.7664109977773417","-0.38669037630235903","0.013556877255402394"
"-0.21084135339961121","-0.46932723290895734","0.0051128630025111714","-0.02652716897063265","0.247803815284661","-0.2432554868719946","0.7272907843658396","-0.4051048060805531","0.106875318880884"
"0.030541627445534937","0.024408964673699275","-0.08247647998998334","-0.19009913001147993","0.010787172889908124","-0.2839015161206267","0.7712231803243424","-0.36736385294746726","0.09611044354274986"
"0.009149872343820854","0.13673418075136193","0.3164892935444561","0.21161728248301032","0.04210341571568711","0.12578480829877756","0.778384840232526","-0.3557408226390088","0.11592604209511148"
"-0.16581040283222137","-0.3350070731632713","-0.6394664915915595","0.9131212743406331","-0.33075380357371614","0.16271942099320202","0.7503043397229673","-0.3449929091406251","0.17945251980709437"
"0.010800952435766382","0.250740324889248","0.48982962345482917","-0.47764595529739307","-0.19839439321969563","-0.2796593334563277","0.7927081600488938","-0.3116891680022848","0.11131497288180242"
"-0.02718538973932258","0.15583792815580105","0.15364069907341377","0.00960861433616942","0.11560280537385974","0.3227306048741277","0.7824327349632384","-0.3344545306531044","0.10258993857111721"
"-0.04037760181725546","-0.012449585366849656","-0.0080531669191607","0.17107176487952025","-0.08157565034991751","0.3394231003810902","0.7263000409002803","-0.41515016101310215","0.09292212059228333"
"-0.022831795467028435","0.033680683699214925","-0.05022555116651752","0.049397190744910294","-0.056755884901890374","0.251915751003574","0.6770176302277586","-0.4584129779618713","0.09751604828435335"
"0.003067983288714051","0.08003507650664264","-0.12833974483416072","-0.10552280675835453","0.09005439788702398","0.3446912993176848","0.5971920138598603","-0.5229990636631677","0.10272707074102974"
"0.030272197460381636","-0.0007870263303428988","-0.019951120781656215","-0.2746860147435331","0.2206539793168784","0.30469639578031715","0.47397183370047696","-0.608637255161757","0.10565827087291026"
"0.0022153359576496494","-0.01794341857701318","0.05880950830721517","-0.1774570397350075","0.05994405763547328","0.24952829006227084","0.36883979852658544","-0.6769456687030901","0.07634626955410542"
"-0.0020347577715673234","-0.03897743170394218","-0.0015463073641132875","-0.09408683737542693","0.00215783354420883","0.2965277277662717","0.279050133590779","-0.7321643068599238","0.04031479190958629"
"0.0028823394574803707","-0.04319235881495239","0.005746901032099353","-0.10117887047538619","-0.014020870925320785","0.23072456876423864","0.18824141823325496","-0.7817994532567026","-0.0062930043394373355"
"0.005670282657511777","0.006444466262076584","-0.033499698788219276","0.08428069949525345","-0.011137982858730106","0.2395049003252295","0.0986499019905607","-0.8173341259812898","0.001352114133186625"
"0.00362655764817822","-0.03194695009205775","-0.033304882633876536","0.034256254554141","-0.022227756288954292","0.16827963994575765","0.01687110564770324","-0.8440190258941348","0.015099614166918457"
"0.0003506833164972395","0.041115988818936494","0.029511992383585258","-0.02060323544007845","0.01201525152618711","0.16380068429554429","-0.048772725684621786","-0.8645781081364557","0.020602042484659047"
"0.02447780991382258","-0.0011470250899074134","-0.04556413190988041","-0.07195420213451165","-0.030575459646609727","0.13144565577034673","-0.11653957872885877","-0.8936911490575364","-0.00013919821461221005"
"-0.02508252156251637","-0.043604186189707135","-0.07041204686832221","-0.1102226648811868","0.02259956914209861","-0.08447946873425548","-0.117162331764353","-0.8975613839640646","-0.0435295309270629"
"-0.028926827448240246","-0.07833636223407343","0.013344731051466089","-0.22545896146146296","-0.044109193515264","-0.1133697192322395","-0.07390930275366211","-0.8897716117955113","-0.12941369479116108"
"-0.03842259155913091","-0.16936562056208895","0.11397258793733542","-0.14578316443079636","-0.09908206733451103","-0.3077169322871796","0.014465014374202707","-0.8594260119870013","-0.25405140987254227"
"-0.03259041810001985","-0.05370516305826633","-0.007787508526875154","0.037772170889176636","-0.047415010765250135","-0.700681164576382","0.21954891174492025","-0.7773868924397056","-0.28683971169862993"
"-0.21933496939499272","0.22793573420555036","-0.05552809267653711","0.02803448731782528","0.0492472757048761","-0.5638855719643594","0.4504487531324901","-0.6619207758653267","-0.2516653101160641"
"-0.09699075601471092","-0.012389352111358318","-0.04001364256706097","-0.27933306547172676","0.09999560970346524","-0.42622181173731766","0.5716308324484379","-0.5764551426109775","-0.2812481474704462"
"-0.05655982958408474","0.0004600822130045223","0.07854296789737555","0.06018679761746186","0.06688358105290942","-0.457909929685523","0.6799615536682767","-0.490767648756891","-0.2680748883982231"
"-0.030060404824799873","0.08783458270607929","0.07057888350784448","0.12709376662452349","0.0055412670113724","-0.40804948506839034","0.8158632501868159","-0.36807873710217626","-0.20780529972166298"
"0.05297167370954712","0.01953707484581841","0.04085985626845483","0.24824449140431887","0.06327997096967107","-0.16957567987187708","0.8612959148217368","-0.3152882399535784","-0.16523433172443971"
"0.06935433109947822","0.03068583020525021","0.027245394980604937","0.2823369453829763","0.012919718056969131","-0.1507956358724363","0.8597956461453191","-0.28946613126193405","-0.11554963241300356"
"0.10629252491769033","0.11840926334815965","-0.03589770854258352","0.11713429199569014","0.02398557302026721","-0.0200969476477086","0.8738358964000983","-0.2615486724616599","-0.08936424456820459"
"0.1003913510965278","0.11336367762072239","-0.0022795245268214044","0.031002262896512624","0.08970433290750938","0.12133347616358753","0.8600787157069074","-0.2748233316792737","-0.047580072395854475"
"0.06466394934574242","0.07973250945580242","0.05757040672335743","-0.07357116455834449","0.09232427623835608","0.20789570670566224","0.8304130256524539","-0.31643451971888764","0.014362528753638594"
"-0.0503662256570851","-0.1074444331436089","0.3870552467592926","0.10787187497608587","-0.13673385268773108","0.42971253234310014","0.7716194777105662","-0.3882310749116457","0.021716241365198383"
"-0.1988648619863944","-0.4755186512641136","-0.1759386445079371","0.17263486376082177","0.25881264608840016","-0.13527713975396585","0.7171852010171373","-0.426243190999966","0.07111810557618994"
"0.0176221310842816","-0.03919595235177123","-0.0581917608231869","-0.11245113693493423","0.02178855887281596","-0.26513725698691354","0.7625046378274228","-0.37581920691523246","0.0844542091001842"
"0.0705306229858792","0.15169163894058327","0.21066870061737858","0.07946466510421635","0.10460981461444253","0.043044488371003824","0.775072926361943","-0.3543480310962136","0.10279563682598604"
"-0.1491188866788219","-0.11373390563561152","-0.0012735647480334544","0.8124070112859623","-0.38224978766430023","0.3253548388013452","0.7326691060360169","-0.36105315144382916","0.19313145375586988"
"-0.09917576747967369","0.10885038577902252","0.6603114690642097","-0.5292176569014154","0.0785323496472544","-0.2357379445692136","0.7349053555725642","-0.3505887264895542","0.18958315885938304"
"0.03022948295054026","0.23359485867496915","-0.034176242160573155","-0.05281363387381745","0.16125381310965284","0.15563990871436262","0.7652787195309884","-0.3542864031518422","0.11302912500570914"
"-0.02748110557668597","0.04777946780433881","-0.02484631942350462","0.16902283796754394","-0.12362621601133665","0.37432738472129906","0.7086931141694885","-0.41480504452462186","0.11083501028710853"
"-0.0439754778385099","0.019472639270176513","0.06431465861775121","-0.02408746733833096","-0.04945204046504992","0.2788486781513327","0.6514564488163362","-0.4664985642634077","0.11770876030397448"
"-0.010214586406190988","0.07605688009744721","-0.09493054542032994","-0.08093885225831707","0.06956688456104382","0.3485783225031122","0.5907663348118061","-0.5346097683827521","0.08498559625859524"
"0.0425936906838557","0.008978045080848325","-0.011446510116621466","-0.22726497435810183","0.22610295456362126","0.31087222449625007","0.47751020322033083","-0.6135181883559773","0.07773473277446986"
"0.0017126190341319122","-0.019939520648528487","0.05936051923393438","-0.17033860293772898","0.12326146680351135","0.22969855249194304","0.36416915076037853","-0.6764033427926212","0.08937382569579645"
"0.004679634602344466","-0.0072501947219019295","0.029922877363653573","-0.07278222208244434","0.03316171069595942","0.2941402668249685","0.2743794858245724","-0.7296375611406937","0.06328443036993626"
"0.0026539811164053248","-0.03569962198650652","0.028332114910647698","-0.13786205523501163","-0.020666403120141966","0.23603222986515224","0.17394640537304623","-0.7851643390193845","0.014859632869571563"
"0.01008630582880489","0.0019114235156690892","-0.02828925218752535","0.07537842890708418","-0.03586761845456548","0.24966640763738754","0.09256390641641246","-0.8217590123871613","-0.010818365946551046"
"0.0058460692941666725","-0.03042290865078852","-0.013582403590597291","0.013263202889525936","-0.027467642950647686","0.2197146249192208","-0.008944838369149036","-0.8548778696923871","0.005620352921714309"
"-0.008818150507530612","0.014367940905954705","0.022170611265571502","-0.03945547532604609","-0.019904655388700503","0.17779002154665116","-0.08950643559717704","-0.8838676547247247","0.0074887787367726895"
"0.019621498718010666","-0.025825570406077483","-0.04797276799993607","-0.0228348759375042","-0.04347717574681913","0.12294945179245308","-0.15829233906313195","-0.9082230183403281","-0.01738356858111379"
"-0.04413976441482288","-0.09416089914769336","-0.08251190110895475","-0.11952732781650191","-0.0035220895487476887","-0.13752253690372038","-0.13887376713817487","-0.9068055756197845","-0.05788041250840993"
"-0.018100342069214393","-0.1487742518243521","0.06781426517212619","-0.18188229940571926","-0.06385539276697798","-0.25722509304094193","-0.049027488290051345","-0.8819078860937122","-0.1684055131536671"
"-0.05744697709617487","-0.07888126308026253","0.10522002943950082","-0.04858798615483948","-0.06530000480913771","-0.5873063664877217","0.1214086947422595","-0.8169766839039355","-0.24690853797222295"
"-0.10648652012560161","0.17768999293870544","-0.06864099091975188","0.11720822234818414","0.07721287395523789","-0.7930818223294618","0.37571838887318076","-0.703421033605072","-0.21678060024243853"
"-0.11251583747628821","-0.000524101166256287","-0.10817450180373891","-0.32160010414043405","0.10084780408798491","-0.4159616490143619","0.5282928825692703","-0.6092535346054717","-0.24621773466628857"
"-0.05463767664122277","-0.022787292937223657","0.08692077095649267","-0.054753777552838306","0.10127390128024474","-0.4506686225329755","0.6411244098183635","-0.5200532479222117","-0.2678503344699913"
"-0.05790697950985125","0.07585096641006986","0.03985106280014916","0.12165460497675129","0.01852709374693123","-0.49395861679098463","0.8000113547378714","-0.38596316655877577","-0.1910151796679967"
"0.029411335800501575","0.05079953521920688","0.048152002031098325","0.22959291961797776","0.06838680125906028","-0.2018202143369813","0.856738494880165","-0.31666870590749924","-0.14820251622130257"
"0.07292427840275945","0.030352446139972566","0.031077251630931717","0.3040830304951373","0.043083914459214376","-0.17047147100191978","0.8561723557569885","-0.28722287408681274","-0.0959294472027673"
"0.10532159125168056","0.11647479530551921","0.004269840370991691","0.18574165911011356","0.0008130137812772433","-0.05378974354332228","0.8738358964000983","-0.25020913069731016","-0.052599109814653336"
"0.11322541843809837","0.1266682232173907","0.02499969603781775","0.07807054988575822","0.009643363289421787","0.09913995495054803","0.8656834930263552","-0.25459704033655856","-0.038656196438796114"
"0.08520962857944464","0.09156344145300822","-0.006951570119149954","-0.09004707168557673","0.17379912821261886","0.24992291170546146","0.8349704455940258","-0.29967171884984883","0.019796390986422892"
"-0.023932515528325454","-0.027619961110365975","0.5441301988379956","0.15330735732310705","-0.02732825056061473","0.4366578732632548","0.7676848108044889","-0.3729719958852707","0.060524645450446404"
"-0.24039650847831764","-0.5775509845196749","-0.42155576767946545","0.3277513047721421","0.3352250198973751","-0.11849190816085355","0.701531454261305","-0.4222250490269464","0.10444122286493646"
"-0.004530270865761594","-0.06636955521866625","0.059345748627323294","-0.18870501479302182","-0.007999911678113182","-0.32628388059929747","0.7531916492511683","-0.3707903666545208","0.11256630393225434"
"0.06636924400787124","0.1634301198944768","0.20662715094274106","0.04475014001671659","0.08101131658363595","0.051947152641383824","0.7725253003076483","-0.3469526777716377","0.10788666863398898"
"-0.17760617901149386","-0.16584967936945497","-0.21115077887741251","0.9912550954478536","-0.4323201677659109","0.3535505552073138","0.735329959914947","-0.3581689636472445","0.1882289786814967"
"-0.03270541870343897","0.1810098258576467","0.948958167562203","-0.7121319104504763","0.0919583712145196","-0.32545517514859723","0.7336032355892581","-0.34408081556392744","0.18649768503635097"
"0.012744462633549017","0.20294593704356223","0.0819182463241609","0.0715625665705015","0.24162619799910953","0.28756981646584495","0.7683924847084596","-0.34009965035753065","0.12427396293853721"
"-0.042529755966955594","0.03555211693959699","-0.06807425301620937","0.13188867805770516","-0.186625240288504","0.39403873579866966","0.7110708984868305","-0.42085690866189984","0.09216789365776443"
"-0.050185510423140824","0.0024806978187314186","0.036457365391498686","0.05237975239409644","-0.06725149826959909","0.2737580589541739","0.6580236626451843","-0.47075089242503887","0.09131081759581107"
"-0.008276004805697732","0.07696598202335139","-0.1530601437643055","-0.07654633317228123","0.0750301158476764","0.3419881410618291","0.584170814026799","-0.5336113956839342","0.07308938051868269"
"0.028984190702087825","0.012448601215856269","0.0907359796809029","-0.1781540973442366","0.1999827214767639","0.3287091227684653","0.47289616936644163","-0.6097465581604434","0.07711763800986345"
"0.0027426958676143357","-0.006506804287268125","0.10341001026006193","-0.12539951010031034","0.15764228300425354","0.26937775871475816","0.35646965868517716","-0.6773893899025647","0.089253835047123"
"0.006626430531653354","-0.012766160151525065","0.002969885304741066","-0.10669513091933067","0.02284667383352067","0.31704805321218305","0.25014873135261456","-0.7381052406973332","0.05838195529556301"
"0.00459749131418796","-0.05395169917376577","0.0571171580849993","-0.14246686004749448","-0.03422975787167824","0.23360530675953003","0.15175375174452427","-0.793545739453904","-0.0037560591960554045"
"0.006664216444205341","0.011222084041246584","-0.017503521460732006","0.08877566492688808","-0.03036003504383152","0.2689436749072485","0.06080350160620609","-0.8316441346643444","-0.02050332544662399"
"0.004359275778534129","-0.03459581256029314","-0.017900237993211766","0.01965500993657782","-0.025365669069127995","0.20686969043336667","-0.0337983458766011","-0.8649108990360617","-0.0016990766473673586"
"-0.011479593043800963","0.03109625680662142","0.03859113359833622","-0.057131166459466504","-0.012527313146206304","0.18347060010037988","-0.11416179441151725","-0.8924462645812329","-0.004081748099597649"
"0.00803108075912939","-0.0324386215496731","-0.07542767731467341","-0.08804883987245342","-0.025920070620395433","0.07937730305956264","-0.17875826836596534","-0.9160620928643787","-0.046200179936109566"
"-0.04254618462458691","-0.09603933625499303","-0.09040372641578415","-0.17951652812591157","-0.0072601816082792","-0.145852999791474","-0.1480735278897946","-0.9122288347244736","-0.11205276208023386"
"-0.015307470271893607","-0.1620395757662819","0.03819335443228733","-0.16918740173460828","-0.04288159008031468","-0.2637363501535869","-0.05644391080366447","-0.883584166180616","-0.24083015454084977"
"-0.03521900332102765","-0.09356837200646462","0.06915460031400421","0.0190487810461271","-0.0459719827275226","-0.5972113697318059","0.11968197041657093","-0.8163973812268437","-0.2953213364077203"
"-0.15815464837603616","0.18313900140059633","-0.08159803623949245","0.2299308869436646","0.04206223160045009","-0.7850512718905328","0.37283107934498044","-0.7000068454868928","-0.2340044007834532"
"-0.1144051331038876","0.029377507865042982","-0.08687224085433491","-0.3005299536796467","0.10112975687691521","-0.4317662458241456","0.5256037217341815","-0.6072567892078363","-0.237444704096134"
"-0.04824692882264757","-0.022369862468934843","0.06916558086088535","-0.05893295476453432","0.10295294597836897","-0.4499583035752324","0.646842414962447","-0.5168732459926441","-0.2656047951876735"
"-0.05470339127174799","0.0766438041451419","0.06325592137169586","0.1198591535590401","0.05194483525290024","-0.48869041785439005","0.8064087268297669","-0.38079874482044684","-0.17593578343398933"
"0.04366976775870576","0.039418251478110844","0.06605560661519584","0.24581535125094486","0.07214722778108572","-0.21782212196836023","0.8583236844250598","-0.31299568042295983","-0.12452493293377913"
"0.06243786623670145","0.019108438190461437","0.020563555097838776","0.3324828473317575","0.03914449543635118","-0.1973412586867679","0.8620035887257075","-0.27400984281357044","-0.07751602508776137"
"0.0910319448439769","0.11616102206761086","-0.03038264031873548","0.19186731688818706","-0.05012365834429962","-0.08343569448801634","0.8790726832894817","-0.232842375973431","-0.04140055398917077"
"0.11447728214960334","0.14091689007455122","0.006887461062978649","0.06116373441827531","0.06505247192929468","0.08181606481448057","0.8786480789470994","-0.22979795552148058","-0.02240603430416047"
"0.08115175014451385","0.08862461889438429","0.011665770012221416","-0.07036469955589085","0.14610281071572984","0.23356584459521096","0.8458120098028576","-0.2708668176506256","0.05322235740260382"
"-0.020646784002065686","-0.01771929483565006","0.4106988436727066","0.06198647362674414","-0.003786935089810305","0.4040423944535515","0.7915192678902226","-0.3408638368677368","0.0803573855240471"
"-0.1760290278788892","-0.5499277333966701","-0.5364972987416803","0.4808716262661246","0.2780266198508974","0.07251877890090996","0.728507983480669","-0.4025657347724488","0.08870530636747283"
"-0.021583217487049694","-0.11439226912586567","0.10760741285817362","-0.19272893826448045","0.029204867624342098","-0.2915571759985244","0.7611742108879582","-0.3572075677150497","0.12123991367922228"
"0.09312495582620436","0.16775850964955208","0.023225097977350277","-0.026849294077927896","0.10374336419003315","-0.02515007778876427","0.7817533680154267","-0.32686196790653976","0.11620030643493659"
"-0.1273344866597197","0.005019137321143973","0.3151716279187198","0.4318980484783196","-0.10477181125494715","0.31568660854317543","0.731848204307411","-0.355666869105763","0.19052594252753174"
"-0.0984693352015278","-0.10213830356683698","0.39592115283783563","-0.6554695760032963","0.2674613102881722","-0.22419526150588848","0.730036559113246","-0.346250119205803","0.20247358283116149"
"0.047875504112318244","0.2633612930747588","-0.35081979309356637","-0.122357804169129","-0.051614206514992926","-0.010314079802191959","0.7670337508128356","-0.3405187203792566","0.1127205776234059"
"-0.0035116940926210815","0.07791990869752817","0.051899910629462864","0.08646903792907557","-0.05755739114457988","0.3076560581042467","0.7353865738272647","-0.3854824685926783","0.12302263188808528"
"-0.064659157796315","0.013278139213576524","0.063254504526937","0.03236152523450929","-0.011984633227737095","0.29901384411837245","0.6742718554803524","-0.4418104097481983","0.13327326158904743"
"-0.015882473288989066","0.06662547290621035","-0.068215937492095","-0.03612966561170928","0.03318230275357792","0.34739445757354037","0.6197526579184476","-0.5025878884873383","0.09561333942681689"
"0.018011490270143374","0.02951898597677845","-0.04050953823266067","-0.1741829812674165","0.12363212384064445","0.32417097387177335","0.5207915391871805","-0.579376307174185","0.0885681741975603"
"0.020178430211711708","-0.012140014449091843","0.04050777034587904","-0.1934048729158541","0.1355501731884622","0.2626297286161989","0.40396873111969256","-0.6509756529449544","0.09947018170560701"
"-0.009590297416201604","-0.004283496772945955","0.04423973944070645","-0.12738506813872036","0.04657664423219924","0.28030877823113787","0.310414241014762","-0.7066010355346397","0.07204374772309954"
"0.008491083172805763","-0.07298820945579594","0.04125480174498601","-0.1123243991878017","-0.029507840659311856","0.2606368893180863","0.21006608143171257","-0.7634220002451313","0.030304143505971052"
"0.010802595301529508","-0.006966257957062524","-0.04181657752270558","0.04331905962201149","-0.021693946795305355","0.23315149186986084","0.1260227285961484","-0.8059452818614431","-0.013029622186390732"
"0.002915196772742979","-0.017846765213550334","-0.019954662893553347","0.048819477847564394","-0.04515938845380775","0.20158176041461257","0.0444703879025618","-0.8364264631475703","0.0017292276004460753"
"-0.0009274662472178005","0.02292274411378507","0.017223343578835128","-0.004941512723383621","-0.004049404624224632","0.18199866137127893","-0.031279026778465446","-0.8637892704485012","0.025830206462574522"
"0.03467836343709597","-0.005604426073604854","-0.03617399327056049","-0.05753250265871959","-0.03609254708393684","0.13771224746421354","-0.10595277712545675","-0.8898578909176313","-0.00865853427042859"
"-0.05841626789642149","-0.03614786946923277","-0.07628486839378143","-0.0934035096888039","-0.0027901211006314502","-0.03443947126947107","-0.11835122392302376","-0.8992006872843455","-0.044150053995917135"
"-0.015208898326105781","-0.10215931516758978","0.01929193692676528","-0.24059356076487565","-0.05552352945364447","-0.11862607951953835","-0.08172202265349893","-0.8908932403830719","-0.1426178086016145"
"-0.04663692037478028","-0.1608209029226199","0.15823481820400523","-0.13439789014672177","-0.11902943514911349","-0.3519737495710057","0.01687110564770324","-0.8570225221565141","-0.23922570815287308"
"-0.02296322472807881","-0.030474737265978737","-0.04426417684362978","0.06496797912803752","-0.020711864047345895","-0.7604268813554392","0.21518964049646028","-0.7783482883719005","-0.26518825622156417"
