"AccX","AccY","AccZ","GyroX","GyroY","GyroZ","MagX","MagY","MagZ"
"-0.053834644687227165","-0.032395774313961324","0.056855097225457785","-0.0236560273385815","0.06317737395305091","0.08932406222239937","0.8151235187093531","-0.527605023124438","-0.6440690344117405"
"-0.025219654106699994","-0.043014582380666924","0.056446177296429006","0.07501810460618279","-0.0389326449013546","-0.053879058566532856","0.8303093035327745","-0.5220904893080602","-0.6307164383471806"
"0.04023954389458869","0.0005813220981449628","0.007521592615952515","0.026972085846636074","0.049504467877456895","-0.0493844701329385","0.8268820530129936","-0.5280008030634125","-0.62978486187756"
"0.00922328189724341","0.011224124536986029","-0.04322495752608554","0.07762715602063767","0.10444738837061494","-0.06216201230511685","0.8410090124725804","-0.5279084544109851","-0.6053187219648968"
"-0.004470897477818427","0.0022634210694080993","0.01748168424083681","0.02351003828708633","-0.007192978686770268","-0.024215260281530763","0.8601235966723364","-0.5283174270145921","-0.5824705832889425"
"-0.0015150421251193024","0.0013093591297358806","0.022058076517275548","-0.001569203678221514","-0.022440434894892433","-0.0018042036454469967","0.8584239033251281","-0.5283174270145921","-0.5842356755471707"
"-0.0006745008472996373","-0.008958154709427917","-0.009903766016307162","-0.05731086508585079","-0.0299498830645741","0.012095044128247186","0.8624084303521908","-0.5217079020337182","-0.5864747277636269"
"-0.004374615544505754","-0.02089094029783777","-0.009175971152722607","-0.07448246694128162","-0.03193703760939568","0.0052170133077019485","0.8560833419945455","-0.5105337150900054","-0.6050081964750232"
"0.011476279136760015","-0.04041778885951228","0.018602083541332325","0.012035025811481938","-0.024131059934591297","-0.023960437503168234","0.8469718711004925","-0.502816006280003","-0.628902315748446"
"0.010906290091548972","-0.028413331769918556","-0.011130938853826862","0.0949662763063693","0.02167042312703533","-0.04678285091003723","0.8566127546764633","-0.5087527053646203","-0.6121666261889487"
"0.007366003403641901","-0.027278013642469744","-0.02884254143640668","0.08359812903630162","0.02257748271090548","-0.06225423388204806","0.8702381652794965","-0.5165099921685201","-0.5816860978408411"
"0.012186839804607547","-0.03694016297598197","-0.01946216609474652","0.01737828608831761","0.01653416831715746","-0.09573309319167776","0.8894920686060732","-0.5117078622422964","-0.5596061011661528"
"0.022907833078973976","-0.05234953573051366","-0.023784738879884065","-0.018509167980029516","0.050217670399866673","-0.149828328712638","0.9170493918911446","-0.48359429391047576","-0.5515324384294423"
"0.026902570492116876","-0.03718426156697051","-0.011215614192666153","0.012906314198965952","0.1320971492477964","-0.20747652182905293","0.9443838045733038","-0.45296092663385085","-0.5329172524838688"
"0.01287525562779318","0.024290150818027767","0.017456901214835063","-0.06793865791395691","0.25479909596399275","-0.2148178447294973","1.0041517099792476","-0.40658871045067413","-0.48746612683449203"
"-0.016794984941840885","0.04736837419923338","0.0396474161715801","-0.0947040595277062","0.19352351146312918","-0.12387280857371158","1.0422136954265757","-0.36377851371826764","-0.4423582135686596"
"-0.07420790177618931","0.10815723309464682","0.14172663502059746","-0.11854173960958933","-0.043491875791255984","0.07261982237983458","1.0594614033269394","-0.34008448803832875","-0.4261455143078968"
"-0.1499914114865962","0.03035626048344503","0.12344295758781072","-0.022495914071268528","-0.3877293644096684","0.06469604741456159","1.0172755717257274","-0.3543325658414101","-0.5009658139205707"
"-0.12661415807827858","0.035985070119899855","-0.05603778196898727","0.1118538670299683","-0.10257280689262373","0.20224938317465602","0.9800773648646854","-0.39111371483677193","-0.5407947938585539"
"-0.015004140982225139","-0.09110096608800028","0.014748116472844427","0.1370201415590646","-0.25403979091366247","0.20805206187051137","0.920476642410926","-0.45520367962137287","-0.5769628417053969"
"0.03552461762026697","-0.05114566225410636","-0.03859466216809301","-0.03381014736376813","-0.019300668488350898","0.051595729723124026","0.9116159459451497","-0.48366025723363815","-0.5712916656534971"
"0.12271175951222715","-0.04734499525654442","-0.06766102116380528","-0.11722277265837043","-0.029373577133714125","0.06641185412220264","0.8903001195416315","-0.48348875259341584","-0.6149286687041393"
"0.0959784067544296","-0.001061721098560007","-0.012221391997903603","0.07890568748868053","0.026978755995172486","-0.08693078636195489","0.9038419386685725","-0.4713778864607967","-0.6043544586016054"
"0.08646594430700388","0.035828223791222115","0.040089380135277866","-0.04413852506645158","0.010131620035443977","0.026625524327199415","0.9159348388765818","-0.46186597526077666","-0.5939763698610968"
"0.09787824186255531","-0.03328387769819622","-0.005536790309583162","0.03262246324568987","-0.046064670125452296","-0.02830213226974507","0.9074642359659026","-0.4587129284136133","-0.6050081964750232"
"0.05595564386921671","-0.011499896207934087","0.03749542341376198","0.047017495256365","-0.033167192295699775","-0.0677899553815236","0.9074085083151742","-0.46186597526077666","-0.6001868796585665"
"-0.05206305711427395","0.026451721745036898","-0.05523852938043102","0.07167447524736292","-0.021803578548539277","-0.056153048502968025","0.9177181236998826","-0.4688976655098899","-0.5754102142560296"
"-0.19651484166328098","0.015623092761822006","-0.013475000063158495","-0.04951163058086956","0.026270340066872844","0.06950613071660482","0.9353001975046149","-0.46591612330294885","-0.5433770584585544"
"-0.0630199411252564","-0.043098718490752336","0.2129096814541071","-0.11439228883604666","-0.11713601947270243","0.08309667889593982","0.9130091372133537","-0.4537788718410648","-0.5890243054699565"
"-0.02198458114739411","0.04744939415709341","0.052575894735823296","-0.046074614510905006","-0.007024011914682584","0.07559760856127103","0.9163249324316786","-0.46578419665662407","-0.5770118720459034"
"0.04352083218188467","-0.012793099381469103","-0.030077562232160265","-0.031179915458125783","-0.11856003122046689","0.11970621805402346","0.892055540539568","-0.47264438226551503","-0.6043381151547699"
"0.08606512261862323","-0.0222734731685005","-0.011459313948349972","0.03310287529580536","-0.04622023443403161","0.10879009560569333","0.8452164501025556","-0.5007975285912332","-0.6456380053079432"
"0.06431099004209069","-0.0008756868107044887","-0.027254362520128243","0.012702211283886822","-0.03415083738533205","0.09166357801612778","0.8198046413705182","-0.5240693890029327","-0.6531396474054131"
"0.01876097021119704","0.00961754032131807","0.004785959595793322","-0.021621737434986223","-7.60312341194843e-05","0.03818234404684107","0.8268820530129936","-0.5312593912276358","-0.6336092284370546"
"-0.007503778377167701","-0.0018507308420276363","0.027224098287339116","-0.02627663174822955","-0.013584517802030446","0.08540707208642676","0.8124207276490378","-0.533317446910303","-0.6463571169687029"
"-0.05944788139935615","-0.02383051056378483","0.05546311726502649","0.021594166584220927","0.054980331539448694","0.10682431988689667","0.8043959459441836","-0.5533307191577793","-0.6350311083117385"
"-0.025383333393331552","0.007448906115931398","-0.0033054918685594607","0.05615687720375258","0.029190162474053784","0.05552242739351045","0.8025569334701549","-0.571497018356708","-0.6123790909978096"
"0.03652883818471818","-0.023080556594875366","0.016054388468353026","-0.03880392953601077","-0.060127683621022124","-0.011458346619981755","0.7902689864845971","-0.5719851469481099","-0.6251433229762933"
"0.016842071280275418","-0.01479055295794126","-0.008991544134226297","0.07752991831109526","-0.005245552873062786","-0.009839372568118473","0.7878169698525581","-0.5772226348072055","-0.6194558034775579"
"-0.0050485890776944846","-0.0020141210903786874","0.024843482114654907","0.08383111443936363","0.0072630141852414575","-0.05828142542319602","0.7967612577944267","-0.5880933904643713","-0.5915902266231216"
"-0.009949339483309672","0.007214986955545787","-0.002747460733086856","0.026584097758065844","0.046376428626485194","-0.030619806111042383","0.8101080301438193","-0.5888849503423202","-0.5677614811370407"
"-0.0014476447718004327","0.005467760402772093","-0.004299910786879446","-0.07235190207774336","-0.01361251937757472","-0.0004364120465410673","0.8199718243227029","-0.5749007258318886","-0.5802151876256508"
"-0.0017557469584009776","-0.015524926165723795","0.02087902405524257","-0.06652149050359617","-0.0015234972930236088","0.012148435567523147","0.8180770841979453","-0.5631724469736115","-0.6016904767674276"
"0.007689510699572489","-0.016022471804377027","0.011807156082260786","0.021331335943576578","0.011012353351708389","0.0008248393621732901","0.8203897817031639","-0.5659824845403303","-0.5955453407572998"
"0.00617018179189847","-0.013653157395675524","-0.007212329392517747","0.06719191311241754","0.011064527227508838","-0.008227436478705203","0.8194145478154211","-0.5756131297220426","-0.5789077118788151"
"0.004772168120198413","-0.029071878606883376","-0.016294069270856894","0.024382289424169774","0.013418095551461078","-0.04303816950990975","0.8279408783768283","-0.5777635340571372","-0.5614038803180519"
"0.011312599850128457","-0.04361288360794095","-0.01690744916440006","0.01660808640877373","0.02584911978518117","-0.11233055015569064","0.8493681600818033","-0.5635286489186885","-0.552251550090202"
"0.020402577174178156","-0.044918551390377516","-0.006401304866610669","0.014127080691043003","0.043561911289727175","-0.16541862898121798","0.8784022661111706","-0.5406525684459634","-0.5364637804471607"
"0.023516334897510087","-0.038273876128447","0.0003813962996333435","-0.010060077495433141","0.060630905886460335","-0.1893379937768476","0.91011129937549","-0.5160218635771182","-0.5195809998661444"
"0.005961249996609954","0.03521953538986346","-0.0004779551269771369","-0.06174336424162582","0.2605908748372533","-0.2318739826945627","0.9695727027024288","-0.4664966005467781","-0.48199107214461734"
"-0.029311636272488707","0.07228408867600801","0.02621398345255136","-0.070908740428198","0.178077172269731","-0.07571615723040007","1.012315810810922","-0.4304146627769379","-0.4361967341116964"
"-0.09672824597802411","0.10914401463268557","0.08845965113418203","-0.08324637654489155","-0.2010091147675024","0.10582444384227414","1.0088885602911408","-0.421153412204935","-0.4528997367775227"
"-0.10848427003550179","0.02311640014646587","0.06227018840683888","0.025342150774801335","-0.30717098553613525","0.09300807153244055","0.9587336746358032","-0.4343724621666826","-0.5322144842699446"
"-0.07272516000317411","-0.05633197827455643","-0.00042591077237347257","0.03773947736665953","-0.16936494110541522","0.16683872451667794","0.9182475363817998","-0.46912194080864217","-0.5682681279889394"
"0.010725280056921136","-0.05700195100301434","0.00938323157163853","0.08816830138479512","-0.05055210210370169","0.03424108507483392","0.8937273700614128","-0.4989505555426856","-0.5760312652357765"
"0.07115470986195567","-0.037750362554582216","-0.08058536922371484","-0.08721675589294024","-0.004381333306478328","-0.00283441573511266","0.8941453274418738","-0.49474209552492365","-0.5836963418016009"
"0.12735832561389687","0.0009352131192079184","-0.002279268066870574","-0.013325724136699196","0.09102577848580289","-0.11174567120725855","0.9061824999991551","-0.48045443972794477","-0.5904952156851467"
"0.0790334604649319","0.07369570563410768","0.060388743682873135","0.015146632516839214","0.002095167854236703","0.04601147055157941","0.9182196725564358","-0.47983438449021815","-0.5708340491421047"
"0.09590051467037966","-0.00783218503865526","-0.0008435047605028619","-0.023336394471570786","-0.1215827654010157","0.01719077163041678","0.9085509251551014","-0.4757446584541485","-0.5942215215636286"
"0.057280483271599125","-0.03099350581253782","-0.0002074070931247632","0.0021028195689638805","-0.11021699768650564","-0.02940393742571259","0.8867056860696656","-0.4781061454233629","-0.6187857221573045"
"-0.0832872880875746","-0.003953406491976981","-0.10436261742022154","0.060881089488154856","0.05657426737812288","-0.0593492542087152","0.8935044594585002","-0.4719583637046259","-0.6015106988522376"
"-0.19456031841703372","-0.09236404645668991","0.05667955079127877","-0.02454175697005696","-0.07571283404361416","0.04460630494518031","0.8928078638243984","-0.48451778043474947","-0.586115171933247"
"-0.016082498635327108","0.051109834304513","0.16065260587726274","-0.024658249671587973","0.26456374794866344","0.010521210111408125","0.8706003950092291","-0.4683963442538556","-0.6331516119256622"
"-0.014445705769011623","0.04063644667499206","-0.022016883025092977","-0.08666413762286751","-0.03793224673233686","0.07159810438278101","0.8938388253628688","-0.4624068745107085","-0.6056129040079348"
"0.060835212249503105","-0.017590935091154433","0.0015362853113146204","-0.04370239949790985","-0.14053528478008606","0.09574074246992827","0.8607087370049822","-0.46747285772958186","-0.6502141704218682"
"0.07006287273818992","-0.01832426958152851","-0.004921758214306544","0.04464239199457156","-0.016176458512667292","0.09900490091657213","0.8369966216201531","-0.49240699388497416","-0.6652174546168081"
"0.04810096374956865","0.004760643139787596","-0.008988239730759396","0.04158181101798406","-0.0708616209129947","0.10371062822366688","0.8010244230751308","-0.5269849678867113","-0.6711501258180752"
"0.024673643735928442","0.008731722115381795","0.006229777385611601","0.04492447762720451","0.0033698378657650366","0.07438416675954469","0.7865073700604469","-0.5514837461092318","-0.6656587276813651"
"-0.009853057549996998","0.011030715355530431","0.03337937584530564","0.048291212976410695","0.01569005244583556","0.11983969665221336","0.7787890904345975","-0.5739508539783498","-0.649511402207944"
"-0.11148826635485724","-0.01970368629996586","0.10852564118692754","0.012574165587162655","-0.041388167679852664","0.14457692122220653","0.7525413669416376","-0.6046106065842396","-0.6389371921054101"
"-0.009352391496771072","0.02190525564819934","-0.018846720949036538","-0.021037348428132305","-0.034296828505691095","0.11727205379976044","0.7259592775443088","-0.6275526503801271","-0.6438729130497151"
"0.03673776998000668","-0.0205523184226792","-0.010769519724634757","-0.08044766345934898","-0.030787058374436304","-0.027253718553053512","0.7006867879390914","-0.6203494554907915","-0.6790930409801021"
"0.0251579418604912","-0.010004143139749008","0.025278217695768837","-0.0005288564610776171","0.002095885843353222","-0.07393482466546579","0.7144793814943092","-0.6037794687123933","-0.6891606042307371"
"-0.0030170402847970288","0.00337415275579862","0.04361476558402597","0.05734779845824731","0.029350513376743232","-0.07687135382564354","0.7295258471909107","-0.5947424934391425","-0.6819531441763054"
"-0.007494150183836439","0.008583912628157673","0.00598896898296132","0.04159432676277665","0.010241233040566013","-0.020230317404661465","0.7357673440724636","-0.5972490997193143","-0.6651357373826309"
"0.08644370318040867","-0.036938085541165046","0.01861819250823346","0.07927923433325931","-0.02039536256133824","0.014655891706610453","1.0883840540548506","-0.5407976877569208","-0.5993370204231233"
"0.09784155844596319","-0.05231006446899211","-0.010907891619811165","-0.04562404769837184","-0.033200698454470705","0.005833199054618584","1.1039877962587332","-0.5471037814512475","-0.6309452466028768"
"0.05609621549185322","-0.037223732828492055","-0.02884460668857349","0.032142051195574374","0.02616503499644993","-0.024550170218807232","1.0093622453223297","-0.5351908052881156","-0.6299482963459146"
"-0.0519860315676238","0.02422367290388621","-0.01938162126024085","0.047602847012818354","0.010225676609708082","-0.04455254487846422","0.9937306392930829","-0.5197421950034783","-0.5950386939054009"
"-0.1965822390165999","0.04747951696193879","-0.02388800148822466","0.07127782241239781","-0.04106267928036365","-0.06516649420619126","0.8847273544688162","-0.5035811808286871","-0.5701966547155222"
"-0.06283700545196233","0.1080949100501391","-0.010868651828641737","-0.048958049561197405","-0.03069276247046669","-0.09765033123840539","0.9606841424112886","-0.5140033858883484","-0.5581351909509626"
"-0.022042350307381702","0.030380150983839654","0.017499858459904753","-0.11433452386008087","-0.025923878758541494","-0.15109030818643338","0.868956429312749","-0.5145574778029126","-0.5098403055522183"
"0.043647924333857405","0.036113871078549124","0.03936241137256004","-0.04646741634747239","0.02620811434344112","-0.20491130586020342","0.916380660082407","-0.503884612115234","-0.4885611377724669"
"0.08612000332061145","-0.09104175919571796","0.14212316343662537","-0.03230825798865757","-0.11962265511291637","-0.21572549919718859","0.9099441164233053","-0.4935151777141027","-0.4588977817661316"
"0.06439186686607334","-0.051196559407121","0.12370937511732945","0.03258876700970983","-0.009008270570067539","-0.12330734469410709","0.9237367099785232","-0.47796102611240554","-0.4377003312205574"
"0.018726308715204476","-0.04737407934398135","-0.05661398732352781","0.013343402517107103","-0.12334183873648945","0.07497632635878715","0.9280277390845909","-0.4842275418128349","-0.4938073842066453"
"-0.007523034763830243","-0.0012285391143589826","0.014453198463423673","-0.021231823847217134","-0.04375753176436835","0.06794564455958473","0.9395076351345905","-0.4686074268879753","-0.5158220070939917"
"-0.059322714886049656","0.035691113093305145","-0.03863596721142925","-0.026516356398487588","-0.035273293704158167","0.1999317093333587","0.9202258679826495","-0.3956783767996109","-0.5568930889914687"
"-0.025421846166656638","-0.033330619981577006","-0.06763417288563671","0.02297282401060447","-0.003351736913388788","0.20936015213277234","0.9628853846150506","-0.3521557761770504","-0.5790711463471696"
"0.03670407130334725","-0.011592342057287193","-0.012196608971901862","0.0545028733919321","-0.011991060622767271","0.050571584842466995","0.8827490228679665","-0.3162321503828","-0.6117253531243917"
"0.01684977383494043","0.0263291530908384","0.04000263954427176","-0.03670609815885313","0.05239796401703212","0.06713263855242808","0.9230679781697853","-0.3571294107434964","-0.6057763384762892"
"-0.004971563531044336","0.01561997660959662","-0.005988460958464948","0.07717562645850508","0.03027432603999884","-0.08994012203023621","0.8212535602894498","-0.3886071085566002","-0.6246693630180653"
"-0.010007108643297262","-0.04335112682100857","0.03770194863044318","0.0838359281873608","-0.05885444958772685","0.023307731752919256","0.805928456339208","-0.4649926367786751","-0.5985361915281863"
"-0.0014380165784691533","0.047394342134444926","-0.055362444510439736","0.02499170992060887","-0.002044757391617058","-0.026545068540845335","0.8314238565473377","-0.486417524141827","-0.6151247900661645"
"-0.0018424006983823887","-0.012800370403328336","-0.013448151784989941","-0.07192732950439479","0.007698354919558024","-0.06989891723292399","0.7897953014534078","-0.4944386642383765","-0.5799700359231192"
"0.007729949111563803","-0.022186220906189706","0.2132917531049673","-0.06723777620557199","0.043198130137357085","-0.055616707226604986","0.8138139189172419","-0.46881850952209514","-0.5754429011497004"
"0.0060941190645814455","-0.00065558259185142","0.05242719657981283","0.01917285134165485","-0.015274185522907279","0.06692392656253116","0.8250151767136","-0.46405595758976875","-0.5570892103534941"
"0.0048097180741903545","0.009563111529114668","-0.02977190491147209","0.06526833941275668","-0.005603470447647956","0.07863849371639722","0.765470181910569","-0.4540295324690819","-0.5680720066269143"
"0.011144106466831272","-0.0017261886247530599","-0.01138703012251155","0.023490783295097736","0.011218655557855109","0.0791020284846567","0.8032256652788927","-0.4648739027969827","-0.5788586815383088"
"0.02035443620752182","-0.02383258799860175","-0.026888812886602515","0.016318298779345344","0.007719894593053622","0.11795400809233064","0.7982659043640868","-0.46049393813899847","-0.6433989530914871"
"0.023578918154163325","0.007533769328202731","0.004918961835336016","0.015225577983992463","0.012612033103314735","0.11030932474145469","0.8187458160066828","-0.4571693866516128","-0.6396889906598408"
"0.006127817741240889","-0.0230525112248469","0.027511581388959348","-0.010476948071986267","0.024343735937544436","0.09108597971850602","0.8158201143434549","-0.42639090006403063","-0.6713299037332651"
"-0.02939829001247012","-0.014744849391968939","0.05486625938881782","-0.06276869256501862","0.04323163629612802","0.03855365723816932","0.8086033835741592","-0.45855461643802353","-0.6551662348130085"
"-0.09672824597802411","-0.002213243217580826","-0.0035157345391409254","-0.07017897623183018","0.058022212096438014","0.08694571629101576","0.7896281185012232","-0.5010218038899854","-0.645115015009209"
"-0.10848427003550179","0.0071565071654493845","0.0160700843848208","-0.08141041305877883","0.25965748898577745","0.10472021180270318","0.8050646777529218","-0.4938713796591797","-0.581539006819322"
"-0.07268664722984904","0.0056896304412195455","-0.008997739890726731","0.025814860828121393","0.1799750568343986","0.05507830769407862","0.823789168397581","-0.5202171309302478","-0.6252413836573059"
"0.010703135212259221","-0.015275633987692949","0.02508119263905497","0.037697116384284614","-0.20201669282768536","-0.008688301675000867","0.8177427182935767","-0.528370197673122","-0.6251106360826224"
"0.0710767214959724","-0.016031820261053185","-0.0026896336724161196","0.08919555520738677","-0.3077932427704525","-0.009233622420696683","0.8649719022856862","-0.5464045702257259","-0.5771262761737513"
"0.12727841160924735","-0.013576292307449346","-0.004405651697820223","-0.0864022697318226","-0.16670598807723652","-0.05839306206895484","0.9047614449055869","-0.5454019277136573","-0.5613058196370393"
"0.07902575791026689","-0.028876599734092546","0.02107274470848954","-0.012057782914250083","-0.05031516569525012","-0.034044138875514114","0.9368327078996389","-0.5584758583644476","-0.5637573366623562"
"0.09600764757757667","-0.04359314797718018","0.011768639129349742","0.015321852943935448","-0.0033266072943105916","0.003242306657244573","1.0352198752601929","-0.5516948287433515","-0.6173311553889499"
"0.057305516574260425","-0.04519588893843683","-0.0069502488925493044","-0.024212496607051947","0.09190651180206731","0.012741565920206983","1.0062972245322814","-0.5765366162463165","-0.5826503612041324"
"-0.0833161726675684","-0.03832996686850394","-0.01586862732449362","0.002332146523548071","0.0001223730917455155","-5.706587048537888e-05","0.9993591320166264","-0.5977504209753486","-0.5602761824864062"
"-0.19458920299702745","0.03525069691211732","-0.01700864652057385","0.05936572161865228","-0.12095093497847818","-0.008166279011898194","0.9378079417873818","-0.5965762738230576","-0.5627603864053939"
"-0.016015101282008237","0.07215840386958414","-0.006457273200331274","-0.0268908659926658","-0.10685920191824756","-0.04557183599191435","0.8588418607055892","-0.6369985982569847","-0.544308634928175"
"-0.0145708722823181","0.10912324028451635","0.0005488882503617967","-0.024579304204434726","0.05263250712842861","-0.11309501849077823","0.9209224636167513","-0.5606394553641748","-0.5087452946142434"
"0.0608708365648288","0.023205729843593582","-0.00023900545127698535","-0.08670264760684471","-0.0727451456953319","-0.16797171053205018","0.9057645426186938","-0.5756659003805725","-0.4982364582990513"
"0.0699685164435435","-0.056481553581374945","0.026014893143670684","-0.04424442752238886","0.26571253053509525","-0.18859294051058764","0.8953991995832572","-0.5626447403883121","-0.4693085574003109"
"0.04805474842157856","-0.05689288567512584","0.08841421558651216","0.04297683518755792","-0.037082626277788314","-0.23558226084063838","0.9133713669430866","-0.5588716383034221","-0.4374224926243549"
"0.02479399615256929","-0.03768596207525758","0.06206159793799087","0.04026958331396118","-0.14327082331402688","-0.07778628894414522","0.8936716424106849","-0.5583571243827553","-0.4209319547673893"
"-0.009737519230021783","0.0008344575305871181","-0.0007577967955801636","0.04395787702937693","-0.019941832769403173","0.10222294857475038","0.8722722245310738","-0.545916441634324","-0.5045613722243689"
"-0.1113534716482195","0.07362818900255767","0.00933973736100547","0.048901596222449224","-0.06892065700133589","0.09220477305969771","0.8942289189179663","-0.5267211145940617","-0.5774531451104604"
"-0.009265737756789677","-0.008007728280685312","-0.08075885040572706","0.01324809030676355","0.0009334614637074991","0.16752795946005852","0.903340389812019","-0.4602564701756138","-0.5652282468775465"
"0.036809981429991194","-0.031021551182566286","-0.002630773985661977","-0.02073119405551361","0.016301061183993996","0.03522639981783571","0.8980741268182086","-0.43988699598306047","-0.5620739616383053"
"0.025165644415156212","-0.0038858898604269597","0.06042798347404257","-0.08302109313862496","-0.044379788998685596","-0.0022250252622856913","0.8507892151753709","-0.4222352107047986","-0.5702129981623576"
