"AccX","AccY","AccZ","GyroX","GyroY","GyroZ","MagX","MagY","MagZ"
"0.013296007676369584","0.042095844633880976","0.05254078544898749","-0.004424430165250623","-0.3452722746527914","0.22397969895997127","0.6403337422005019","0.21998370360445985","0.847907883749335"
"0.030405307226032015","0.003918741905881089","-0.058823807142016675","-0.07118216131443608","-0.07678742442133896","0.13780591596857353","0.6856960498932185","0.18767486791950966","0.8197971551923671"
"0.0034723620204772953","-0.07628158482147493","0.017045089932772747","0.04504097032873552","-0.049568457014069436","0.2704787888021246","0.7441543555070508","0.15375652714939658","0.7864892105417272"
"-0.05650165423998827","-0.11081478378319794","-0.13359626184144557","0.0618178448484001","-0.2633736494284212","0.026991983751320763","0.8014145166302277","0.1359728152248099","0.7381616382493117"
"-0.22891371222299625","-0.10305556474198783","-0.39454087311814345","-0.18500034445823194","0.18959132440165513","-0.25270877843020395","0.7565816216194289","0.17105211048258145","0.7530505183164034"
"-0.11207558614806457","0.07590090269227222","-0.015843844298491873","0.03538651734565297","-0.19478414912727487","-0.18073954516981475","0.7533772817025599","0.1701418166229401","0.7726136241784329"
"-0.0020734773383328186","0.10338744275498997","0.21475395163907024","0.3349518317058477","0.25355458149535826","-0.3964045565906371","0.7583370426173655","0.3209075880429525","0.6771025208720836"
"0.04927367769731704","0.0681094834113998","0.053881134105248495","-0.176778462879101","-0.48745805269428283","0.04229833863829681","0.7711822661102047","0.3370290242238464","0.6599092148011938"
"0.12923197203616155","0.02405228453149","-0.02237830215428508","-0.0071339926378859945","-0.13281211518338698","-0.021440604257703316","0.8384455405390853","0.3163429260801135","0.6054528499454861"
"0.1611041804206565","0.005038146882632266","-0.028710365297730713","0.16185908122435477","-0.15733144351254166","-0.012710375871002993","0.8697644802483069","0.30867798792864104","0.5736811892973781"
"0.07298406659489651","-0.02549869072177458","0.014197726770389028","-0.0035202157414661065","-0.003968728894184891","0.1352018698620688","0.8717985394998848","0.32156722127457665","0.5540527096480069"
"0.09986983365312802","-0.005236326363168223","0.0281734947084226","-0.04171624707428607","-0.011218982992802872","-0.049797040345525456","0.8722722245310738","0.3092320798432054","0.56606514307206"
"0.10889915335919072","0.038035498284203564","-0.008099355198163507","-0.059652272111664184","0.09403654618107635","-0.09085020338153096","0.8638016216203948","0.3410659796013861","0.5580568541226913"
"0.033117569287450084","0.03920821023835701","-0.053514043821142984","-0.019857017419231304","0.22376281975389242","-0.032274940728597115","0.8049810862768293","0.33408706001080274","0.6222048829518189"
"-0.04067290440338442","0.006135967311635607","-0.0724276231648074","0.031621203662282826","0.5512089362339593","-0.01527996023033869","0.7135320114319307","0.35363858899614214","0.6913540065125929"
"-0.4432950649369996","-0.07806090774217009","-0.0833982426749128","-0.2418025708245931","0.6478981372586397","0.303945513693737","0.5788661434473494","0.2239942736527345","0.8897634510949134"
"-0.024767129020130448","0.002510531940881176","0.05455027580729558","0.06083680300658108","-1.0166160315694512","-0.08885530505949288","0.6734638305583887","0.1807751043167212","0.8386901797341431"
"0.017565148599453604","-0.0011395210324538015","-0.05037899103192235","0.054243893749685475","-0.0569230588642883","-0.06419088699760328","0.7260428690204009","0.2641527447940119","0.7421330958303252"
"0.05380085420167904","0.00014589176051775082","0.0794799347128834","-0.0147448170462588","0.24582423200749395","-0.10784081548930317","0.6910737681884852","0.27940346510916186","0.7633142029290639"
"0.08215010664626321","0.024254834426140064","-0.06655404600239404","0.04737948910575063","-0.12381571155339258","-0.04276635854632305","0.724621813926833","0.2839021637488386","0.7416101055315909"
"0.05696564134966668","-0.0004895955499792154","-0.05704975553072515","-0.045322707073750294","0.18098024159752646","-0.03857755744676372","0.6928291891864218","0.2819628420478636","0.7678413377024825"
"0.016875769956934846","-0.002357001706911947","-0.028402642724875724","0.04496395036078112","0.13105606502884254","-0.036517133267432396","0.6355968918886088","0.2914087899247212","0.8125733516910996"
"-0.011075838103067984","-0.04063695823269773","-0.10823909573732769","0.1622923185440982","0.17940784543234786","-0.05627439268314066","0.5656586902247773","0.3436913198632502","0.8267104332037608"
"-0.11292286716121612","0.029989593238257995","-0.004315606703347219","-0.18826406560029912","0.3725971770143581","-0.19753600658931075","0.4581321881448065","0.3538760569595268","0.9022825313708656"
"-0.008822840863551359","0.09036815875732902","0.0939387651327343","-0.00708287063415627","-0.36444258406387287","0.03309802289760771","0.48685979209516905","0.34486546701554116","0.8932772921645346"
"0.017839552109394738","0.039064867235989266","-0.016364287844528504","-0.256118657368115","-0.28204136645793865","0.1605069851952699","0.555042572761064","0.27272797680512567","0.8834058502759248"
"0.03315704488010828","-0.031591807039811855","-0.13331332229459233","0.06358545311295331","-0.20663336284690834","0.16218153488165227","0.642144890849167","0.2230180164699308","0.8368597136885733"
"0.005119745899457165","-0.025943261772596253","-0.09827631928462655","0.008008036786986757","0.3495257934035186","-0.040688946181767556","0.6185999584165223","0.21245069209931214","0.8674056158240226"
"-0.016063242248664563","0.00885086300213237","0.02066754223336102","0.031981272012469586","0.20650954128391913","-0.05407806302201599","0.5212437525944397","0.2311051198896427","0.9282849552860607"
"-0.010276698056572775","0.03076655385978747","0.02024994824523163","0.03669489405127814","-0.08236380655964352","-0.007196010947237814","0.5153923492679834","0.259456156184848","0.9231367695328951"
"0.003840159005731714","0.021456529727743815","-0.006083049507704939","0.0019320277900250248","-0.3451047438589368","0.05767992691697989","0.5811509771272039","0.2539020443745728","0.8760676426468093"
"0.02043627585083759","0.017375409029897166","-0.10669635236871912","-0.05801078404463629","-0.03531637305114936","-0.012610873643261432","0.6293275311816917","0.24163286626636393","0.8426289504214859"
"0.007811788754879576","0.028525001692326774","-0.02545139737850136","-0.012460212246811762","0.15747088462560976","-0.05395671884184335","0.6018537993727124","0.23613152511461863","0.868582343996175"
"0.0020021368987927462","0.05099142051994835","0.022284634679974824","0.0180907207918957","0.05133534012458266","0.002399644132453734","0.569253123696743","0.2441790505404331","0.8877205202404825"
"0.007191733104345953","0.08661423404314784","0.05930861679963046","0.08275668588639994","-0.02132635511575905","0.07360756400643984","0.5595565124700446","0.25111839213711895","0.8944867072303575"
"0.01102471686952356","0.07456511210499026","0.09235058621645585","-0.032195616285524274","-0.27876254949249774","0.23875699322139465","0.6165101715142167","0.24014209516289337","0.8555239299746531"
"0.02967452735218881","0.03392737093373691","-0.0682165739966777","-3.36180671309018e-05","-0.15349020173916017","0.10100950677302403","0.6858910966707668","0.20705489226462673","0.8092883188771749"
"0.00478564759086219","-0.06044426049465694","-0.02864221197622592","-0.03377645112778809","-0.042393352442980536","0.2831956588842166","0.7381357692284102","0.17088060584235915","0.7792327201467888"
"-0.02713566457962225","-0.093137890925994","-0.031186602645738318","-0.07407811210952107","-0.1886381622898645","0.07965293106264046","0.7688417047796224","0.11891469985500974","0.7680538025113434"
"-0.2083864040407339","-0.21893487882999296","-0.4817358196009466","0.43182369640047924","0.08881437200692158","-0.07446631217462193","0.7689531600810788","0.15495705963095252","0.7474610594986807"
"-0.15959072023786994","0.02307692888494432","-0.035133299536516074","-0.22544545513027994","-0.07212049516395959","-0.26494027179160545","0.7134205561304746","0.16197555721543333","0.8105957946240107"
"-0.04019149473682103","0.11630077757698783","0.07114870747196374","0.7162391830640458","0.0561674068787616","-0.4245078687186191","0.758392770268094","0.27731902409722964","0.7071090892619634"
"0.02578281160769046","0.08191403776985792","0.07251590440639329","-0.15248829048548587","-0.38820802382068165","0.04674196251621867","0.7408106964633617","0.3299709486454681","0.6932498463455048"
"0.12818923869838528","0.01771195347023881","-0.08438956371498257","-0.00910117889440101","-0.13347027187353022","-0.03949977321607574","0.8418449272335026","0.30337453674638304","0.6209627809923249"
"0.16336391739550502","0.029979206064173376","0.04446977998108615","0.10674166665699579","-0.1961794413103785","-0.12504742023778267","0.8383340852376289","0.3183877890981483","0.6103558839961201"
"0.08475260730370483","0.00968401823545963","0.014783845335330276","0.11363495378891354","-0.0030520961220944815","0.036881534435390426","0.8481421517657837","0.3614354537939394","0.5513723843669937"
"0.08596190838611205","-0.02434986926801576","0.0502380292829921","-0.029226496520882612","0.005183717703799819","0.03377269653936755","0.8572536226598366","0.33962797915644544","0.5623551806404139"
"0.10202125345299976","0.02298448303559121","-0.05174825321851872","-0.04629604691877386","0.012734330582828624","-0.08722929304517957","0.8560833419945455","0.35111879005133795","0.5505552120252213"
"0.08890842439127986","0.04520160968518194","0.02573257317246748","-0.10587195488109248","0.14186419452952215","-0.05361695513735997","0.8166560291043771","0.35536682806299735","0.590874495368268"
"0.02754188252931305","0.003571467514710035","-0.04763427090222919","0.14565600546595037","0.13825270927342703","0.08026935949791744","0.7709314916819282","0.3439419804912674","0.6432225555822031"
"-0.22023871003152423","0.0117995739812739","-0.167879447810525","-0.26393618411548536","0.6452894434686172","0.33835872319069604","0.7021078430326594","0.31726641260438726","0.7248744159720938"
"-0.17706589113412052","-0.020414169007353773","-0.022929724482823887","-0.1625490237995278","0.07294441923477667","-0.051233755438769436","0.5796184667321795","0.2138359218857228","0.890662340670863"
"-0.00782150875709956","0.014270890439486357","0.016052529741402893","0.08854281097897335","-0.53821988323224","-0.0006443959713569616","0.7071790592489211","0.22392831032957208","0.7822889447050173"
"0.016234532281072432","-0.011709717124443382","-0.06466847077409467","0.10309284567515666","-0.18556995546526944","-0.04759100314998697","0.7387209095610558","0.2685327094519962","0.7339286855189311"
"0.06849155158652706","0.023907902811713806","0.07138414621898029","0.05199876168381505","0.0541546440554508","-0.1287896747543067","0.7467735550912737","0.2949180387169616","0.713352285953104"
"0.09750486052516877","0.0023473494360118177","-0.0641397662193908","-0.035495921912369804","-0.004063024798154505","-0.003075890653656201","0.7585042255695501","0.3028732154903486","0.6876113571872757"
"0.05008822285314227","-0.017071576386923505","-0.039336087695978524","0.007595979958430782","0.2861991533264632","-0.09013669960211587","0.7133369646543821","0.3054985557522127","0.7380308906746282"
"0.016314446285721956","-0.001460796326891055","-0.011075177045322938","0.06995596721238063","0.15328500807629872","-0.09737123962400833","0.5974513149651887","0.3366728222787694","0.8073271052569213"
"-0.010469261923198123","-0.002049956840970622","-0.044922594807205014","0.039276988476949","0.1501378224488865","-0.04771720109736651","0.5449558679792684","0.3696149058660787","0.8271353628214825"
"-0.15062687224645985","0.01797578769198812","-0.14784856704461527","-0.01752042414141506","0.4822101821363966","-0.18013525115255505","0.49942637733436757","0.3878603610528023","0.846338912853132"
"0.013429839563674198","0.01698692871913243","0.06437674561698714","-0.08221238347510389","-0.4886786341923667","-0.09324068373093186","0.4808690696418927","0.3657890331226587","0.8772607142657969"
"0.018635803697890557","0.08372763836503232","0.12209847842721609","-0.23028808561541209","-0.1822600256381127","0.026169270209750312","0.4772189085191989","0.3190210370005075","0.9131672669632728"
"0.03037449700737196","-0.06350432197998558","-0.1894572024493769","0.1603283093612613","-0.019553161327660395","-0.005406669666412154","0.5465162421996568","0.30110539842959594","0.8728479836202263"
"0.008010129537503687","-0.011447960337510993","-0.020397725326312365","0.004133836123921094","0.2235761425835972","-0.016413557561511433","0.4757142619495385","0.31985217487235396","0.9141805606670705"
"-0.012211964916157541","0.012166656713424321","0.007500733569067713","0.04639363351593446","0.12178921883162565","0.05497395169913015","0.4595811070637384","0.3221476985184059","0.9194921808885907"
"-0.024892295533436908","0.017951897191593496","0.008800954375727551","0.07577675129053352","-0.272061317738312","0.11433309775597925","0.5104604521785417","0.3261450759020482","0.8828828599771905"
"0.007846450250872144","0.048184806082284405","-0.039127497227130506","-0.02306201083573328","-0.2763931854079821","0.08182256500412714","0.6047516372105765","0.32147487262214924","0.8176071333164172"
"0.02378496149145245","0.0611157991002261","-0.0065489703965377274","-0.10037465466834804","0.020289490726262054","0.05292323505421264","0.5719280509316945","0.3000367925943649","0.852631139884779"
"0.024002558660739092","0.08255284897606197","0.024559096891284896","-0.07121682030001555","0.025739028120648114","0.12482694245730862","0.5723738721375199","0.2522925392894099","0.8809543332506079"
"0.021076550707366887","0.06298652915286591","0.02463014156582323","-0.04479223204446444","-0.10698126006805592","0.2205941963331548","0.6415040228657931","0.19619732927209343","0.8535627163543994"
"0.010403698399656797","-0.043102873360386186","-0.07724792172214663","-0.15721539101868642","-0.20694927805817706","0.07561945051370211","0.7000737837810818","0.14342667074216262","0.8245857851151529"
"0.020063664768917543","-0.07124588282525182","-0.04733067883370782","-0.03533899372766274","-0.11431671554183427","0.10636563888584409","0.7244546309746484","0.08778001132235054","0.819437599361987"
"-0.07217635298329185","-0.0996496103596414","-0.21300520765536748","0.17696462243940914","-0.05588915453649965","0.0017349207134680449","0.7439593087295019","0.1044555394178087","0.7994332204354007"
"-0.21040832464030004","-0.08154995951719347","-0.21048560001185684","-0.14351546421879965","0.5538415629945322","-0.17368702141818126","0.6495288045706471","0.11483816648357258","0.8766396632860498"
"-0.11208521434139587","0.036510661128581555","-0.0665829595327294","-0.007820336827319536","-0.2692372272133337","-0.14958321346868927","0.6562718503087535","0.13266145640205676","0.8661144835240225"
"0.12937543211679742","0.006216883397754786","-0.008289977973160254","-0.24202400323246198","-0.13408534921668225","0.13414860237817036","0.6774204937600877","0.1639544569103057","0.5664900726897817"
"0.16109936632399088","-0.07823748970160861","-0.05358219714264779","0.059822064928782025","-0.15420101096451486","0.2607227167162448","0.6988199116396981","0.16024731814857807","0.5625513020024391"
"0.07297732685956461","0.002378407086524827","-0.0724792544689777","0.053969510113847964","-0.0014325520049310874","0.02828308582835759","0.693943742200985","0.33018203127958784","0.5890767162163688"
"0.09986193853459636","-0.000950889951077127","-0.08345193923124992","-0.014646616587116952","-0.011353725617003105","-0.2498450557781298","0.7763649376279231","0.3184801377505757","0.5415990031593967"
"0.10903298524649534","0.0002852876367333329","0.05446353521628948","0.04760573526161664","0.09492685268556102","-0.17878105010182846","0.7692039345093553","0.2970948283813213","0.6159616862606783"
"0.03310890391345194","0.024384674102197797","-0.05046160111859484","-0.044248278520786576","0.21754503400483002","-0.39584637336184303","0.7796807328462483","0.32821632424934793","0.7019118731682914"
"-0.04056699427674048","-0.000481389682452366","0.07959145832989123","0.04457307402341261","0.5527885122903031","0.04101937097927725","0.7430955301432157","0.3204986154393455","0.8930811708025091"
"-0.4434106032569748","-0.0020771712370723223","-0.06655611125456085","0.16183982623236617","0.6440209960294321","-0.020185662746357934","0.8360213877324102","0.30828220798966655","0.8485452781759174"
"-0.02463233431349269","-0.04079795943100931","-0.05734715184274608","-0.18909203025580879","-1.0172143558332178","-0.00899069137199107","0.8410090124725804","0.3261582685666806","0.733307634539184"
"0.017571888334785492","0.029959470433412603","-0.02862568995889142","-0.006403939616638339","-0.05859836680283474","0.13621145344110513","0.8999967307683299","0.3327018302243921","0.7426070557885532"
"0.0539433514629818","0.09034322953952592","-0.10831757531966656","-0.2554351051525198","0.2451541088320754","-0.04382205291382496","0.8454672245308328","0.31623738476305363","0.7318530677708294"
"0.08216551175559324","0.03906071236635542","-0.004598752775417146","0.06257745428235026","-0.1234878298568485","-0.08881890180544108","0.8940060083150535","0.23589405715123393","0.7712080877505846"
"0.05676344928971007","-0.0316530913669111","0.09379419748105745","0.005828564243797461","0.18172455698165207","-0.034417878950445825","0.8940338721404174","0.17437666196996704","0.813831797097429"
"0.01683533154494353","-0.026195670102852488","-0.016244503218853405","0.03359484034111402","0.1317836273335827","-0.017469979994094387","0.8102752130960038","0.27106570106143285","0.8423184249316121"
"-0.01096029978309277","0.009001684769841032","-0.1332554952339216","0.03619522700917405","0.17740226250020227","0.31008552921047233","0.7385815904342355","0.2697992052567145","0.9064664537607396"
"-0.11294212354787864","0.030642946488180504","-0.09876371879599417","0.0013198153197475826","0.3726929088965608","-0.08761274065452508","0.6209683835724688","0.28301825521846213","0.8896327035202298"
"-0.008851725443545164","0.021413942313996875","0.020506246039133","-0.05795205631907108","-0.3640357235645116","-0.06312063132848066","0.6591418243212536","0.29002356013831043","0.8617998135594647"
"0.017776006033408367","0.01745123540071488","0.02015887062467522","-0.013721414222064868","-0.2778052306704712","-0.10852519666547683","0.7493927546754968","0.28377023710251376","0.8208594792366711"
"0.03337560486872806","0.028447097886692134","-0.005920307636960153","0.0186712588003519","-0.20464931958825833","-0.04627805912051908","0.6668322401217386","0.3416332641805829","0.8841249619366844"
"0.0051755894207785235","0.05125317730688074","-0.10666537358621694","0.08284910984794519","0.35014805063783583","-0.03892945556926436","0.7178787681887266","0.3765806327920296","0.9337109796354292"
"-0.01611138321532091","0.08660073071683785","-0.025284111952989585","-0.03262981635486714","0.20619841266676048","-0.03329665872565069","0.68488799895766","0.3396939424796079","0.928693541456947"
"-0.010151531543266281","0.07446020164673561","0.022688184953369894","-0.00022736179652016502","-0.07766815773760335","-0.059975390178406","0.6664978742173697","0.2896805508578659","0.8670950903341492"
"0.0038815602370561703","0.033951261434131526","0.059131005113284625","-0.03406238775881876","-0.34599026376931136","-0.1994920747736936","0.5298258108065749","0.2191393730679809","0.8396217562037637"
"0.020432424573505085","-0.060435950755389246","0.09285657299732479","-0.07290452034781608","-0.03492387233411848","0.03249858264755489","0.44127457379954027","0.22237157590293918","0.8543308583556655"
"0.007741502943561332","-0.09295715409692162","-0.06818559521417553","0.4331908008316696","0.15651356580358322","0.15762627435797158","0.5247267307649491","0.21255623341637203","0.9000271357075739"
"0.001953995932136401","-0.21887255578548523","-0.0285368841157185","-0.22610012485789224","0.04844423728206252","0.16181750234113437","0.5769714033225922","0.2824773559685304","0.9209140607632745"
"0.00702516535971502","0.023010450970802756","-0.031124645080733957","0.7173752275913731","-0.022201105189385797","-0.04131993591866525","0.6564947609116664","0.2573189445143859","0.8622574300708569"
"0.010862000402225142","0.11645658518825708","-0.4817151670792785","-0.152170583117674","-0.27936087375626434","-0.05719418156884922","0.6369343555060846","0.23861174606552538","0.8115927448809729"
"0.02977466056283399","0.08181639833346252","-0.03535634677053177","-0.008343687509569604","-0.15392099520907213","-0.007163248018591202","0.5293521257753855","0.2428070134186549","0.7634449505037476"
"0.004657592619556322","0.017476164618517965","0.07105577112445718","0.1067031566730186","-0.04576072139945887","0.05938602609020713","0.486413970889344","0.24291255473571471","0.7982891791569193"
"-0.02692384432633436","0.02989299251927104","0.07257373146706401","0.11335575640507888","-0.19182842726426794","-0.010906958665277305","0.6349560239052352","0.23791253484000374","0.7403189732315907"
"-0.2082419811407649","0.009737408310254568","-0.08438956371498257","-0.029546129387893322","0.08999666075212436","-0.0547236140605344","0.6455164137182203","0.24850624453988743","0.8066079935961618"
"-0.15948481011122603","-0.024423618204016555","0.04457510784159356","-0.04645201235388151","-0.06711611102181586","0.0044149282767608385","0.5702004937591219","0.22939007348741997","0.7284046004885502"
"-0.040181866543489785","0.023063425558634314","0.014726431325092902","-0.10409086812214725","0.056344510860836514","0.07209804240509227","0.5616462993723503","0.1685059262085122","0.7149376002961422"
"0.025986929306313338","0.0452161517289004","0.05007074385748033","0.1467150300253232","-0.38756183361581376","0.23966950145629284","0.5923243710981984","0.14056386251691386","0.6155857869834631"
"0.12832595904368926","0.0035558555920608536","-0.05198782246986891","-0.26544770098659026","-0.1305552360604594","0.10356258832385624","0.6304142203708907","0.14623670830888144","0.6086398220783982"
"0.16349389800547712","0.011876646812981768","0.025828194347790878","-0.16140335177620627","-0.19530110129116918","0.27987082834748644","0.7142007432406685","0.15433700439322584","0.5937509420113065"
"0.08480652518635994","-0.02031133598391605","-0.04788210116224662","0.08818274262878656","-0.003363224739253106","0.0813687377702815","0.7444051299353273","0.2822926586636756","0.5867886336594063"
"0.08597067004204349","0.01426891687641028","-0.167879447810525","0.10253445090748735","0.009192968930446955","-0.0752574762293475","0.7823835239065632","0.3122927780379413","0.5368920904707881"
"0.10196550621361172","-0.011525864143145633","-0.02268602472714007","0.04934349828858753","0.010185947878593981","-0.2612028710422884","0.7920244074825337","0.299522278673698","0.6300987677733394"
"0.08896898572733353","0.02380922465790993","0.016310273211821033","-0.03536787621564563","0.13882710056664296","-0.4257213105203455","0.7420088409540168","0.29611857119851753","0.6488447012935966"
"0.02760927988263192","0.00222935113841055","-0.06450118534858289","0.006648249252752036","0.13700819480479254","0.04611825343013133","0.7491698440725846","0.3607362425684178","0.707975291944242"
"-0.22023871003152423","-0.017028988973176572","0.07096490002911746","0.0692483462567997","0.6454809072330226","-0.040764179573474585","0.788764339914937","0.3284933702066301","0.8834058502759248"
"-0.17705626294078927","-0.0015388040042665398","-0.0645177073659174","0.03957544085277225","0.07180999643067522","-0.1257269476467494","0.8442969438655413","0.3445224577350966","0.7866036146695752"
"-0.007840765143762066","-0.0020854809763400173","-0.03958598320816277","-0.017254705251972417","-0.5360419829121297","0.036068528428233784","0.8189687266095957","0.34382324650957496","0.7335854731353868"
"0.016240309197071198","0.017944626169734267","-0.010920283132812037","-0.08201501980722077","-0.18015392422965432","0.03354214259703955","0.8326777286887211","0.3442190264485495","0.6985778100138603"
"0.0686369373058292","0.016961999501329345","-0.04503824892854649","-0.23063467547120683","0.05277371165467752","-0.08538000773934862","0.8692629313917536","0.32448280015835534","0.701356195975886"
"0.09744314380591533","0.08376191603951158","-0.14801378721796024","0.15964475714566612","-0.0005281250478215169","-0.05348833030637698","0.8655849064436956","0.22007605225688714","0.7680864894050143"
"0.05012095871046858","-0.06335059180353322","0.06408761031363346","0.004554653973831882","0.2860316225326085","0.08185168760736858","0.8099129833662709","0.21122377428849126","0.8166265265062903"
"0.016325037298386344","-0.011383559858186358","0.12241446200873833","0.04490522263521591","0.15895233550269583","0.3367812488484518","0.7702906236985543","0.26416593745864436","0.8467148121303474"
