"AccX","AccY","AccZ","GyroX","GyroY","GyroZ","MagX","MagY","MagZ"
"0.16641142944630266","0.11796144608683883","-0.09751986679468058","-0.020156443253604595","-0.2786910459761025","0.0826125474068692","-0.2883608117257498","-0.30838374820206965","-0.8718848717230078"
"0.22214870494665043","-0.016757534677758965","0.05300519587660858","-0.044524868928804896","0.047637772372580725","-0.010052451722400702","-0.31590208555755495","-0.290958453340011","-0.9005603551534391"
"0.15568323812700824","0.017255096814347635","0.10087377997780685","0.036827538680820095","0.015112527128941115","0.02354514104443106","-0.30885266106381837","-0.29515027252361115","-0.8974784837754823"
"0.16803654009378555","0.08021936554122702","-0.04499456844469549","0.010564576200400548","0.08865997675909836","0.0444962152816885","-0.3311140015703551","-0.30173045380019275","-0.8931138029914722"
"0.05137180734422846","0.08688551018125831","-0.12804967454786745","0.1176656457002322","0.28014863833706505","-0.04838142808708852","-0.30890974142409144","-0.3173279205298676","-0.8563816507303413"
"-0.46419105908801594","0.22367687478785278","0.13648910548856782","0.18876606648103386","0.5728568508372518","-0.4061716197693468","-0.21215853076106608","-0.3198503233525572","-0.7841062915112507"
"-0.02504202738153436","-0.5641516989716016","0.03336645445736595","-0.04923732802640418","-0.14945432351346868","-0.05358618653507994","-0.15433612580434355","-0.28992268406499355","-0.7539759144861492"
"-0.39862879611636914","0.1418212207876875","-0.01840624571872528","-0.07011688506672537","0.11372189071386506","-0.0018363828205921946","-0.1712033722650656","-0.29478470689713443","-0.7663033999979768"
"-0.14171201036236047","-0.1392218096359932","0.051400627342753316","-0.13022985608817028","0.034920825697118366","-0.09002343717684955","-0.1369266159210263","-0.25858152435505316","-0.7798824068815636"
"-0.032753304557879226","0.08173191109415351","0.042159014038472165","0.005947256168726134","-0.2758576710011115","0.028217796205426013","-0.17768199315607053","-0.2601290855071381","-0.8154099698223762"
"0.09047782681192625","0.01556533929172299","-0.052823259573965914","0.09355371599368767","-0.295643809094624","0.1161330837347322","-0.24306754584898838","-0.27810272880891185","-0.8515163613976278"
"0.23849004977141525","0.06672010694688037","-0.1535023151473515","-0.04386661651944848","-0.2355256071112956","0.09827215006788394","-0.3248922423005794","-0.2963200825283368","-0.8970717393296606"
"0.15250061355963085","-0.019625478193697497","0.1280842226921831","0.03306254428376562","0.057043310976712835","-0.029054254251627724","-0.3311140015703551","-0.2921526343865018","-0.8993088337816801"
"0.1534541868138631","0.07143172843735081","0.03323042312030375","0.013227946585136473","0.034542514736770405","0.06002377749741151","-0.3477814667701212","-0.30728705132263945","-0.8925036863227397"
"0.17481475273179267","0.10950073209412388","-0.34861834990038437","0.08984630232429064","0.15185057026558743","0.0301097190036357","-0.36641820439931155","-0.3188389251193049","-0.878987255507741"
"-0.16500991161855127","0.3018437697354729","-0.25321270067167534","0.09624954097037597","0.48570286976294785","0.13179859865449134","-0.3150173399733207","-0.33433890768191926","-0.8248746001963048"
"-0.08141638563242994","-0.3345759073483814","0.07955051299264199","-0.20669575376432242","0.18856256232981428","-0.06353848875482879","-0.17471381442186582","-0.3188389251193049","-0.735328246046938"
"-0.08012023478789537","-0.09752297727289283","-0.2666864000178917","0.08376760959772894","-0.0983206111156424","0.04276589422249256","-0.20656465545429525","-0.31852210157635835","-0.7505029426795176"
"-0.040923976970261636","-0.13877281652195195","-0.16931418357750994","-0.20394758267158195","-0.06331339270955258","-0.15340285091687395","-0.2079631242809881","-0.30053627275370204","-0.7713251295021604"
"-0.1644356675735043","0.049313205156893386","0.02895211648594133","0.06678391224459272","-0.2352248578122742","0.015318233001591144","-0.1639256263302364","-0.28364714081047593","-0.7739376803657076"
"0.06367047409186272","0.051040425542470846","-0.050865042966164405","-0.0020162893315851488","-0.2703017234244532","0.060114432131492396","-0.22674256281086153","-0.2903004352123529","-0.8227313698471673"
"0.1417151619055589","0.09860423045773511","-0.16168590694114884","0.009397519543016753","-0.28394624425373943","0.0246014646067648","-0.3105079915117404","-0.30112117775606484","-0.8802700649137941"
"0.22416840328794416","0.060637653355102704","0.09702832689510922","-0.15259604282437395","0.08293782562245455","0.00925501458391207","-0.3472392033475261","-0.2818924258033876","-0.9153439513573441"
"0.12851739305310825","4.50075218626235e-06","0.02968037264955058","-0.07332831928652783","0.041434422357502686","-0.00742051120468296","-0.3218669832061013","-0.27222930774351867","-0.9028130936226056"
"0.17506020104361847","0.03894286732602173","-0.009416820651355014","0.023086683217117647","0.058914288194835386","0.016649870746122692","-0.3337111579627843","-0.265210447715165","-0.9051909842289481"
"0.03672366210371636","0.13507790545618034","-0.010535801570098742","0.12288978808224174","0.20545200980643658","0.03321956710319286","-0.3236079341944332","-0.2784804799562712","-0.881709314491317"
"-0.3485711223609901","0.08835455952626206","-0.041988351051055625","0.2599698708410386","0.31210720858570645","-0.21414145575106394","-0.19597624862362217","-0.29234760272062277","-0.7858271333974196"
"-0.05823333318524849","-0.5476512020305854","-0.10779110955628338","0.14495236734534264","-0.0980958405869001","-0.1156924938921424","-0.15399364364270451","-0.27170533034556865","-0.76161019485388"
"-0.228160349601001","0.15488271109584395","-0.06549530094854498","-0.14997873702176395","-0.03051114153260379","0.19753700363353344","-0.20351085617968054","-0.30246158505314624","-0.7705898606962518"
"-0.04067787237952725","-0.11170554726267104","-0.11331503401709658","-0.270767399812215","0.1592157623095165","-0.07817527065306142","-0.16983344361850938","-0.26864676460404646","-0.788095515883733"
"-0.06884864453225942","0.01940745755478291","-0.02620988503638205","0.11045627686694301","-0.3079270436230766","-0.003182998287276232","-0.16047226453370944","-0.26851272387433833","-0.7942123265882056"
"0.09854677599347178","0.024568072159294605","-0.14986980246336998","0.048129065136490026","-0.22914655618994717","0.13200946921637513","-0.2518864615111933","-0.2926400552218041","-0.8553960776500811"
"0.19363174566961855","0.11594799259106003","-0.09706058358176338","-0.09692333109705688","-0.2839937309851639","0.08132367500058886","-0.333596997242238","-0.300731241087823","-0.8997468662617958"
"0.15534673111661074","0.028131955001997083","0.0729393399077957","0.013003774343142928","0.08700268983238575","-0.059277720953027406","-0.3076539734980818","-0.2897642722935203","-0.8945999846204362"
"0.13254202346025165","0.03839144765783981","0.13094847982001218","0.05984412590897233","0.042067578776495085","-0.010224695527154376","-0.2969514059468621","-0.29524775669067166","-0.8805516572224399"
"0.17295420202584053","-0.012051525601214039","0.029172071391909308","0.029814467782726624","0.07198105379179104","-0.03902035174178019","-0.3055990805282475","-0.30291244932580097","-0.8682398157277592"
"0.03788527577198278","0.07919509999982041","0.22152330470921935","0.01698312608543115","0.19869306503369272","0.061909788036876794","-0.29318410216883267","-0.306470621423508","-0.851078328917512"
"-0.37807085930368795","0.22896657491265135","-0.27828121349308316","0.13995331326235755","0.4165780177194525","-0.04490896145120783","-0.2032825347385878","-0.3199843640822654","-0.7707463008677218"
"-0.10614169351488038","-0.3882165534414978","0.30338844976074225","-0.11811042156918473","0.009668806527549199","-0.05178491837095113","-0.17711118955333888","-0.30940733195620457","-0.7520360563599227"
"-0.05741298454946714","-0.17810180710500328","-0.2355052451627495","0.34991358474773093","-0.11826345542285553","-0.058645109267376046","-0.21598291489936844","-0.3214222555464073","-0.7673671931639722"
"-0.10097349710945774","0.0743291371263983","-0.09757832102177912","-0.23233226410088728","-0.019452748096692018","-0.12576698279260895","-0.1777105333362073","-0.3276856132800423","-0.7532250016630937"
"-0.07547706150937283","0.025174212863250306","0.12317406761590466","0.03423771458913751","-0.24453225717146249","-0.06240727658173258","-0.15798926886182638","-0.2809175841327829","-0.7932893295765335"
"0.06693218026772944","0.04614078818549563","-0.0005589175949564965","-0.013111964685879805","-0.31159935085323254","0.20964925104790497","-0.22137700894518328","-0.2967587612801089","-0.8385944032342144"
"0.2535811832752493","0.17484887363586607","-0.08478519589106735","-0.0925262573486721","-0.21547037753971132","0.014943001646612893","-0.3167297507815158","-0.30744546309411264","-0.8929260747857084"
"0.1278594734472116","0.009661079842080459","0.04590551246529582","-0.030174181213094325","0.12493350800317299","-0.08943418205532383","-0.2901873832544912","-0.2856090096725679","-0.8958045739407545"
"0.14521394883716646","-0.03528551614936771","0.09643543402025247","0.042928478506703976","0.08045426956895685","-0.04437488741129655","-0.2503167516036811","-0.27954062027305376","-0.8754986396839624"
"0.17980558976215935","0.07501946403923672","-0.21103797582006967","0.0461569252142234","0.04406993595155855","0.035706657281672674","-0.30574178142893044","-0.29406576116506344","-0.8818188226113459"
"-0.04130133734272106","0.23031355425477512","-0.2717176388503028","0.03881407378500107","0.45700505507211736","0.050944518818919836","-0.2824529944374767","-0.29978077045898344","-0.8518448857577147"
"-0.2748874078951076","-0.07517995743541478","-0.161748536470183","0.03164658184455362","0.2515141392881337","-0.09123939172528223","-0.13875318744976772","-0.29550365262920536","-0.7533501538002696"
"-0.04643671980271243","-0.4194496369369927","-0.016752826152223368","0.05385311292679807","-0.2133493035360868","-0.1479694851307655","-0.15165334887150436","-0.27587277848740366","-0.7693383393244927"
"-0.3424677285107767","0.11487040911736104","-0.02516188425054372","-0.16832605069806","0.026305149725679274","0.12423681972039703","-0.1650957737158365","-0.2790044573542212","-0.7824010936422288"
"-0.15833227372329095","-0.07248038633724173","0.14744927306954644","-0.10363541182785019","-0.0051544932647961325","-0.11710158222622565","-0.10099452912906501","-0.23368650519198614","-0.7819161291106722"
"0.033849160483938455","-0.011277854341581699","-0.10857606632017824","0.12043606389229489","-0.32662098689382724","0.14466761518814678","-0.1340440577272313","-0.24955205338107733","-0.8054916629511852"
"0.1336757452749015","0.08766002330297948","-0.1808588934294741","-0.001811485152530917","-0.3147651329481945","0.15646060063032047","-0.23036716568820773","-0.27482482369150363","-0.8589942015938887"
"0.23636862819928464","0.030969030241345275","-0.02881109814226764","-0.11603489806771503","-0.07519773869403994","0.019591219471464305","-0.289245557309984","-0.2606774339468532","-0.9081633474868761"
"0.1071095750537577","-0.07758768300946102","0.2287048240384701","0.06016605452269337","-0.02864649587867117","-0.10765182199975125","-0.26892494905273484","-0.24097344667975618","-0.9114016590363029"
"0.17728876014758213","0.0920208689231052","-0.03359599416047773","0.017630909271577126","-0.003211177925803707","0.04181796207047291","-0.32372209491497933","-0.2731919638932408","-0.9123090120308284"
"0.14373814164139576","0.11204876801630802","-0.13844200106560295","0.09938376466900144","0.1678900052497124","0.025797711626049463","-0.3210963983424135","-0.2932127747032844","-0.8867310439955008"
"-0.04699455687504377","0.23589790611066325","-0.29364214931419563","-0.1117032569643955","0.5448555082073129","0.25341967328565196","-0.2576515778987835","-0.29467503720919136","-0.8387039113542435"
"-0.21603559676415232","-0.1537719927378927","-0.11086830708282863","0.11448038453845585","0.10805672365493055","-0.282782779773609","-0.1435193975325777","-0.2911412361532494","-0.7520517003770696"
"-0.03921765180783637","-0.444733561671441","-0.06141185565551754","0.19610760925735488","-0.2322490226430099","-0.060385284091145984","-0.1685205953322267","-0.2600681579027253","-0.7872663829749426"
"-0.21180259780352048","0.08765300778557258","-0.03562101559924902","-0.1123654353324558","-0.11161214724134037","-0.10350141636117874","-0.15607707679267527","-0.27504416306738966","-0.780742827824648"
"-0.13295068693221543","0.011845291031543036","0.18418775480098673","-0.048304258507773715","-0.17081702109027228","-0.0196951486592342","-0.13335909340395288","-0.2370253379138072","-0.8061330676542117"
"0.06917665413522726","0.06585579520235094","-0.09636748346045196","0.09962586545574285","-0.27338836096704117","0.11125349951768307","-0.1968609942078561","-0.2474195872266296","-0.8502179079744275"
"0.1748142605226112","0.09786619802652981","-0.156232962613241","-0.005198147995818112","-0.18818133588113886","0.11132247586970112","-0.2828810971395254","-0.2703039954440744","-0.89073591238513"
"0.22212081309303386","-0.0009931058230741555","-0.00813500295712247","-0.17484314214655888","0.05259063846014879","0.033308250984358946","-0.2941544682934768","-0.2488452931698889","-0.9157194077688717"
"0.11493898243365508","-0.04755705919750781","0.14504847445657015","0.027846253819163915","0.018509411316835343","0.00950254115001117","-0.2785144495786277","-0.24196047387124336","-0.9083667197097869"
"0.1786423353966214","0.09566753487120902","-0.0037793279778931786","0.014504537490359496","0.03163790966464276","0.0663085085427143","-0.2980359327920522","-0.2582525152912241","-0.903689158582837"
"0.0388089883358726","0.06521177070439801","0.0646680667733505","0.11897560725443851","0.19592300570060095","-0.06060403766468898","-0.2841654052456718","-0.2662340314692999","-0.8799102525194132"
"-0.3360033812608196","0.2030372225767687","0.003393005687099219","-0.0075119771906154735","0.40329756183108695","-0.007331827323516883","-0.19492026195856854","-0.26422342052367775","-0.8164581189712247"
"-0.04399208086808397","-0.3777213394007834","0.24450416656282173","-0.08149562204357229","0.12250218735424216","0.053701602146727485","-0.1553635722892607","-0.25526706267499727","-0.787970363746557"
"-0.27884148831957384","-0.04287349977666495","-0.24601030483274652","0.02327643788780687","-0.11034741729440306","0.1110643072378621","-0.1755414796458265","-0.2879730007237842","-0.7736091560056209"
"-0.017937808195667693","-0.09154154713177447","-0.1792555774861995","-0.06997685920628573","-0.024298294171240856","-0.08875624305263201","-0.1858444846751341","-0.2835740276851806","-0.7935865659023261"
"-0.08189218784118316","0.0733231119302496","-0.00888321706398395","0.025105934643831252","-0.28541833292789676","0.02638105448883078","-0.17197395712875338","-0.2731919638932408","-0.8084483821919661"
"0.10163784965309597","0.041530190145684466","-0.006288266911001776","0.02921379610102763","-0.23247062738965726","0.0917154551203385","-0.23327826406213936","-0.28460979696019806","-0.8500145357515168"
"0.17600393011422136","0.14677277297347371","-0.1378449328888106","0.031674063555481025","-0.23536731800654753","0.040458142559259704","-0.31196354069870613","-0.30316834526433467","-0.8852292183493897"
"0.19424044435736829","0.03088344092898116","0.005372933864965903","0.035554219407850335","0.08885150657584356","-0.08606222381809803","-0.33610853309425764","-0.2948090779388996","-0.9041428350800997"
"0.13446492066252316","0.02386090800467962","-0.00831161822899881","0.029669207310681768","0.04902596782122157","-0.051282376377676686","-0.3069119288145305","-0.30070687004605784","-0.8793627119192686"
"0.15658184802264316","-0.03855755346794337","-0.09406689209393036","-0.015597096545457989","0.09648262431574947","-0.04516910083596166","-0.3072258707960331","-0.29316403261975416","-0.8748728789980826"
"-0.1683897479979705","0.14357369703592976","-0.18395279216376173","0.07493681981972283","0.3469466405407633","-0.15816616071194978","-0.25936398870697863","-0.2949187476268425","-0.8352622275819058"
"-0.2253055363484818","-0.07927842270452262","0.030329005805247732","-0.11501938341630236","0.16496165681187255","0.08694623306651826","-0.19343617259146587","-0.28919155281204006","-0.7925384167534779"
"-0.06494378502594006","-0.33792932466887704","0.2611594459839736","0.04440594763227732","-0.1379625345087566","-0.17031191092587297","-0.18966886881343661","-0.2684761673116906","-0.8005012214812955"
"-0.24376338065356257","0.03811784247897092","-0.20939290685743894","-0.01300858110667671","0.06876145340121469","0.14588356973657945","-0.18110681477246074","-0.2945653675212484","-0.7878921436608223"
"-0.08932454648136234","0.027694186715806857","0.018452902238654163","-0.026529582882959916","-0.045433055437207194","-0.08799750318043334","-0.16326920218709476","-0.27665265182388743","-0.7989837518180374"
"0.059125742649633946","-0.0009407700632187217","-0.13989918144113117","0.031583766505290975","-0.2440099031257938","0.087306880849927","-0.18376105152516334","-0.2847194666481411","-0.8189768057318899"
"0.14163312704198075","0.0784430365338013","-0.11776590588045781","-0.09850418380183332","-0.3876730945951694","0.11476341045894499","-0.28094036489023755","-0.2956011367962659","-0.8770630413986613"
"0.22726768043392614","0.03911965836467547","-0.009567131521037008","-0.12388943278134759","-0.037551840911799285","-0.047524150569149756","-0.3261480102265891","-0.27253394576558265","-0.9234475522394846"
"0.11942300807683601","-0.014749693595905718","0.17336537218388326","0.04082023868270164","0.01592929890944131","-0.07528023462121763","-0.3055990805282475","-0.25418255131644957","-0.9237917206167183"
"0.16918059830124624","0.08297506077865524","0.018960201423830886","0.0228380391658697","0.03499997024949241","0.037967110874950284","-0.321553041224599","-0.25971477779713115","-0.9241828210453931"
"0.057967410375910654","0.12922556083534886","-0.13850045529270152","0.08635874234231282","0.26056827607972505","0.03259680918211551","-0.3072258707960331","-0.27851703651891885","-0.8940055119688507"
"-0.39211522794826503","0.20302319154195497","0.024958857714723063","0.22895479708011027","0.5117889142254348","-0.1958922837599997","-0.20157012393039267","-0.2970755848230554","-0.8050379864539223"
"-0.05080097454506931","-0.4664956966676282","0.12164173180553546","-0.05595071741009879","-0.04423005824112163","-0.042796314326540345","-0.1493986746407142","-0.28170964299014917","-0.773358851731269"
"-0.15544464652534054","0.02798603223993367","-0.20045776071523164","-0.016893971570651242","0.027262798809405277","0.1699779948729457","-0.1871858731415537","-0.3013892592154811","-0.7833084466367543"
"-0.06294213435463356","-0.06300382542400844","-0.15189064860020565","-0.11410201773248754","0.0364419839937476","-0.12690607797736436","-0.17391468937804125","-0.28090539861190034","-0.7906298466615452"
"-0.09790539321163544","0.011104873324419376","-0.10442164089424541","0.16455598780689148","-0.32573456790723787","-0.030837785639523312","-0.15499254994748488","-0.284585425918433","-0.7917718599132755"
"0.09076823022899286","0.04214615257400982","-0.09612949125012213","0.011144309435678661","-0.26275133312796883","0.15334286951910409","-0.23265038009913466","-0.3055445218364336","-0.8355751079248456"
"0.19466538495070304","0.12003803923927962","-0.009304087499093523","-0.08046309490444266","-0.25531174520480815","0.06595574377096479","-0.30793937529944765","-0.3177300427189921","-0.8854951666408886"
"0.1854643546517792","0.0302618660867303","0.05254340748253002","-0.012250609346240858","0.06029298629719134","-0.044394594940444565","-0.3201831125780428","-0.3008287252548834","-0.9043305632858638"
"0.13879800215672036","0.011945051689069078","0.09470268371697393","0.039421288731206594","0.0685271855261875","-0.020170100111701422","-0.318099679428072","-0.29348085616270064","-0.9045026474744806"
"0.17848482845855135","0.03437716859761469","-0.04713232303572825","0.04243904232161591","0.07291970818294728","-0.01368139613971665","-0.3189844250123063","-0.29636882461186703","-0.8915806893110675"
"-0.009619473028844661","0.08786768261822357","-0.07540746774368526","0.13580488356522075","0.3173307490423938","-0.06314630892478325","-0.2795989764238181","-0.3052276982934871","-0.8531902712323555"
"-0.36886654761022114","0.040446994258059935","-0.2972496101865635","0.07228025443007369","0.24994707715112752","-0.06430314088577187","-0.13273120944094832","-0.3184246174092979","-0.7416327849571747"
"-0.09216295276116585","-0.3548507526543069","0.25637872526769917","-0.0940429860612846","-0.16572011191738345","-0.06452977747097408","-0.14905619247907514","-0.2887894306229156","-0.7669760927352974"
"-0.16054721503990066","-0.05898393394985781","-0.1778819031493835","0.14584225131823006","0.07700989864963818","0.10132287557999704","-0.16289817984531926","-0.3054957797529033","-0.7654273350377454"
"-0.09956249745591378","0.04787642719196136","-0.06609236912533735","-0.17290633585262746","-0.0791502176396","-0.05539730846378275","-0.1360989506970653","-0.29872063014220085","-0.7668196525638276"
"0.011565210141573372","-0.00867621986640889","-0.06649319811115599","0.06694095059274932","-0.23468667485613065","0.004629854568163837","-0.15427904544407034","-0.2915068017797262","-0.7960426765944035"
"0.11344430721926141","0.061981826490263715","-0.2287997102541584","-0.04573013825090679","-0.38624849265243655","0.1199366368602996","-0.25696661357550554","-0.31191754925801163","-0.8587438973195366"
"0.21859823605098866","0.09381543827578884","-0.012381285025638759","-0.1239417788973998","-0.07981503187954203","0.0392185389758494","-0.3264619522080916","-0.3011089922351823","-0.9096182410815461"
"0.12026960786896239","-0.023070097240482763","0.10577140914827843","0.024384866895212205","0.029051465693058814","-0.04147196836779357","-0.3049997367453792","-0.2861939146749307","-0.9047998838002734"
"0.16289262600798207","0.05355057767065775","0.05037433812698016","-0.018366206084619363","0.04372961437635014","0.03535586326283797","-0.3104223709713306","-0.2951380870027286","-0.8975254158269234"
"0.05932754841403615","0.08342545699617789","0.1076377691134965","0.02580737259893073","0.2173395215730189","0.023444632645776172","-0.30123243296735","-0.3066655897576289","-0.8695539131681064"
"-0.3160032815204698","0.20911266065113954","-0.0795618931696181","0.21315935656135895","0.5039694324508787","-0.06295908739787708","-0.1815919978347827","-0.3218243777355317","-0.7707932329191627"
"-0.06735561001513728","-0.34154933165083456","0.13010089352708312","-0.06743676392485275","-0.05620462901531541","0.012416102259254082","-0.15011217914412908","-0.31335544072215354","-0.7453717050553051"
"-0.17042421261470833","-0.02875687565051156","-0.06947018839124655","-0.0009812757519430284","0.05388386044594076","0.07079000067097349","-0.1853593016128123","-0.32294544565672706","-0.7583718833044533"
"-0.08041556029677667","-0.11325036419566924","-0.1585711316971831","-0.06211316392234402","0.012200007601576073","-0.10342652775041629","-0.14654465662705565","-0.31570724625248736","-0.7463103460841244"
"-0.09306533626052538","0.0827645952564484","-0.0896828250615389","0.0023212407097902552","-0.26610706214862856","0.03908058627181328","-0.14645903608664596","-0.31619466708778965","-0.7612816704937932"
"0.0703776445380112","0.05259366109635732","0.058177559914443365","-0.03552002831492522","-0.19541514796812703","0.12547642330380732","-0.2307381880299834","-0.3113935718600616","-0.8340576382615876"
"0.15684337516773025","0.07909828585960527","-0.09756997041790791","-0.023131011298270842","-0.26455582892209717","0.11966664371097176","-0.30000520522147683","-0.3205814546055108","-0.8754204195982275"
"0.20617487631071563","0.021179577251764496","0.12630971936954843","-0.13041045018855038","0.06945792546210634","-0.01704369768765992","-0.3169580722226085","-0.30828626403500925","-0.8910957247795106"
"0.13183324223893655","-0.018219568505355808","0.05089792098970577","-0.005332284918201874","0.0719430644066515","-0.054670100638220906","-0.29384052631197416","-0.3006581279625276","-0.883539664497515"
"0.1779450390562072","0.007388473133291011","-0.013554544869545422","0.03892138332290808","0.03655436925811876","-0.029544971727413365","-0.2952104549585304","-0.29825758034866356","-0.8743409824150851"
"-0.04331939498674321","0.1523150317249205","-0.038806770976120133","0.09490686309363705","0.24538835093438224","-0.08043769499925384","-0.29424008883388664","-0.2963200825283368","-0.8605742473257345"
"-0.31093352695134097","0.0123005981112505","-0.12158213184960617","0.09888385926070292","0.21904904390429836","0.01709900533540601","-0.2107886021145099","-0.3162312236504373","-0.7849041363857472"
"-0.12730668831803965","-0.33443559700024345","0.1667976222391673","0.038306316459294734","-0.0997214696926631","-0.05206476528485299","-0.20956137436863673","-0.3176447440728141","-0.7743913568629703"
"-0.09439430105049115","-0.08973855915820253","-0.1487132438272058","0.09428132700681327","0.01769738820947759","0.09182581728356738","-0.23496213469019786","-0.3451840212673963","-0.7696355756502856"
