"AccX","AccY","AccZ","GyroX","GyroY","GyroZ","MagX","MagY","MagZ"
"-0.1027454501627455","0.46088554934977444","-0.11090588480024911","-0.048554211211922965","-0.15864617182619087","0.18177295106803418","-0.6948015170508661","0.2979799564349231","0.961906818247081"
"-0.28028530191854906","-0.10004435422893077","0.016702615667246075","0.16205646076539892","-0.27774131134761393","-0.023701689335026165","-0.6244499730141824","0.3317338492796101","0.9305249198502203"
"-0.13885719710984126","0.038773091804774874","-0.14360684955995365","0.14401013725640305","-0.046101035459244176","0.046599008641781965","-0.560434348967821","0.3643788597239843","0.8940743598977352"
"0.07949663997335686","0.00340549731173546","-0.04529101488212386","-0.10205717642887638","-0.3438111836694709","0.02427037811707811","-0.39096275931677515","0.3423961800518488","0.8522579020638327"
"0.1815299625945718","-0.10979872963147708","-0.03182984144171432","-0.06376860984249484","-0.245909372382771","0.1360396589271447","-0.26487224347333976","0.3258360571724518","0.8112080010701328"
"0.16520929055542866","-0.04164718733393977","0.005133689064055398","-0.06628122341300044","0.012969292650651837","-0.02983664315880402","-0.23265038009913466","0.30961712887776643","0.8069684724232987"
"0.1485553929004311","-0.01983734681938571","0.05450078902994441","-0.10741611005972033","0.027115589941989548","0.011691062261898517","-0.24749127377015914","0.28183414126553313","0.8202502429810926"
"0.17155682015965054","-0.009443436850026889","0.05089458074815728","-0.0514175437599783","0.0174631203344504","-0.017603982741338058","-0.2684112258102766","0.2705869054909316","0.8315921554126599"
"0.1486953443776954","-0.05219010689302104","-0.06459761103238865","-0.026647361644077366","0.03904425687580637","-0.011493269178412265","-0.29141461100036437","0.26074100461782435","0.8476429170054708"
"-0.030439921404975742","-0.21921273910940586","-0.38745283320350127","0.3976401560583241","0.21795684908153648","-0.22086172319053793","-0.39752700074819","0.2871104718076809","0.875504911544259"
"-0.26789803751825036","0.018623122708692083","0.3176387552669822","-0.17274929750447088","0.7933060870199309","0.2890114709269716","-0.5679974967040161","0.3332204828272822","0.9125655881654766"
"-0.052622148516503923","0.6011818664528534","-0.24019410923644055","-0.28937644406877194","-0.21687915057196944","0.21567975496719832","-0.6684874709649342","0.2789827293790144","0.9611559054240255"
"-0.4489325744624825","-0.2845833303068502","-0.06751614708538066","0.25099251193808636","-0.6017432798565001","-0.009491969593431081","-0.5666275680574598","0.3343537362693602","0.9117208112395393"
"-0.11211383158336868","0.05191876832181405","-0.004480361172882257","0.029949259031561037","0.030134163169535814","0.07959729544722252","-0.47244497360672727","0.30821579397627225","0.8911332846741012"
"0.13083733899509797","-0.008727713764175497","-0.06314460595879605","-0.05156149557912185","-0.2816352233244172","-0.013104556761554177","-0.35677162351314556","0.29528695631987767","0.8556526537847295"
"0.29281845852467214","-0.14044250966479285","-0.027291288237705272","-0.07727259913106108","-0.0627293059130321","0.23899376194930308","-0.23813009468535903","0.26259320379197326","0.8204692592211503"
"0.14515570408402595","0.08154389522764874","-0.04433904604080457","-0.12173146414709567","0.06904479089871379","-0.006846825031184171","-0.22622883956840295","0.25748747054218124","0.8230818100846977"
"0.17387676610164027","-0.016154200180766024","0.04532556302643946","-0.007334392991908385","-0.026411453719627994","-0.006020094183424835","-0.222090513448598","0.24689825289523792","0.8229879459818158"
"0.1624839283176358","-0.04705053884073002","-0.02590926329701806","-0.09091530562716565","0.0034163868899992457","-0.03569175006868003","-0.27600291372660823","0.23108144678967701","0.8479870853827047"
"0.09621370447330956","-0.09038679296659961","-0.20659127925864404","-0.2210255030336121","0.15655650534974844","-0.10343835226790508","-0.3197835500561307","0.2110118938961032","0.8682930196394967"
"-0.24917768164971962","-0.28235239577145765","0.032485716267068185","0.36530334286707766","0.19818653989849877","-0.4628110585407491","-0.49327930510643475","0.2860015894073681","0.9091864804617269"
"-0.20156464682896902","0.21810655396677842","0.16519013099395713","-0.13095092383678933","0.4208993102790756","0.17065396312272268","-0.6596400151225925","0.28339388793850057","0.954554130187996"
"-0.17698700170095924","0.19920675007260424","-0.07533648761077988","-0.02014335672459154","-0.10945150096152881","-0.11754697238497085","-0.6624369527759779","0.2733895752939201","0.9597322998636493"
"-0.16340202829241982","-0.12249962234491912","-0.18151859113530058","-0.04567386617615068","-0.2321857070011107","0.12975492788184192","-0.6308429733647777","0.2838569377320378","0.9510968023985112"
"-0.03857777987192695","-0.033395535759950294","-0.08060989395545644","0.0036937558726789343","-0.16871177599712256","0.013159076108134346","-0.52550116848064","0.2722806928936073","0.9237041283741331"
"0.1082104829229763","0.04195813670750505","-0.03688613208573912","-0.010907408008341413","-0.2140457755969784","-0.06714299583600121","-0.42575323890327305","0.2745471997777631","0.8861115551699178"
"0.2295679380086571","-0.0589642905011185","-0.01625596522188567","-0.016251422996110487","-0.13631316203728142","0.08443943535889044","-0.2294824201039735","0.2738769961292224","0.8195149741751842"
"0.15814772949862263","-0.01599284328040745","0.05026536274646072","-0.01415103508951597","-0.01806122857685147","0.044070532652091314","-0.22788417001632483","0.2710012132009386","0.8194054660551551"
"0.1525972506289259","-0.024976914871676723","0.04371598413026146","0.06696843230367672","0.010784111559604315","-0.010856715986931295","-0.2893311778503936","0.2617645883719593","0.8407908374950895"
"0.17297471074173507","0.034430486529907094","-0.006711224997079158","-0.01828245229893584","0.03524373547080449","-0.015475766668643644","-0.317757197266433","0.2705869054909316","0.849019590514406"
"0.08441216899895881","-0.09116972470920905","-0.21303377014529165","-0.0046248271597563945","0.1916017131409778","-0.017253385797794826","-0.35982542278776014","0.2706478330953444","0.8611749918376167"
"-0.3445350070729457","-0.23370679807205022","-0.19643694495123834","0.04473311085760357","0.33488501075895805","-0.17105882628058283","-0.516682252818435","0.33871615274531613","0.8912897248455711"
"-0.22893147731863545","0.4734433255081158","0.24622856626222905","0.02136057004029636","0.1631571610177442","0.16920348897742862","-0.7134667948601933","0.3025860833285302","0.9568850887428973"
"-0.24332039239024067","0.10142446845530677","-0.12139424326250368","0.05248949660363827","0.003489674745497616","-0.06976409721268753","-0.687095668413988","0.326079767590103","0.9436971822879853"
"-0.09408256856889426","0.0019407554944195554","-0.17098847965368993","-0.08774705695310626","-0.2587149609568923","0.17879908491959837","-0.6021600923275091","0.3082401650180373","0.9269111518892659"
"-0.026387399144215787","-0.09600201309907808","-0.005723766089307179","0.10404911226215374","-0.3113619171961104","0.0778847111642598","-0.44496078013519524","0.3285656138501449","0.8684807478452607"
"0.18531012910825234","-0.07741790748821417","0.05031671896026873","-0.06746686294158276","-0.13658541929744814","0.05814367921669064","-0.25231456421324205","0.3163069798422911","0.803542432668108"
"0.17874734002200138","-0.0346934064802258","0.017936417389219094","-0.16612751382386762","0.002937562348136243","-0.04085512270546062","-0.23076672821011984","0.29289859422689624","0.8086423822580265"
"0.1491598257752748","0.038232896964443985","0.0503137962489138","-0.12340915716656868","-0.022628344116148405","-0.024172699281663778","-0.27343429751431547","0.2688078194420781","0.8305127182295174"
"0.1595604026633836","-0.03963513694164239","0.006466445441902399","-0.03206387600257874","-0.02321401380371637","-0.023638625241752503","-0.2708371411218863","0.258377013566608","0.8305909383152525"
"0.16803276649006094","-0.09293482888878374","-0.06596293476533341","0.08897604814492281","0.022528371686389603","-0.026578988590636725","-0.2845649677675839","0.2661635614105629","0.8347366028592047"
"0.058745100882631386","-0.024017192090413537","-0.1864579733251283","-0.04828332006135284","0.3345051169075626","-0.06571025846694033","-0.3940165585913899","0.2509316603073648","0.8820284666945535"
"-0.6731666705669616","-0.2994842892790944","0.17569519066395414","-0.2866544460340576","-0.04557709852252797","-0.37329946115045354","-0.520963279838923","0.3542161353079305","0.8771318893275457"
"-0.07457467801001333","0.8161794129045465","0.08530407905991381","0.03402963877783002","-0.015768885761889482","0.36912257691366285","-0.6713700291587292","0.30348781187383955","0.9453398040884192"
"-0.4774150790968116","-0.14149483727582707","-0.43596984169529995","0.49489923968331123","-0.06517645547243771","-0.3057026361727534","-0.6438287553269241","0.3166969165105329","0.9326212181479171"
"0.002231283363652984","-0.0603631846720533","0.07439819040409815","0.008566655815978213","-0.19402220384634375","0.19009544062724198","-0.43069069006690236","0.30738717855625824","0.8737997136752371"
"0.0396588695225421","-0.07836359923466356","0.012853404812806389","-0.08340625527947759","-0.2022690662037198","-0.0062630880178198905","-0.3560010386494578","0.2863184129503146","0.8506778563319868"
"0.22070325065040364","-0.06847733210486763","-0.0073563091461310405","-0.026864598025693995","-0.03545609316493444","-0.03512811473504673","-0.2682114445493203","0.2740110368589306","0.8225655575188471"
"0.17558358347324698","-0.011262560513634669","-0.020376988232333627","-0.06997031594177922","0.05355778489015967","-0.026173013490187563","-0.24575032278182743","0.2740110368589306","0.8144463126195596"
"0.14933291933742468","0.009883050812834606","0.0026806991768839965","0.003982968163867337","-0.00926383671316156","-0.02345140371484634","-0.26567136851716416","0.2674186700614664","0.8258977331711558"
"0.1733715954117261","-0.02370289691058466","0.0489864677635831","0.04781367978727552","0.04438967994314972","-0.01151041472877104","-0.28156824885324244","0.2763384713474992","0.8283069118117922"
"0.12187913189236545","-0.014431189105632703","0.004424722795388672","-0.08158591909376235","0.11862093850581876","-0.008360757420334876","-0.3648199543116627","0.26917338506855487","0.8631930700495783"
"-0.04207246506035556","-0.14122824761436506","-0.35050558637528045","0.26304520515910534","0.19989606222977824","-0.09305051365398505","-0.47275891558822974","0.27892180177460163","0.8991117334190658"
"-0.28182755735381804","-0.05864999532128962","0.29614430090245736","-0.22955791995012068","0.45144910749545897","0.18024955906489246","-0.5627746437390209","0.3281513061401379","0.9050877479692158"
"-0.1062237283784585","0.699623606706399","-0.1531223626712109","-0.2597878019702661","-0.2798307275302888","0.2716294302184201","-0.6953723206535979","0.26035106794958246","0.9661150588596211"
"-0.41552797801346536","-0.2293571772797755","-0.08372884450135777","0.46249699384699955","-0.301310559044606","-0.26199133652245055","-0.5749327604772063","0.2931057480818997","0.9252528860716849"
"-0.08064525791479545","0.0599725823049291","-0.0080531670391845","0.13888021788328747","-0.07477194100226756","0.17992832633977973","-0.5192794092108642","0.30971461304482684","0.9021310287284346"
"0.05775576042787906","-0.05332100829901246","-0.04169190461362726","-0.10906763002116722","-0.359386831576684","0.023960969909454233","-0.3547738109035845","0.29306919151925204","0.8501146717146951"
"0.23041945989259818","-0.12172651232667935","-0.03793413287157745","-0.03705376951525468","-0.14021973714246452","0.18041313155682098","-0.2133857585069394","0.2727681137289096","0.8031982642908743"
"0.14536735403205756","-0.06607100963430278","-0.014631772768933026","-0.07112716510653283","-0.010408108651385577","-0.021870859877175335","-0.2056228295097881","0.242840474441346","0.8146496848424705"
"0.15863271961209657","-0.018293932989868894","0.04465292188461255","-0.02602182555725358","0.07034117866660074","-0.002745294064898763","-0.22719920569304672","0.23527326597327713","0.8277593712116476"
"0.17203934922721717","0.04440374607554851","0.07318234248044825","-0.010285012688480756","0.11181134121955548","0.016151664409260805","-0.2907296466770864","0.2267068447928385","0.8449365020390418"
"0.11304233638772854","0.048455908929770856","0.03605392930124126","-0.06890768978591955","0.02230043537555234","0.047667156721604514","-0.33625123399494056","0.21173083962817413","0.8702641658000174"
"-0.09588733556761325","-0.2271683358488244","-0.535968323053181","0.3763352868250787","0.31555791106921505","-0.21908804556721637","-0.3951296256167169","0.2602657693034046","0.8788840192480087"
"-0.30770135332636234","-0.06235138230516724","0.14465182077268712","-0.07649395065478462","0.38517345933742947","0.12133192992397925","-0.6083818515972848","0.3012700470732139","0.932777658319387"
"-0.14274564964344497","0.6029497768393909","-0.008862340554305893","-0.3263066289435989","-0.22186525737153456","0.2908048560794412","-0.6556158497233341","0.24575281393227744","0.9644567930420404"
"-0.24254926467260612","-0.146026861520681","-0.04661458559571251","0.3363297676321851","-0.19052401463141075","-0.3006378011817129","-0.5352048297270792","0.2506757643688311","0.9284129775353768"
"-0.03841371014477067","-0.08079938687833739","-0.05758727908249795","0.013859371610016132","-0.038778581473597064","0.11404999790378677","-0.44907056607486356","0.29727319622373466","0.8845315094380717"
"0.07218897432581643","0.056598118432212775","-0.15310566146346846","-0.039652754177246397","-0.22040899760785207","-0.0827730372032939","-0.3547738109035845","0.27627754374308644","0.8632087140667252"
"0.22334641395489124","-0.09339785303763878","-0.03770031596318323","-0.016069520242829094","-0.14350423606598758","0.050918899031027406","-0.23710264820044188","0.27081843038770026","0.8157134780084657"
"0.14473519337332444","0.03276500269751031","0.08002649741330163","-0.05249718240355492","0.060375296631660344","0.017995894986932288","-0.24617842548387617","0.265249647344371","0.8260854613769196"
"0.15665994521276955","-0.027021236644045824","0.07506623871379589","-0.046449897346624545","-0.018583107755205955","-0.004817737830104286","-0.2632169130254177","0.24811680498349378","0.8311854109668381"
"0.16713579729169759","-0.06241171575486654","0.0075453434620642535","0.009673645305192108","-0.006229751153349977","-0.03615684775657325","-0.26946721247533023","0.2528813436485741","0.8367703250883132"
"0.09314231918094414","-0.03845793312076547","-0.14548156012904295","-0.20547870656610878","0.17654841927943346","-0.09941604556879473","-0.30402937062073515","0.23722294931448648","0.850271111886165"
"-0.2925905314552696","-0.2628913504847319","-0.15263802764668","0.34791134580873423","0.29331829185210695","-0.392928160181879","-0.4713033664012638","0.29392217798103115","0.8908829803997494"
"-0.1627293424110791","0.2395880682666898","0.3938046131763962","-0.06524607896806817","0.14408490678664562","0.14989602267111585","-0.6007045431405431","0.27313367935538635","0.9410689874072913"
"-0.15642906488827818","0.30303640769464496","-0.19589415569960894","-0.1224512232428134","-0.038913127212632945","-0.0850315200436567","-0.6243072721134995","0.2573778008542382","0.9512219545356873"
"-0.19623238069639015","-0.20779147677098142","-0.09190408569128392","0.029166684596580655","-0.4539170849322494","0.12928983019394868","-0.4903682067325031","0.27187857070448285","0.9079036710556738"
"-0.022252842019877712","0.010543772242215943","-0.06520720511498784","-0.0168835023474408","-0.04832183159886002","0.0622526990440523","-0.3906202771551363","0.2531859816706381","0.8824508551575221"
"0.14979329899182517","-0.08128626378637588","0.07371260582627083","0.005750042176499472","-0.22868751778617769","0.055518636334174705","-0.27740138255330105","0.24526539309697507","0.8409785657008535"
"0.2227180268998827","-0.026660639049331438","-0.10051355828251358","0.023450488723680437","-0.04734360493151676","-0.004793497569252224","-0.2272562860533198","0.25027364217970666","0.8192803139179794"
"0.15623319985243606","0.013277438754986508","0.03419759006066865","-0.010328459964804082","-0.009425133310899876","-0.010423938646840833","-0.23461965252855896","0.24733693164701004","0.8204692592211503"
"0.18023217105276568","-0.028088998393375187","0.011815007221419958","0.13134237717177072","0.01725417871618291","-0.04505873867273276","-0.24420915305445184","0.26835695516942343","0.8189674335750396"
"0.13982507864871863","-0.06938373695383843","-0.031429012455895675","0.042418103875195026","0.0847644818912476","-0.011487159844376378","-0.2869338027189205","0.28886518681476936","0.8252093964166882"
"-0.01012808918302909","-0.08679344495078817","-0.31594243695229346","0.24616358273227093","0.27625472636026177","-0.11394443605671324","-0.43791135564145867","0.29009592442390775","0.8838588167007511"
"-0.3266185928674807","-0.15639579624807126","0.3227535001381056","-0.391817793182927","0.11397831906355699","9.121060537539997e-05","-0.49787427410842505","0.3567507236515026","0.8714374670860416"
"-0.1876351269934014","0.7873035432577682","-0.10850926148920845","-0.1933474941710115","-0.21361839501415852","0.29941704631712485","-0.6668321405170122","0.28352792866820875","0.954632350273731"
"-0.3799904751114164","-0.20212293870621054","-0.18772726511355403","0.38139977355312904","-0.32206226067708194","-0.14247699675721304","-0.536317896752406","0.32779792603454366","0.9011923876996154"
"-0.030538363241269538","-0.03220149469729682","0.035471683446320325","0.035941580666636615","0.006462818999981181","0.11891578685043229","-0.4374547127592731","0.30122130498968364","0.8786180709565098"
"0.10966250000830932","-0.03425984750447971","-0.02682782972285246","-0.044378299803858726","-0.27685489236102456","0.013242833107013418","-0.33787802426272584","0.28834120941681934","0.847408256748266"
"0.2802933755535622","-0.13271842499980188","-0.040869370132311914","-0.12752748784697548","-0.09254622457443172","0.14487257349128618","-0.22545825470471517","0.25046861051382757","0.8157760540770536"
"0.16119292926253392","0.052990739381587555","-0.06259346610329541","-0.1503844194211685","0.1145434111675077","-0.12871522915315237","-0.18267652467997308","0.25425830750830325","0.8041681933539875"
"0.16225751209416014","0.013879089527801793","0.03695688009783647","0.0001063456743315526","-0.008899138615821938","-0.014769054673395737","-0.2075921019392124","0.2438031305910681","0.8143837365509716"
"0.17569728379416627","-0.07781638887692578","-0.02371305447888673","0.1383698432517785","-0.011286929760947029","0.010342476042299677","-0.282081972095701","0.24266987714899013","0.8421987990383186"
"0.07738506258485561","-0.026173762141292953","-0.2883019381385493","-0.055493997547543354","0.271980920532063","-0.138858694405637","-0.3621086371986871","0.2466423569567042","0.8698104893027548"
"-0.4511475157790922","-0.4071724814749271","0.2558108842044561","0.44857292697711443","0.08842254310197621","-0.49724011196233575","-0.5530139021323087","0.36043075095803534","0.8888961902220819"
"-0.024057609018596743","0.4262709864641562","0.18197902007704855","-0.05957961190541755","0.2801011516056406","0.18543066847790624","-0.6601251981849146","0.34206717098801964","0.9246584134200995"
"-0.17367279321240256","0.15656643527349864","-0.19001533057426875","-0.13576676651359174","-0.032369455622346485","-0.2047212568183116","-0.6166014234766214","0.30591273052946866","0.9291951783927261"
"-0.03797072188144872","-0.1814973175299403","0.01055949392938176","-0.15288394646266104","-0.28663715903445713","0.33975835848311675","-0.5435385623269621","0.3281147495774902","0.8983608205960104"
"-0.04505853409459974","0.04147406600642931","-0.08527788151946941","-0.09430209933574298","-0.15126356798073948","0.012768472880420635","-0.49008280493113726","0.3041214589597326","0.8919624175828917"
"0.1292507847334968","-0.07417954465319161","-0.0175711853316031","-0.05489463451874567","-0.21258951583329588","0.046352664527431746","-0.3607672487322676","0.28661086545149606","0.852038885823775"
"0.2352086552282898","-0.07318895359533807","0.02847738465586237","-0.08392579048129568","-0.03161283370165057","0.07092401186918001","-0.19186646268395352","0.2944583408998637","0.7930765851967722"
"0.1415560142702173","-0.005060983436287944","-0.008691153174945846","-0.08177436511155027","0.010356256109470201","-0.015968454897344084","-0.2033966954591344","0.2697582900709176","0.803448568565226"
"0.1728710186741723","-0.02166699375910383","0.012173665657688935","0.02464921478127581","0.017364981089506577","-0.027515096225167558","-0.2796845969642278","0.24720289091730188","0.8383973028716003"
"0.1577167183253831","-0.023485415870970923","-0.08331966491166791","-0.009228798931837494","0.07058019521477035","-0.04683438704896914","-0.32009749203763294","0.2575605836674766","0.8482530336742036"
"0.026740019206257123","-0.04186747458051626","-0.22946358326192057","0.033877835041278635","0.36147758035663885","-0.024612177181664575","-0.44033727095306846","0.2532225382332858","0.894262088103499"
"-0.5459798180754183","-0.3247682140135426","-0.05797558216250977","0.10625680970665527","0.10426728248726104","-0.21804354652237143","-0.5835804350585919","0.36425700451515874","0.8969997911042222"
"-0.11746250468866322","0.5527607653104666","0.16712747109208057","-0.15280542728858276","0.15717383285826605","0.32012965945169125","-0.6949156777714125","0.32188794840650287","0.9411628515101731"
"-0.19716757814118088","0.06578704313176337","-0.09973277682055436","-0.026846276885075727","-0.14508712711346858","-0.31228495090819125","-0.653075773691178","0.28973035879743103","0.9482808793120533"
"-0.04194120927863055","-0.12670472347861178","-0.049061312529980486","-0.0374280442450279","-0.11281039576428348","0.21491116133042565","-0.5569524469911573","0.3373635599273521","0.8995654099163285"
"0.0151484929826664","0.04716645683038362","-0.1394148464166003","-0.098103736014034","-0.23178998423924044","-0.02583010248301206","-0.46308379452192716","0.32120555923707955","0.8762245363330206"
"0.16271493849347182","-0.12223724199390128","0.002820154261533401","-0.05407280049672612","-0.24440562588766404","0.11812551493159677","-0.22671402263072477","0.2834304445011483","0.8112236450872798"
"0.1866423752927613","-0.0908596388398243","0.06711020087548931","0.004043166197327368","0.06816628636736183","0.016802012871145383","-0.19500588249897807","0.26075319013870696","0.8100346997841086"
"0.1483165073776916","-0.004244798141169822","-0.012761237501779345","-0.034640613565248266","0.06391622390487535","-0.014130530728999969","-0.25448361790362267","0.26715058860205015","0.824223823336428"
"0.17553862836800616","0.010845158870016136","0.07618104433060399","-0.0447865995090659","0.06508123171582136","0.005017501666505342","-0.28838935190588644","0.25854761085896383","0.8413070900609402"
"0.09588556501899702","0.005408553810717204","0.06772355272983055","-0.11467782500906173","0.09179884970625318","0.005219503840272522","-0.3539746858597601","0.24137821193543896","0.8696696931484319"
"-0.10533775185181458","-0.2871510096777736","-0.480436807309556","0.4482588502808012","0.2566268773714973","-0.27876244382741344","-0.44401895419068804","0.2787633900031284","0.8925568902344774"
"-0.19396821846163356","0.018719936848907236","0.1614240086480361","-0.07169904642440311","0.7080515752026041","0.2618347882318554","-0.631784799309285","0.3185003736011516","0.9350773288399943"
"-0.10794646051359938","0.5686438967196761","-0.10184547959997348","-0.30839117072473354","-0.4062878933135461","0.10756030855534458","-0.696257066237832","0.27577793738690154","0.9657396024480933"
"-0.31040850382444085","-0.2871089165733322","0.009227990142115446","0.30341714716436446","-0.311725982137031","-0.13386283576661456","-0.5355758520688547","0.326189437278046","0.9035233462545168"
"-0.0816296762777331","0.007228379026065673","-0.07464756279140407","-0.021164105987609438","0.024581381374972466","0.07032687373599507","-0.5033539886946495","0.32380107518506457","0.8966712667441356"
"0.08938184103452235","0.040954917718319106","-0.10071397277542289","-0.17247448039519683","-0.2824266688481577","-0.07022328264183633","-0.40075204110362417","0.2642260635902361","0.8830609718262549"
"0.22634396787003636","-0.07774342749589408","0.009032168481335296","-0.05876955575950976","-0.24142979071839976","0.05237922694089551","-0.2749754672416912","0.2441443251757797","0.841666902455321"
"0.1390030893156657","-0.0077804786038965824","0.08444396686117797","-0.06002847985056516","0.02588726648914429","-0.008055487793832085","-0.2579655198802861","0.25502599532390446","0.8350494832021444"
"0.14049284243824467","0.008305681879068416","0.03722422468077364","-0.03376512477427523","-0.0022869278431795507","-0.003772647559384916","-0.2740051011170471","0.2381612344224435","0.8476585610226179"
