"AccX","AccY","AccZ","GyroX","GyroY","GyroZ","MagX","MagY","MagZ"
"0.1681313723960819","0.11093049454164901","-0.06319888488395899","0.07472089209100752","0.09501528431473458","0.018488386140341245","-0.2714364849047545","-0.27543409973563154","-0.9061922013263554"
"0.040357806560227825","0.0647796148321333","-0.18048311625526914","0.11304348365282298","0.31644433005580436","-0.12280888266749153","-0.24743419340988607","-0.2948578200224297","-0.8683336798306412"
"-0.5415663424149146","0.1999784569873627","0.007364552888252304","0.3088873162918193","0.3528508241478674","-0.2633511560336637","-0.11666308802405052","-0.2983550645157241","-0.7747511692573511"
"-0.03857777987192695","-0.5641376679367878","0.1802880227931261","0.03631847270221245","-0.1504610422196666","-0.1421281734912931","-0.10479037308723105","-0.27605556130064207","-0.7790376299556261"
"-0.3016143664488646","0.09642240454419089","-0.1592224787991384","-0.06563867483845967","0.2476993718637045","0.18495177551960942","-0.1214292981068605","-0.3041919290184696","-0.7726079389082136"
"-0.11403344739109711","-0.09261492129502934","-0.12834612098529583","-0.09660794574784237","-0.0690434583014338","-0.1244721981275842","-0.08278589420192321","-0.275531583902692","-0.7795069504700358"
"0.014406897815920052","0.10716035548718383","0.002258993681387296","0.026583403769404594","-0.26727840152376453","0.029835784348478257","-0.13672683466007018","-0.27092545700908494","-0.8298024655976064"
"0.12496856485471808","0.07189334948272447","0.05439056105884428","0.015450693538003005","-0.27050749926062573","0.1267061731226436","-0.2054801286091052","-0.2869981590531795","-0.8668631422188243"
"0.22054082162051894","0.12118156857660346","-0.04238082943300306","-0.05268562842134284","-0.11569600614384136","0.0178744966073805","-0.2600489530302569","-0.2969537296142299","-0.8957732859064604"
"0.12666504583351393","-0.03699589929316862","0.11435165462595882","-0.052387255559845296","0.13091208748950872","-0.0318369573673278","-0.23205103631626622","-0.27395965170884196","-0.8947094927404654"
"0.16939766255027397","0.048820715834929376","0.10623486766313124","-0.020730941877277483","0.03415945510328","0.04754497004088681","-0.232079576496403","-0.27564125359063507","-0.8905951162308071"
"0.0791340458763415","0.03787650868017374","-0.037437271941239754","0.12031435917247352","0.19421348336932148","-0.11262600235671086","-0.25065923376532","-0.28291600955752244","-0.8795504401250326"
"-0.3232223495153459","0.21639476771949614","-0.06610907033307979","0.13452240372194185","0.4653310619818674","-0.01656736670815234","-0.1434337769921677","-0.2935905258506437","-0.7986865154922447"
"-0.07262224825685369","-0.3275884520111143","0.18655515099847808","-0.1534466672102222","-0.05667791343851222","0.00612841508457909","-0.10918556082826489","-0.28866757541409005","-0.7754238619946717"
"-0.047092998711337514","-0.18660461420215962","-0.18037873370687885","0.19761256009385564","-0.051647485689617606","0.03399604375162475","-0.15036904076535815","-0.29730710971982405","-0.7933049735936804"
"-0.14523950949622033","0.07945327104039414","-0.1367635296874874","-0.08862254574407931","-0.052445262777548025","-0.14068952386348782","-0.10667402497624537","-0.3021691325519648","-0.7695573555645506"
"-0.05416440395177292","0.03745838384272282","0.014016226401874025","0.017892639851838123","-0.25080050571948725","-0.008101603412038446","-0.11512191829667494","-0.2744105159814966","-0.8113581693813061"
"0.10197091119922322","0.0671438441982568","-0.06612577154082223","-0.06915109922556228","-0.32491146456254777","0.13923622015495318","-0.19820238267427584","-0.28463416800196323","-0.8631867981892819"
"0.21102969953726977","0.12399759726373095","0.028234799613403378","-0.05137174090843263","-0.1678886726524324","0.03692655333593497","-0.2660423908589398","-0.28083228548660494","-0.9103535098874546"
"0.14155109217840264","-0.012052928704695418","0.07399318611634388","-0.06361026284143693","0.10953989256642024","-0.031967027059704715","-0.2512585775481884","-0.2610673706150951","-0.9139359898141151"
"0.16583636505261992","0.018398626151671454","0.029085433876745385","0.0014053145441668903","0.06726403847029766","0.0026928015282051943","-0.23855819738740777","-0.2565465423676659","-0.9103378658703076"
"0.1481704853205225","0.04720434062438086","-0.06808398814862374","0.10818183812447492","0.09641772578280275","-0.02358147340722325","-0.2672981587849496","-0.26287082770571374","-0.9026410094339888"
"-0.04912746332807531","0.17529786674990736","-0.2656133474204397","0.009361269857650605","0.4834551644755248","0.03738376801216897","-0.19437799853597318","-0.27595807713358156","-0.8448363660758633"
"-0.2817455224902399","-0.07079525905610563","-0.034234815356626196","-0.13830555314212342","0.023270747587658194","-0.0324005927009611","-0.11974542747880168","-0.26670926678371965","-0.7954794919771119"
"-0.09903747432901373","-0.538222346635719","0.17397914156841807","0.21258354928478476","-0.22512601292934542","-0.1475300072307647","-0.12442601702120197","-0.24554301701071557","-0.8110765770726601"
"-0.278349279138105","0.11442422221028253","-0.18315530949406011","-0.09731069235584315","0.1105608572920455","0.251271552608518","-0.15402218382284127","-0.2892159238538052","-0.801220846270057"
"-0.10870118125851823","-0.014786174286421573","0.06653233908760077","-0.12297730170913802","-0.010994886362686784","-0.07431653644587959","-0.11874652117402129","-0.25459685902645657","-0.8131572313532098"
"0.04412484749573586","0.0008940683593805027","-0.24023168695386105","0.1625799219259209","-0.3047454326176398","0.03541301509736722","-0.13775428114498733","-0.27298481003823727","-0.8236543668588396"
"0.14782364191731415","0.09558615486928905","-0.12621671699813428","-0.1441944911979959","-0.3430988826981045","0.18554891365279436","-0.218836932913027","-0.2856943083187458","-0.8713216871057161"
"0.21969586252566414","0.022223486241910416","-0.016418801997374496","-0.12357273877923179","-0.019198060927152323","-0.018264382043088122","-0.25728055555700813","-0.2606774339468532","-0.9151249351172863"
"0.1156067462231811","0.00010285830623092505","0.19793702407495337","0.028547691774263386","-0.020861837707159606","-0.00936662970804969","-0.2406416305373787","-0.2418142476206527","-0.9205064770158506"
"0.18329699355604487","0.05022943173023382","0.035514062760966775","0.016382454403732163","0.02454180909878544","0.026580100533225758","-0.28550679371209126","-0.26149386384598466","-0.9298146672183093"
"0.14317866387179287","0.09138245683907778","-0.1414774455727921","0.1724733378597867","0.10582484727798233","0.0020085561161860255","-0.2948108924366183","-0.2869981590531795","-0.9081946355211701"
"-0.06474690135335258","0.20748506061273994","-0.5177640066139174","-0.08879136196834764","0.6161805788068068","0.0766510198395939","-0.20690713761593446","-0.2935295982462309","-0.8416136985435833"
"-0.1835661977599258","-0.222734528847667","-0.10767002580015068","-0.35805454832925815","0.02227352622774516","-0.0339693120211433","-0.11369490928984549","-0.26601469209341383","-0.7934770577822972"
"-0.10799568143174626","-0.3521287319004317","0.19547359593294297","0.30794508620287975","-0.29648274134978897","-0.040997016915326354","-0.14754356293183635","-0.24036417063562823","-0.8387977754571253"
"-0.13263895445061852","0.07162395361429971","-0.07594190639144345","-0.09046905498782065","0.036551203476023794","-0.11854023185403094","-0.1317608433163044","-0.2688782895008151","-0.809965851855224"
"-0.09280282469707533","0.01968527204409594","-0.012965827296624285","-0.0038732677985369355","-0.14915673999654225","0.008561900783776296","-0.10493307398791396","-0.2417167634535922","-0.8224967095899625"
"0.06955073311314355","0.029435438136198103","-0.11997881590633158","-0.07967921181656097","-0.22012407721930546","0.11621388460423906","-0.1583602912036022","-0.2407053652203399","-0.8676453430761738"
"0.18914936072370914","0.10529843716739398","0.10267751041399076","-0.09423143207907252","-0.14777012743894888","0.056892251115791534","-0.22777000929577837","-0.23194397570578032","-0.9175341137579226"
"0.16129763856240506","0.018390207530783183","0.024467424676901665","-0.04271369331339878","0.02235108788907173","0.008037089282564589","-0.24495119773800286","-0.22170813816443122","-0.9319735415845939"
"0.14890912723218003","0.03191752819475743","0.10398855522177257","0.13236312643478862","0.028973904031732244","-0.006083552427281452","-0.2501455105228617","-0.22906819277749652","-0.9259193069487089"
"0.1642281535870341","0.04508425126401729","0.056484892509746705","0.11041570862700253","0.07545708253205934","-0.027225395546691695","-0.24734857286947623","-0.25072186338580293","-0.9040020389257769"
"0.030057509089356966","0.021029445179256947","-0.0743552916559113","0.22984468105299763","0.21627898457120662","-0.12515407863610561","-0.22768438875536853","-0.2824895163266329","-0.8614972443374069"
"-0.35075324973216854","0.07915020068841629","-0.2681936840166472","0.12376265956741217","0.2293694935338745","-0.08199853130777682","-0.14845684869620704","-0.29266442626356926","-0.796965673606076"
"-0.12033372491389802","-0.3468390317756332","0.1421967432345479","-0.1514313417422125","-0.027938943580447163","-0.05957530464316246","-0.14731524149074343","-0.27397183722972457","-0.8043809377337487"
"-0.19834888017670604","-0.08072081308338017","-0.033700376708868","0.11364677264032456","-0.0418082349384757","0.11828908742352531","-0.16549533623774845","-0.2798696293368828","-0.8134701116961496"
"-0.11818441148815083","0.04711734820853536","0.024495399199870253","-0.11019961478079604","-0.09263644936413813","-0.12215262194686254","-0.15179604977218758","-0.27219275118087094","-0.8213546963382322"
"-0.015722866879058005","0.029119739852887846","-0.10053025949025603","0.11703487500180322","-0.2770606681971971","0.004483624701885547","-0.1656951174987046","-0.27144943440703495","-0.843694352824133"
"0.16741110629386582","0.0815060114336515","-0.24452389734366906","-0.1433569533411607","-0.30742051848788265","0.1496122342513844","-0.26692713644317395","-0.27907757047951653","-0.9056603047433577"
"0.22912166835079206","0.03622224967562798","-0.07048896206353561","-0.17417572916689333","0.0418412253567053","-0.051105008615344526","-0.2997768837803841","-0.24749270035192494","-0.9452240241080938"
"0.1390424660501832","-0.009972266552158607","0.160008581291864","-0.02495527344269001","0.018955786592224983","-0.0015961480402778606","-0.27394802075677405","-0.22254893910532775","-0.9512156826753907"
"0.16418877685251662","0.011929617550773909","0.060975847271689795","-0.013588314341954823","0.037770029582584165","0.021726136104069045","-0.27474714580059845","-0.22438895275859405","-0.9471169501828796"
"0.1348209519704523","0.008112053598638123","0.0858009399902515","0.2797436161797571","0.07533994859454574","-0.010948553072761059","-0.2821105122758376","-0.25111180005404476","-0.9266858637889114"
"-0.045042127121884094","0.34637827423444","-0.8373833697849316","-0.20114706546278924","0.6723732109923823","0.3529032804248444","-0.21115962445628556","-0.2888991003108587","-0.8491384707912853"
"-0.1488162295482271","-0.27755378186514174","-0.25796419427440054","-0.22708456596665424","0.04378976423615442","-0.2374357552040207","-0.09731284589144543","-0.25385354225262047","-0.7949475953941143"
"-0.06566569182542767","-0.30417065490690004","0.1674113916237021","0.06950198432060319","-0.2921139620587414","-0.001396904920591403","-0.14760064329210926","-0.22828831944101277","-0.8443826895786005"
"-0.2258469664480975","0.08893684747103431","-0.040355807994231774","-0.12898925313773318","-0.015791362814763715","-0.20150892956718475","-0.1161493647815921","-0.21794281221172063","-0.8399085006745618"
"-0.04929153305523158","0.004213951506671185","0.01875811681014732","-0.050665068341727924","-0.15041513837928963","-0.02159298371618829","-0.10541825705023561","-0.16645898648291102","-0.8720569559116247"
"0.09577071620998763","0.07557368991438139","-0.08902730265764801","-0.09569581467563279","-0.2702067499616044","0.16285766459176698","-0.17100359100410978","-0.16632494575320286","-0.9168770650377491"
"0.21237671199722277","0.0855750115296504","0.04033273697183595","-0.05300363107635995","-0.08527125732020904","0.02779802583457324","-0.23527607667170047","-0.16130451114958877","-0.9580051861171841"
"0.1519478626488414","-0.06321709715317803","0.11385061839368552","0.08049336003866382","0.004933113091695541","0.021948831183441642","-0.23187979523544686","-0.17625614527248806","-0.9459592929140023"
"0.16804704055632355","0.05568048875539096","0.014040860683294127","0.030624523928634413","0.0430157305139362","0.09840616126609046","-0.24038476891614918","-0.204380327469433","-0.9362287142485749"
"0.14914391101174065","0.12146639858332337","-0.11840055177467067","0.1346925285991115","0.136303414397229","0.13417335591682744","-0.24951762655985668","-0.21958785753086602","-0.9232598240337209"
"-0.03718318719109861","0.05067842484427508","-0.36829237262098286","0.11304740961152689","0.4936648117317773","-0.21818149922640753","-0.18447455602857804","-0.24113185845122945","-0.864203659303836"
"-0.41073714198050204","-0.13318706156258242","0.020771864933692458","-0.14059569571940717","-0.053000857535213865","0.037076330557459895","-0.08050267979099629","-0.2162124682463973","-0.8100284279238119"
"0.0017800916139732342","-0.351511366368625","0.16662643485980727","0.12574265140708665","-0.08301880335964358","-0.11103166324863625","-0.12742273593554346","-0.22241489837561956","-0.8297086014947246"
"-0.24072809070117152","0.023726210070467248","-0.4014818477071539","0.08509196633384959","0.1547994962870445","0.012236960819298605","-0.07117004088633311","-0.24525056450953417","-0.7887525646039065"
"-0.0724089576115505","0.018209207181685307","-0.11153635539252638","-0.05340277021125797","-0.3297867689887892","-0.030782604557908863","-0.08897911329156231","-0.231675894246364","-0.8151283775137306"
"0.13158713764820215","0.018390207530783183","0.10314514423077917","-0.035306717892012514","-0.23395854497428942","0.13904702787513218","-0.16292672002545572","-0.22591214286891387","-0.8795191520907386"
"0.17643395686909794","0.13807072518196162","-0.18629096124770383","-0.05682228024236793","-0.42621649160133185","0.011036378143601377","-0.2791423335416326","-0.23762242843705259","-0.9383563005805654"
"0.1598535788588391","-0.014453638761334762","0.1040720612604848","0.07137728392817325","0.07549032324405644","-0.12059572714416915","-0.28302379804020833","-0.22697228318569643","-0.9483528275374916"
"0.16973023188721975","0.05928085228860928","0.002210560178934212","0.10539048148599135","0.022498296756487467","-0.0060959681706447034","-0.2803981014676425","-0.25040503984285645","-0.9297208031154273"
"0.16401158154718784","0.059593744364956784","-0.08548664661624998","0.08060328688237346","0.1044714754323861","-0.01514192112487623","-0.2937263655914279","-0.25621753330383684","-0.9265450676345887"
"0.005924492921940691","0.17545220813285903","-0.24525457518240096","-0.017647755641802917","0.47717108701702526","0.14982113406035336","-0.2361608222559347","-0.2672210586607871","-0.8781894106332446"
"-0.40368214371278227","-0.08811516843024712","-0.2860222232817058","0.0440879449772602","0.2299709921319173","-0.09359444145847032","-0.0594685670303327","-0.2656613119878196","-0.7577774106528677"
"-0.04684689412060309","-0.3815237498353203","0.13792123405248236","0.035104042809801415","-0.26074106149766796","-0.13074313390248338","-0.0827288138416503","-0.25424347892086235","-0.7791627820928021"
"-0.14225344046197613","-0.03744489240720988","-0.06605896670985247","-0.02650210117203251","0.0991133892366629","0.03699158818212342","-0.11563564153913336","-0.26926822616905693","-0.7945408509482925"
"-0.1971511711684653","-0.011531675761363148","-0.14225405173281572","-0.030095662039016022","-0.08822176623271362","-0.06472094050370984","-0.07727763943556222","-0.2415827227238841","-0.7950727475312901"
"0.06458598316939472","0.04056485495049576","-0.11400395883647241","-0.020223184551571148","-0.3413102158144509","0.043556166141328054","-0.14386187969421643","-0.23952336969473167","-0.8574141558620427"
"0.1441680043265452","0.11764153849308442","0.0464528945490544","-0.11182627033711816","-0.3117734688684555","0.1313256179549389","-0.2294824201039735","-0.24362989023215392","-0.9144522423799658"
"0.1976580167740335","0.06950947666786167","0.054669053697949534","-0.05662990826587609","-0.013329334079511763","-0.025871488294222894","-0.2605912164528519","-0.2331016001896234","-0.9358376138199002"
"0.13494728566036263","-0.03626207617240744","0.061516548872351404","0.10181785906542871","0.039232620910456616","-0.01837080270048742","-0.24004228675451028","-0.23170026528812915","-0.9236039924109545"
"0.1759853902350527","0.04294732466187719","0.03328415925621506","0.11717228355644024","0.03695484069313145","0.018334076187112268","-0.2705802795006569","-0.25168451953552506","-0.9255594945543283"
"0.08857297727964192","0.10341827850234622","-0.0008286420999969613","0.03692699630131928","0.17222712671981036","0.006832959251620718","-0.26664173464180796","-0.27455674223208737","-0.8994965619874439"
"-0.3141492936036039","0.17517158743658323","-0.06300264569298528","0.0757952961229789","0.4803843558434117","-0.11429523007554795","-0.14839976833593382","-0.2661243617813569","-0.8257975972079773"
"-0.1334757100591155","-0.29618699609785387","0.3105282160706369","-0.15752966426229378","-0.031123720367978936","0.04475044240769792","-0.1025356988564406","-0.2658197237592929","-0.7915528436732175"
"-0.04761802183823759","-0.2081843457457675","-0.1017035193341627","0.30572037627066123","-0.07591320544750135","0.019842096317518567","-0.13635581231829436","-0.2854262268593295","-0.8003760693441195"
"-0.1449277770146234","0.06287420030442072","-0.17052502113883714","-0.1274280302264763","-0.07632950579298885","-0.07713668386696089","-0.13752595970389475","-0.2828063398695794","-0.8040993454251031"
"-0.017675296632217685","-0.005674981519739363","-0.05728665734313396","-0.042372134906158175","-0.16131334324119634","-0.010268249166571495","-0.1393239910524997","-0.2578382075812171","-0.832164712186802"
"0.07579522692871135","0.024690142162174574","-0.022531444031108846","-0.09975394732257958","-0.26786407121133243","0.1745797029290078","-0.19423529763529027","-0.2574848274756229","-0.8763277725927529"
"0.18939546531444357","0.10071169188676628","0.07200198462325105","-0.021575022998619207","-0.20725517300328491","0.03271308360408882","-0.26647049356098873","-0.2661365473022394","-0.9194583278670024"
"0.1764531530271752","-0.0033473731544798593","0.10362947925531005","0.015143160106196332","0.029000813179539415","-0.04376986626645241","-0.28736190542096923","-0.26045809457096714","-0.9329434706477071"
"0.15750342768007994","0.06273950237020834","0.05733707163480489","0.09487807272980835","0.06995495325101536","-0.0021794909030591796","-0.2968087050461792","-0.2678181491840325","-0.9311131206415094"
"0.15892574814479768","0.10906577001489641","0.044415347204476284","0.051357511844009454","0.10796649886522414","0.09252740532123682","-0.29666600414549626","-0.27637238484358856","-0.9175341137579226"
"-0.01869252894058657","0.09275749825082913","-0.23778496001959307","0.14694151975532624","0.3671126724856712","-0.0728877405826483","-0.25448361790362267","-0.2971486979483508","-0.8635778986179565"
"-0.3151008980211103","-0.006323215328136428","-0.16459191708833404","0.10065446663616859","0.12226158791502506","-0.01604314643281507","-0.14266319212847992","-0.3297205952674296","-0.7634249008429308"
"-0.11626479568042247","-0.319815258724275","-0.06068117781678563","-0.012745672738804538","-0.11625318379255467","-0.05351523943014707","-0.16657986308293884","-0.32577248650148066","-0.7706211487305459"
"-0.13198267554199344","-0.12279146786904593","-0.1150686608300532","0.009011728667712042","0.03751834990603469","-0.010578051524778328","-0.17973688612590485","-0.3143668389554059","-0.7884553282781137"
"-0.13774152296517864","0.0216720665737285","0.03736117458426168","-0.2019453437325853","-0.09151892828461655","-0.016138727949182956","-0.16643716218225593","-0.29895215503896944","-0.8033640766191946"
"-0.007699857221116247","-0.015089244638399418","0.07671130767642659","-0.0005150027232080588","-0.10846694272999563","-0.026151335208124744","-0.16301234056586572","-0.27576310879946064","-0.8308819027807488"
"0.10484869421354424","0.023296860405165293","-0.16013269462110158","0.03800270898619198","-0.21225710871332487","0.1082540135813548","-0.19394989583392444","-0.2954427250247926","-0.8535970156781773"
"0.1930164841927825","0.13266737367517137","-0.0450780744834077","-0.1616780939594306","-0.24215792060024102","0.08219277703601642","-0.29301286108801333","-0.2941998018947717","-0.9140924299855849"
"0.1452695684746724","0.013499550036088792","0.021157662832542903","0.022449369254182117","0.017678393516907816","-0.08938688398536858","-0.2906725663168133","-0.2821483217419213","-0.9192080235926505"
"0.14300967205282192","0.07024750909906698","0.07129552353574568","-0.06136854042150147","0.09867334552546317","-0.041217741241784144","-0.26772626148699835","-0.27211963805557565","-0.9128878406652668"
"0.1656503099820247","-0.017221961930095387","-0.009654812861684837","0.07216509297475886","0.09469554032314342","-0.06829588629116022","-0.24663506836606167","-0.26352884583337194","-0.9004508470334104"
"-0.1211048526315325","0.1531849558833754","-0.049616627687416745","0.1365769887769907","0.2809559127712803","-0.13633021841594636","-0.19081047601889992","-0.26579535271752774","-0.8607932635657924"
"-0.30441995878323685","-0.005443469445311839","-0.015245542153467835","-0.1504105924791946","-0.01595250112339728","0.10535897754951103","-0.11977396765893845","-0.26128670999098114","-0.8145964809307329"
"-0.06686340083366847","-0.47649982448985995","0.13281901508716581","0.06399255560610917","-0.19522520104242932","-0.14991461825767483","-0.12573886530748465","-0.2532077096458449","-0.821761440784054"
"-0.24333679936295627","0.04480924298166702","-0.43425796790169946","-0.05350615379046108","0.25567714274300873","0.13783698558544394","-0.11971688729866523","-0.2840248919578353","-0.798092042840659"
"-0.10811053024075562","0.03690275486409676","-0.021320606469781688","-0.18889807430657451","-0.17200418937588302","-0.15454391685454413","-0.0871525417628209","-0.2450799672171783","-0.8179130125658944"
"0.0272256655986397","0.04147406600642931","0.04886496647725682","-0.031488068726004535","-0.21678417710912054","0.09338271208626077","-0.14009457591618718","-0.21476239126137286","-0.8797851003822373"
"0.190087839563043","0.07496474300346294","0.12349556586494669","-0.085450371111316","-0.3378278555099927","0.06837582835034134","-0.24540784062018836","-0.2182961923173148","-0.9416571881985801"
"0.20591892753635185","0.013915710528665784","-0.1292479862033878","0.07163639720263164","-0.026564994151233652","-0.026176954996017167","-0.28619175803536917","-0.23017707517780933","-0.9556116514936946"
"0.13667658058458973","0.036822777965658166","0.027535019008994986","0.09645499947588086","0.05180077582745576","0.021935035913038033","-0.2603058146514861","-0.24850409858517733","-0.9341324159508785"
"0.16780815503358404","0.06182046958990514","0.062252654603599605","0.01573467121758619","0.06641560886884786","0.01586078127903607","-0.25533982330772026","-0.2665508550122464","-0.9183476026495659"
"0.09318661800727632","0.0641538306794383","0.0944563409027729","0.04462841862549917","0.1430702736252103","-0.005511048705531544","-0.26644195338085197","-0.278651077248627","-0.9042054111486877"
"-0.12958725752551184","0.1322731015969039","-0.09415457343457818","-0.03809414857179215","0.49953733751793183","0.03451041026238801","-0.17708264937320242","-0.27820021297597236","-0.8464320558248561"
"-0.20889856363285444","-0.16101200670180793","0.09321210092596086","-0.09822936669255926","0.09440587126145439","0.0839506886360196","-0.09822613165581612","-0.2819046113242701","-0.783574394928253"
"-0.04389363903179017","-0.3365683142919394","-0.09734032881144929","0.1709291274362468","-0.22864003105475322","-0.06673110847680763","-0.1379255222258067","-0.28202646653309565","-0.8037082449964282"
"-0.1755103741565528","0.011855954618001516","-0.18351438546052262","-0.1421791657299862","0.03865486567812605","-0.03245577378257555","-0.11851819973292838","-0.29454099647948323","-0.7922724684619791"
"-0.08533765211146489","-0.004202564726380316","0.08022273660427534","-0.007650432667573541","-0.21580278465968233","-0.04545486000860791","-0.09080568482030403","-0.26307798156071727","-0.8072750809059418"
"0.07733091957489406","0.0485330796212467","-0.062000573228438674","-0.0041763518104791725","-0.22234012468577888","0.13313476913072692","-0.14052267861823622","-0.2729726245173547","-0.8446955699215403"
"0.20716093537092484","0.16222094230345574","0.07302451606728216","-0.05923151023367043","-0.24195214476406846","0.04805539504582046","-0.23487651414978833","-0.2760677468215246","-0.9075062987667024"
"0.16662718113751318","0.04871688617730734","0.023388944186933366","0.01701845971376639","0.09703663618236782","-0.04095760185703031","-0.24620696566401276","-0.2683299410611","-0.9180972983752143"
