"AccX","AccY","AccZ","GyroX","GyroY","GyroZ","MagX","MagY","MagZ"
"-0.19961221707580937","0.0398829466585456","0.09247724778529334","0.1679977449373236","-0.28264827359480504","-0.1540374333554401","-0.5822390465921723","0.25284478708592645","0.9421171365561395"
"-0.08558375670219931","-0.06549994651738154","-0.08095226871417653","-0.004487026009248978","-0.004140018392465559","0.06011246137857759","-0.5330643162168351","0.2872932546209193","0.9145054462917034"
"0.06058104112951009","0.032532087519601405","-0.15685508260164702","-0.14779328667658462","-0.24557696526279996","0.036213140780776726","-0.45280932967275633","0.26057040732546854","0.9003319667565309"
"0.16759453624882653","-0.07014141283378304","-0.02393852078340972","0.018111184886356057","-0.25162360906417736","-0.030739247993783223","-0.2968087050461792","0.25000556072029034","0.8482217456399096"
"0.16059166293342436","-0.03181143192947348","0.11643513029182864","0.12715992249919994","0.09821114133959873","0.012077132757908181","-0.2586219440234276","0.26634634422380127","0.8306222263495466"
"0.14981364363799257","0.0011300984270180658","0.03856658425307254","-0.06130834238804145","-0.017067806155452392","0.020406914102900752","-0.2614474218569495","0.2660173351599722","0.8293237729263465"
"0.17445166642559584","-0.02808338597944967","0.017868359967668637","-0.11336917210775674","-0.004536532599859549","-0.027899393043553898","-0.2779721861560327","0.24079330693307613","0.8421205789525837"
"0.09996433843610197","-0.06975275316944109","-0.12478876373615533","-0.16504133191578446","0.1498276355069067","-0.06094300716603489","-0.3271183763512332","0.21729962267150335","0.8640691350098098"
"-0.20409132062717558","-0.2979549064843913","-0.23763882445184667","0.4194161403360392","0.2668365246277498","-0.30172171528485386","-0.465224308032171","0.28078618646963305","0.8973439594814561"
"-0.1689803990157331","0.12890986255203857","0.04366421038625989","-0.1016999141868201","0.48324938863935235","0.1272638961975325","-0.6655763725910024","0.2942390015239777","0.9479836429862605"
"-0.11890631828763844","0.35225727782141775","-0.02288634469563577","-0.09241502185206117","-0.2561031907285486","-0.060069963624777706","-0.6560154122452462","0.2665778691205699","0.9562906160913117"
"-0.13785637177418805","-0.10463390571652124","0.04000956860201967","-0.09759597868832764","-0.01602816331546687","0.1669075618316846","-0.5970799402631968","0.312029862012513","0.9244237531628945"
"-0.1301615015705588","0.0380322531666068","-0.17530574185511158","-0.0718809491776845","-0.3117101532265562","0.05013651012385112","-0.5419688524194499","0.30479166260827334","0.9116425911538043"
"0.10929170242493613","-0.09675547966857856","-0.012310304892733373","-0.019499499497149485","-0.2788018483494262","0.09535149424814773","-0.32580552806495006","0.27764232208193296","0.8537127956585029"
"0.20487380337436636","-0.11559214390609066","-0.006168018215256177","0.024506571615033567","-0.06663904680031016","0.08753351743512919","-0.2459501040427834","0.27544892832307244","0.8225186254674061"
"0.1711000500392475","-0.04061871248208901","-0.006706632164949984","-0.05197241259013161","0.03928960498816592","-0.037362948540431914","-0.249717407820813","0.2676989370417653","0.8265860699256233"
"0.12941649515792464","-0.004078951309670832","0.0810076933681702","-0.08186858812044422","0.046646882576857625","-0.04446751279829223","-0.29289870036746685","0.2497252937399915","0.8433095242557549"
"0.17414764522117526","0.06339755790297505","0.0391765958658653","-0.08517817130784455","0.09355902455105207","-0.03900064421263218","-0.3427298548859455","0.23729606243978188","0.8685120358795548"
"0.06631855948816498","0.01290589695311737","-0.15489269069190992","-0.001973627247002606","0.1778938766697923","0.04291961294984709","-0.4016367866878581","0.22836407563286645","0.8947314086179087"
"-0.5719520558842565","-0.6102997724741546","0.036626864232845786","0.32503609309392295","-0.254488641860118","-0.47463557602955964","-0.5187371457882691","0.3453572616263104","0.8927759064745351"
"-0.13554298862128455","0.5328787889793272","-0.08079360724062332","-0.09359150081033436","0.6861285341949922","0.3397386509539687","-0.7133526341396468","0.286501195763553","0.9697914028891635"
"-0.11411548225467523","0.1368598468775316","0.13841809498282004","-0.03740972310440964","-0.35724992866258465","-0.3585188142894404","-0.5867769352338894","0.2444245921560786","0.9488909959807859"
"-0.0978397653207729","-0.1736399380342183","-0.059887870449019553","-0.04285371917383841","-0.06059398588998022","0.12069734748541307","-0.47504212999915646","0.2890845261906554","0.8996749180363575"
"-0.0006350147697671081","0.029227778820954026","-0.17012001685108286","-0.13125191400408948","-0.20676447677856583","-0.008646319517689651","-0.39364553624961424","0.2685031814200141","0.8814339940429678"
"0.16855401601323644","-0.08072221618686154","-0.03240603310882863","-0.044636104425415817","-0.21156063665243324","0.024727592793312114","-0.26595677031853","0.24663017143582164","0.8424021712612294"
"0.18656362182372627","-0.07014842835118995","0.09540830974409219","0.07736306229874229","0.07210610218454205","-0.022657190290181234","-0.2300532237067053","0.25009085936646824","0.8273526267658258"
"0.147920114916882","0.035077317234822776","0.055913293674761576","-0.06767101279418633","0.010689771253174447","-0.015175029773844897","-0.28333774002171064","0.2520161716659125","0.8442481652845742"
"0.18051601168074605","-0.008411734860168961","0.02639683170134746","-0.056783020655328774","-0.0009189933999464693","-0.05521599919562099","-0.29446841027497905","0.24388842923724596","0.8500677396632542"
"0.09654184392762212","-0.052180285168651384","-0.1722076678188883","-0.21100122180961586","0.17401579360346386","-0.06234815399428854","-0.3236079341944332","0.23015534720260256","0.8677767670736464"
"-0.1604487732036069","-0.20679527329920236","-0.36292293433178724","0.3573336466981302","0.3607811082957472","-0.24147579867936428","-0.5057513638261226","0.2701725977809246","0.9214201018706726"
"-0.202532658219191","0.051472581414735555","0.14079384178418264","-0.06900845605932004","0.2926376487016901","0.13291798631009874","-0.653275554952134","0.2863549695129623","0.955868227628343"
"-0.14966939212943972","0.45570809750348606","-0.009654812861684837","-0.033198478068010163","-0.20309216954840986","0.03758675556239355","-0.6954294010138711","0.2436203477778297","0.9773631071883064"
"-0.2675042701730753","-0.20143541800033488","-0.09423390417135478","0.08150887469007652","-0.21429903816457535","-0.00809470577683664","-0.5822390465921723","0.2858309921150123","0.935499717302963"
"-0.061252216164923906","0.08106263073353577","-0.18977733836393895","-0.1287693994503139","-0.16522941569266433","0.06542758198979791","-0.5217053245224741","0.2470566646667112","0.9331374707137676"
"0.10441555013385168","-0.05825151393257801","-0.11577011155523582","-0.07625970178545101","-0.3767511463675505","0.017027269929307223","-0.3583698736007944","0.23183694908439562","0.8837493085807223"
"0.29780125613840813","-0.1103234903335128","0.011282656224629572","0.027152667781472267","-0.04403219686018651","0.10574524512081217","-0.23059548712930047","0.22786446927668158","0.8353623635450843"
"0.1325387420657085","0.08068659900052622","0.09554609470796735","-0.017126911787083532","0.016453235846157523","0.06121608301086657","-0.24988864890163237","0.22740141948314435","0.8443889614388973"
"0.1586210706614685","-0.020923348913973003","0.044070884794788386","0.02188795715952227","-0.04009712971614873","-0.004013276490282211","-0.2335351256833686","0.22347768175896052","0.8406187533064728"
"0.1739599494533085","-0.07578048572544496","-0.06425941157560415","-0.0984505290328798","-0.0197709091972357","-0.028234421039070198","-0.2496603274605396","0.22113806174950928","0.8445454016103672"
"0.10245655759160578","-0.09119918988231801","-0.25773455266794193","-0.09508467377072337","0.22716927497787592","-0.0707277953880256","-0.3018032365700818","0.21292502067466487","0.8619102606435253"
"-0.2674386422822128","-0.22322561506614963","-0.1068808937343202","0.37764393972638377","0.2930808581949848","-0.36734778734775225","-0.4886843361044446","0.30541312417328376","0.9009107953909695"
"-0.24569940343400662","0.2140656159404071","0.17580374851428","-0.18328395335997608","0.34170727117360117","0.15813574060790198","-0.6572997203513926","0.2911682502615729","0.9552737549767575"
"-0.07441060828285706","0.3460134673292815","0.05758257938861882","-0.02318728337302696","-0.18235629682640875","-0.07135252406201774","-0.6215674148203874","0.2572681311662952","0.953177456679061"
"-0.2701457927802913","-0.19869936621164594","-0.2718136707948219","0.037400728651591685","-0.3299450580935373","0.05937934129427134","-0.5792708678579674","0.2893891642127194","0.9329810305422975"
"-0.03706833838208922","-0.009480338471587153","-0.10836312592146206","-0.07253396697543571","-0.1604411702740343","0.08764387959835808","-0.45540648606518574","0.25278385948151366","0.9102502736277222"
"0.14091286093976474","-0.08813902118943055","0.040274700274930963","-0.017022219554979134","-0.29111674069882837","0.07617212688129707","-0.3086814199829987","0.24296232965017156","0.8600329785858866"
"0.21281477816873004","-0.08295876313617954","0.025940053669591623","-0.04601280727758867","0.01851574288102527","-0.03561883221083237","-0.18196302017655838","0.24510698132550182","0.8108481886757519"
"0.1305420134862167","0.08048174589224488","0.009364940045603485","-0.11717342609185039","0.00751449181192756","-0.025646822461935493","-0.21504108895486126","0.2295582566793572","0.8326872366129492"
"0.17676816690331526","-0.03710253515775342","0.015400338993529036","-0.0625306241978603","-0.044299705447210784","-0.04429014503596008","-0.24789083629207126","0.20667384846191234","0.8459533631535961"
"0.16428590613099311","-0.11448369215580133","-0.09742801015209714","0.11320052200097959","0.010349449677966032","-0.016396108279856065","-0.2587075645638374","0.21465536463998816","0.8466104118737697"
"0.03829052799805877","-0.0573394966696817","-0.1317072390434626","0.10793319407322698","0.37991826105979254","-0.09393735246564584","-0.37709223177039447","0.2312642296029154","0.8857360987583898"
"-0.43004814886679554","-0.17563234497777638","-0.08666408176209225","0.041795185094173855","0.3272554759100996","-0.08617652748715653","-0.5490468170933233","0.3151859119210957","0.915006054840407"
"-0.18030121018951595","0.4591877941373058","0.25918870347036527","-0.17261843221434037","0.11765220918476038","0.21510823662190584","-0.6804458064421636","0.25269856083533576","0.974906996496229"
"-0.17590414150172787","0.13042942362237198","-0.06610907033307979","0.12381631433636568","-0.08206906873115498","-0.17449779011691188","-0.6834425253565051","0.2787512044822458","0.9698696229748984"
"-0.09902106735629809","-0.13836591651235206","-0.10582036704267503","-0.08296916521044172","-0.21547037753971132","0.11472793690647856","-0.5522433172686207","0.30808175324656406","0.9178219779268652"
"0.020575919556995927","0.04240993602850906","-0.042455984867844056","-0.014119627419884652","-0.21564449555493423","-0.057752358196970846","-0.45340867345562463","0.2879147161859298","0.8963427423840488"
"0.187720313400178","-0.0983971107417919","0.04781988840277341","-0.032839907173052595","-0.1983751542269165","0.07746888229923664","-0.23924316171068571","0.26708966099763737","0.8280253195031464"
"0.18118049407572895","-0.03623682030974262","-0.02370470387501551","-0.07442889637652532","-0.002088433305825433","0.007414922587361675","-0.20930451274740752","0.25311286854534276","0.8214079002499698"
"0.1488003490030754","-0.010054207795471136","0.01566213042489184","-0.05232051426187874","-0.004964229760888917","0.011572028785844492","-0.25568230546935916","0.2489576059243903","0.837333509705605"
"0.1736244268612739","-0.015107484983657346","0.03914820381270314","0.03625042275134459","0.02394664206493258","0.00743305351417785","-0.2676691811267253","0.24888449279909497","0.8412758020266463"
"0.13351167554774523","-0.027656842521110475","-0.02693638757317835","-0.046955037366528264","0.08349658616221534","0.02093409050761022","-0.30748273241726215","0.24909164665409847","0.856372278573491"
"-0.05588713608691379","-0.14254716488686126","-0.44152299326966243","0.30740853851334465","0.3140699934845829","-0.10181445186610846","-0.4274371095313317","0.25197961510326483","0.9032730419801649"
"-0.27490381486782334","-0.1236796323727588","0.1241135105514171","-0.08730211496666257","0.25319200379846357","0.10747950768583771","-0.5834662743380454","0.299003540189058","0.9351711929428762"
"-0.15124446151013995","0.6294263395330112","0.1389024300073509","-0.015607565768668428","-0.23924540107287598","0.1834855353509969","-0.6674314842998804","0.27176890101653983","0.9659586186881512"
"-0.25580609862683307","-0.05361566003010203","-0.15991975422238544","0.08641501441706893","-0.15282271566250827","-0.0997293952822482","-0.5805551759641138","0.29031526379979383","0.9379245399607463"
"-0.02916017753315682","-0.10399409052901244","-0.15993645543012788","-0.13380378716163424","-0.23448089901995817","0.09617526896653487","-0.4451320212160149","0.2757048242616062","0.9015678441111432"
"0.09316857033728913","-0.04933198510145216","0.0029733878425703235","-0.009942145628338846","-0.21855701508229927","0.04436417483639678","-0.32055413491981843","0.24432710798901808","0.8654145204844508"
"0.22337430580850778","-0.09088208849552636","0.04317444746921273","-0.01441276566977697","-0.07362117921074887","-0.003756093234900582","-0.2300532237067053","0.24011091776365284","0.8309194626753392"
"0.15735970259909107","0.03933854250777059","-0.03473167628696389","-0.08240906176868318","0.025163885280445473","-0.04518486685928008","-0.2374451303620811","0.2493719136343973","0.834517586619147"
"0.16842719011414464","-0.034170048881671466","0.04501032773030084","-0.060271889290207895","0.024405680468702073","-0.04279040206779595","-0.25642435015291054","0.23702798098036557","0.843215660152873"
"0.15983095364346425","-0.0284608208159406","0.032209227772892035","0.03355852373336022","0.034312995534885656","-0.07153383333017951","-0.2871335839798765","0.243583791215182","0.8537440836927966"
"0.05761137906798154","0.0634284261795654","-0.03726608456187971","-0.06335245821987985","0.27680873822688007","0.028665157117086015","-0.3964424739029996","0.225451736141935","0.9015365560768492"
"-0.2183653868897714","-0.2518208640166522","-0.5601015682410119","0.3919736889956734","0.41854080261832893","-0.22760169815915993","-0.5588075587000355","0.2778738469787016","0.938393860475156"
"-0.1291278622894743","0.12600543834558423","0.14985007168252265","-0.29633847750371456","0.5540204473722279","0.43068889797206955","-0.654930885400056","0.2621667105610837","0.969103066134696"
"-0.07372151542880069","0.31929837704382674","0.04117698302321648","0.07372369858021312","-0.23558892275319485","-0.1441580489935389","-0.5917143863975187","0.23743010316948998","0.9587467267833891"
"-0.2131643765389176","-0.17839645883609287","-0.17219096661114586","-0.16587886977261965","-0.22515767075029505","0.09740896029120076","-0.5239599987532644","0.2856603948226565","0.925299818123126"
"-0.0308829096682977","0.005779253750497517","-0.09237589481000792","0.060685589724511456","-0.20735014646613378","-0.03163988207584762","-0.4418784406804441","0.24593559674551582","0.9104380018334861"
"0.14472452884105927","-0.0750789339847555","-0.02683200502478808","-0.020853955250000153","-0.20793581615370177","0.045473708727430166","-0.2954387763996231","0.2449607550749111","0.8573109196023103"
"0.23923000424089005","-0.14867872710048716","0.023741339670298928","0.04595015805581721","0.008479422194471977","0.07525769752882905","-0.20313983383790488","0.23961131140746797","0.8272431186457968"
"0.141024428354231","0.04390845054662175","-0.0328987187372307","0.004378704801221968","0.09337540918954426","-0.06410212408846208","-0.24181177792297845","0.25720720356188237","0.8377871862028676"
"0.184542282785161","0.032617676831965516","0.06245933204941235","-0.05086267492982498","0.03499838735844493","0.015605962927152201","-0.2730918153526764","0.25039549738853223","0.8523674101838618"
"0.14910617497449472","0.022766487289204062","0.0028376905296629657","-0.04911824061238542","0.017904746936697597","0.0038864865687006163","-0.32703275581082336","0.2397819086998238","0.8670727863020317"
"0.04701903748277252","-0.05084172444741589","-0.16091347608306084","0.052034085393984124","0.2026502926523952","0.0469872469659979","-0.375008798620424","0.23946508515687726","0.8861897752556527"
"-0.4116723394252928","-0.36545821497353154","-0.2383736775925142","0.20505879510228103","0.26104314339396933","-0.24989091362556773","-0.5086624622000546","0.2976875039337417","0.9144741582574094"
"-0.23245897645249533","0.3232551288613153","0.15853052440665774","-0.1313566062361939","0.43524030316925355","0.2958499835413336","-0.6514204432432559","0.26476222650906867","0.9674448003171152"
"-0.06430391309003063","0.2277037817794103","0.09013072809748","-0.019503425455853398","-0.2594747486596832","-0.24098311045066384","-0.5481335313289524","0.22141832872980813","0.9540691656564393"
"-0.17954648944459708","-0.20798791125837446","-0.16910959378266502","0.01284974589665933","-0.20570393977675355","0.11599513103069609","-0.5014132564453617","0.319950450586176","0.9057604407065362"
"0.06829067760858339","0.07735563133573264","-0.1517946166556866","-0.025884417002616556","-0.20021130784199445","0.019138931677517304","-0.40985635856719493","0.2815660598061168","0.8881139893647323"
"0.16413939186464258","-0.08485154973255973","0.01821699767929215","0.04380658460347963","-0.23720347162162547","0.0812586401544004","-0.2549117206056714","0.2853192002379448","0.8314826472926311"
"0.1659636831608932","-0.034773383378664396","0.032422251677646896","0.008777872394248838","0.058676854537713236","-0.013870982570120578","-0.22674256281086153","0.28903578410712516","0.8214861203357048"
"0.1688303094337676","0.043587139849385975","0.05688071113324262","-0.13996754232678077","-0.03483559987432189","0.0001038234240301315","-0.23932878225109555","0.2715617471615363","0.8312479870354261"
"0.1706298262012176","-0.037944397246580774","0.038835891227919445","-0.10810446148580677","-0.013279156433306617","-0.026537602779425885","-0.2511158766475055","0.24058615307807263","0.8438414208387525"
"0.12688982135971802","-0.12603544311799403","-0.1306341864460106","0.001176038555858255","0.05154118169566888","0.0023932470851553275","-0.27220706976844217","0.2385146145280377","0.8505996362462519"
"-0.02548501564485629","-0.13913762342711047","-0.32288596407121434","0.42951894073411373","0.2650795155650459","-0.1224423226253384","-0.39681349624477524","0.25748747054218124","0.8920406376686266"
"-0.3478984364796493","-0.12252768441454671","0.10507413372503141","-0.049322390464989","0.30645628754619925","-0.006262299716653971","-0.5582938354575769","0.33122205740254257","0.914880902703231"
"-0.16354969104686046","0.6319519257994932","0.08630197622252482","-0.11928559187455663","-0.1488528249154259","0.28968152691800414","-0.641145978394085","0.2693317968400281","0.9629393233787822"
"-0.36891576852836805","-0.12607473001547262","-0.19468749344021738","0.2450512277661617","-0.386628386503832","-0.13084364230113826","-0.570480492375899","0.30551060834034427","0.9314948489133338"
"-0.04202324414220867","-0.035486159947204894","-0.08102324884708192","0.0038593004646940154","0.021182914296030756","0.08695411607817746","-0.44595968643997574","0.2911682502615729","0.8959829299896679"
"0.13617944931130624","-0.04843820818381378","-0.012640153745646634","-0.06796938565568389","-0.34726188615297954","0.10798007892619735","-0.2773728423731643","0.2650424934893675","0.8463288195651238"
"0.22623896324465634","-0.12701060003755238","0.004640585905459756","-0.10334096492505657","-0.09192414839277167","-0.0057156128580879645","-0.18233404251833404","0.23958694036570286","0.8180444365633671"
"0.13427624047629347","0.03893865801557759","0.02697218830807464","-0.1507901018205731","0.021013544953950285","-0.04020083273774644","-0.19748887817086114","0.21887155486535342","0.8307473784867224"
"0.17627480923375638","-0.038783453128445375","0.019732214751725343","-0.015027832533390316","-0.005803162016053847","-0.06267924048397523","-0.21852299093152472","0.198156169365004","0.8391951477460966"
"0.16329262800278904","-0.007864243881734904","-0.02424749312664493","0.05531095225885184","0.06488495322593373","-0.047149707515337425","-0.25231456421324205","0.21176739619082183","0.8509594486406328"
"0.09800698659112765","-0.007516274218352929","-0.09848436154180668","-0.04542653077780403","0.1532166052395635","-0.03392989696284726","-0.28602051695454983","0.22425755509544426","0.860471011066002"
"-0.12057982950463243","-0.15078338232255553","-0.5341729432208683","0.42194184043555777","0.4685759886292034","-0.16905457056622947","-0.4854307555688738","0.26287347077227213","0.9211228655448798"
"-0.2393991259112057","0.010898757423004812","0.36409733990452464","-0.08348739175935851","0.11621969278679008","0.18860358067073707","-0.6132051420403677","0.3086544727280443","0.9394107215897103"
"-0.1509655429739743","0.5571384481723689","-0.06192541779359767","-0.15972820113648617","-0.1853796187270975","0.06185657770817713","-0.6572426399911193","0.25411208125771256","0.9698852669920456"
"-0.21364017874767077","-0.19608959373628115","-0.007028965474379148","0.26360792590666654","-0.2552484295629089","-0.14005691217783647","-0.5518722949268452","0.2834060734593832","0.9319485254105965"
"-0.0038278116602282106","0.022714572460393042","-0.14597842105938064","-0.12342878696008824","-0.10049075474173885","0.09490413333648774","-0.46882037072938093","0.26925868371473277","0.9131600608170621"
"0.10350004105631967","-0.032942333335464896","-0.06507359545304829","-0.037715947883315004","-0.3128340058702677","0.012597214452124365","-0.3440427031722285","0.26137465170371743","0.8727046324749479"
"0.24522511207118028","-0.10048773492904652","0.02532127392273409","0.026833356473553848","-0.029211587982621887","0.10151600936564761","-0.23213665685667606","0.25342969208828925","0.8324369323385973"
"0.16358778944194322","0.01001129447103264","0.015523510400629558","-0.004045355655058543","0.011729888960474213","-0.019218226453852173","-0.23847257684699807","0.2685397379826618","0.8284320639489682"
"0.1578674984046397","-0.03131052398662121","0.056432283705358015","0.08241707980358218","0.07091735100788381","-0.03253657465208242","-0.2665561141013984","0.28413720471233667","0.8323430682357155"
"0.13393333474653685","-0.06329847715509802","-0.024084656351156104","0.022569765321102175","0.04191562123593691","-0.02528420392561197","-0.31102171475419865","0.2899618836941996","0.8478462892283818"
"0.045340604173963836","-0.0754647874421347","-0.2525780547774625","0.23337804388652114","0.23261442018121056","-0.04646585625390121","-0.43916712356746823","0.28686676139002976","0.8947470526350558"
"-0.3241739539328522","-0.16025433082186333","0.01907502222706019","-0.07880895763719314","0.32712884462630115","0.09693597959164833","-0.5998197975563091","0.3461371349627942","0.9175403856182192"
"-0.19183531200860202","0.5062338538679413","0.043213277777213906","-0.1541009936608747","0.02955640793720525","0.16994055056756446","-0.7204020586333835","0.3099461379415955","0.967851544762937"
"-0.2114416444037767","-0.004964590227117213","-0.057804394783149714","0.17225086686656485","-0.16752460771151179","-0.09383684406699094","-0.6359231254290899","0.3291505188525077","0.9364383583317822"
"-0.08669943084686196","-0.06378956337358065","-0.10531933081040173","-0.08668835675595052","-0.1694082480580142","0.10717207023112864","-0.550844848441928","0.317744871306433","0.9163670843321949"
"0.06001828196536407","-0.01533759395460349","-0.09238007011194356","-0.09599680484293295","-0.22674056179777602","0.05546345525256025","-0.4404799718537514","0.2891088972324205","0.8938396996405303"
"0.1717537038322381","-0.08085551101759254","-0.01947929831617728","-0.01985152712760053","-0.23053950031173043","0.020540728225815787","-0.31841362140957463","0.2738160685248096","0.8541351841214714"
"0.15669472799492667","-0.0033240816366889693","0.05941386681757775","0.029529181450242133","0.0707685592494206","-0.009891441209261399","-0.2317656345149004","0.2933494584995509","0.8217051365757626"
"0.16090838313472683","0.013000325817414171","0.06783628588209206","-0.06544630286196784","-0.03795706101995442","0.012875287688402891","-0.23544731775252015","0.2857700645105995","0.8237075707705772"
"0.17550909581711802","-0.04501603879273058","-0.025266266798933987","-0.017811337254466042","0.010279327604562623","-0.03347662379244286","-0.27631685570811065","0.27181764310007006","0.84161997040388"
"0.10931139079219489","-0.062006218848748025","-0.14865478960010722","-0.10715437947945933","0.13797653023441644","-0.037071277109041255","-0.32083953672118426","0.2695998782994444","0.857733308065279"
