"AccX","AccY","AccZ","GyroX","GyroY","GyroZ","MagX","MagY","MagZ"
"22.015500000000003","9.7915","7.2785","-1.8599999999999999","2.282","-3.255","-34.5275","36.9195","31.6775"
"4.0905","17.729","7.1065000000000005","-1.726","0.016999999999999987","-2.4145","-32.792","38.7145","25.458"
"-0.028000000000000025","17.811500000000002","1.693","-0.4","-2.2755","-0.6130000000000001","-33.370000000000005","38.483000000000004","22.4905"
"5.235","0.045999999999999985","3.1635","2.394","-1.053","2.9885","-34.913","35.812","27.1985"
"9.0865","2.027","-5.5329999999999995","-0.299","-1.202","3.0999999999999996","-36.649","32.697500000000005","27.670499999999997"
"32.1595","13.556000000000001","-9.135","0.38949999999999996","-1.6684999999999999","4.741","-38.771","27.156","30.979999999999997"
"23.235500000000002","-6.9159999999999995","-10.062999999999999","1.6179999999999999","0.7010000000000001","0.247","-38.578","27.38","33.5185"
"11.718","-9.5915","-4.5905","-0.0885","0.1385","0.9175","-39.542","26.700499999999998","34.309"
"-2.9265","-7.129","-7.5965","4.8215","-0.35750000000000004","-0.501","-39.735","27.136000000000003","33.089"
"-2.1254999999999997","-13.498000000000001","4.7295","4.066","0.44599999999999995","-2.475","-37.227999999999994","30.7065","32.421499999999995"
"12.213999999999999","9.1365","9.545","-1.315","1.0739999999999998","-0.7435","-37.6135","30.698500000000003","33.891"
"3.7855","-4.557","-0.455","-5.008","1.245","3.435","-39.542500000000004","27.576","37.291"
"5.0440000000000005","13.160499999999999","-1.1435","0.14250000000000007","-0.261","1.4740000000000002","-39.542","25.829","39.980999999999995"
"11.450999999999999","-23.5405","-11.314","-1.174","-0.7185","1.1655","-39.735","27.136000000000003","37.082"
"17.401","3.283","-17.151","-1.7465","-0.647","-2.3609999999999998","-37.998999999999995","28.9315","34.6635"
"21.405","9.1565","-8.8885","0.426","2.045","-3.1740000000000004","-36.842","32.254","36.288"
"23.7695","8.962","5.9135","-1.712","2.5575","-3.099","-35.105999999999995","35.368","34.341"
"12.481","14.5335","9.503","-1.052","0.5415","-3.2195","-33.949","37.371","30.862499999999997"
"0.16300000000000003","17.4755","1.1125","-1.2455","-1.467","-1.562","-33.177","38.487","24.6"
"3.862","4.9565","2.355","1.3435000000000001","-1.8875","1.7135","-34.5275","36.260000000000005","25.959"
"6.493499999999999","1.3185","-0.05599999999999994","0.445","-1.1075","2.8625","-36.070499999999996","33.1495","27.845"
"21.634","12.339500000000001","-7.8795","-0.04949999999999999","-1.717","4.047499999999999","-38.192","27.608","30.586"
"27.583","1.204","-11.9445","1.9485000000000001","1.145","2.6045","-38.964","26.7125","34.9615"
"14.617","-9.3015","-4.5285","0.5835","0.221","0.46049999999999996","-39.542","26.481","36.198499999999996"
"7.4085","-2.3515","-7.462","1.1840000000000002","0.132","0.548","-40.121","25.593","36.793499999999995"
"-5.634","-13.529","-1.444","5.124499999999999","-0.20700000000000002","-2.0145","-39.3495","28.024","34.819"
"3.9765","-4.8945","6.173","2.02","0.8","-2.5025","-37.421","30.483","34.739000000000004"
"13.93","11.342500000000001","5.6545000000000005","-2.9619999999999997","1.5605","0.6575","-38.385000000000005","29.803","37.213"
"-3.003","-10.5","-2.9970000000000003","-4.5760000000000005","0.685","3.365","-39.735","26.6845","39.344"
"24.0745","7.7410000000000005","-6.4615","0.23700000000000004","-0.0935","1.707","-40.313500000000005","26.2325","41.025000000000006"
"5.1965","-20.9605","-6.4350000000000005","-1.0074999999999998","-1.0465","-0.3655","-39.735","27.796","38.1605"
"21.252499999999998","9.755","-14.268999999999998","-1.98","-0.0685","-2.6959999999999997","-38.385000000000005","29.803","36.1815"
"18.811500000000002","6.203","-4.0785","0.8145","2.186","-3.4935","-36.456","34.021","37.003"
"22.473","8.892","8.224","-1.5945","2.3505","-3.327","-34.5275","36.9195","34.838499999999996"
"4.51","14.769","6.271000000000001","-1.514","-0.14100000000000001","-2.1574999999999998","-33.370000000000005","38.9225","28.8315"
"0.3915","19.5335","0.5165000000000001","-0.9615","-2.6045","-0.861","-33.370000000000005","38.9225","24.8275"
"4.8535","0.45999999999999996","3.113","2.4935","-1.135","3.11","-35.299","36.244","29.32"
"8.6675","2.101","-6.5525","-0.19949999999999998","-1.6415","3.5045","-37.227999999999994","32.4655","30.4045"
"31.969","12.814","-4.352","-0.1715","-1.334","5.099500000000001","-39.735","26.6965","34.0985"
"27.2015","-5.2379999999999995","-10.699","1.639","0.31","0.188","-39.735","26.916","35.605000000000004"
"17.362499999999997","-7.432","-5.196","-0.15999999999999998","0.5960000000000001","1.0815000000000001","-40.506","25.360999999999997","38.045500000000004"
"9.277000000000001","-0.7825","-8.8585","1.124","0.16799999999999998","1.0195","-40.892","24.254","38.1995"
"-6.206","-15.8875","-3.5730000000000004","5.974","-1.017","-1.728","-39.542","26.261","34.091499999999996"
"-4.0705","-9.6365","3.395","-0.7125","1.3835","-2.23","-38.192","29.1435","34.217"
"15.646","13.362","0.44699999999999995","-3.2875","1.6709999999999998","1.6825","-39.542","27.8","38.584500000000006"
"3.7095","-8.977","0.8935","-3.6849999999999996","1.176","3.1845","-40.1205","26.033","39.341499999999996"
"18.926","-9.6515","-11.7985","0.37350000000000005","-1.4405000000000001","1.103","-39.735","26.477","36.4165"
"7.027","-10.818","-7.3875","-3.0105000000000004","-0.4085","-0.8125","-39.156499999999994","27.588","34.787499999999994"
"20.795","14.104","-13.732","-0.9175000000000001","-0.218","-2.7485","-37.8065","30.035","31.982"
"15.303","3.9215","-4.193","1.371","1.522","-3.2744999999999997","-36.649","33.357","32.7575"
"20.490000000000002","12.6415","4.533","-1.666","2.1225","-3.176","-34.913","36.471999999999994","31.2315"
"2.9465","15.821","7.965","-0.8625","0.211","-2.335","-33.177","38.706500000000005","26.506"
"2.1075","13.3875","1.6185","-0.384","-1.9195","-0.6915","-33.563","38.259","23.968"
"4.5865","2.445","3.3155","2.069","-1.4264999999999999","3.1310000000000002","-35.685","35.135999999999996","27.137"
"11.5275","4.1185","-7.1690000000000005","-0.0655","-1.482","3.482","-37.8065","31.1345","29.2725"
"32.9605","12.918","-6.9030000000000005","1.992","-0.8140000000000001","5.191000000000001","-39.735","26.6965","34.961"
"17.553","-10.501","-5.3395","0.6735","0.34750000000000003","-0.10649999999999998","-40.121","26.6885","36.8425"
"9.7735","-2.6205","-8.341000000000001","-0.5525","0.661","1.327","-41.085","25.349","39.277"
"-1.782","-5.708","-6.09","5.1585","-0.433","-1.0195","-40.6995","26.676499999999997","37.466499999999996"
"-2.011","-17.053","3.6609999999999996","4.1405","0.2655","-3.167","-38.578","30.019","36.1225"
"12.442499999999999","8.7605","10.318999999999999","-0.3495","1.0434999999999999","-1.6219999999999999","-37.998999999999995","31.35","36.6325"
"5.7305","-3.4745","1.7195","-5.916","1.288","3.0060000000000002","-39.542","28.240000000000002","38.815"
"-0.4854999999999998","-6.984","-5.9375","-3.876","0.8354999999999999","3.1864999999999997","-39.735","26.237000000000002","40.6225"
"15.265","-23.224","-12.291","-0.421","-1.4005","1.2205","-40.313500000000005","26.245","37.663"
"13.1675","-0.8665","-11.415","-2.6265","0.17850000000000002","-2.1334999999999997","-38.963499999999996","28.692","35.260000000000005"
"20.4515","11.2935","-11.8045","0.45899999999999996","-0.248","-2.6719999999999997","-37.6135","31.798","32.641000000000005"
"22.0915","3.723","3.5","-1.022","2.8049999999999997","-3.2809999999999997","-35.6845","35.576","33.2795"
"10.4595","15.5445","7.782500000000001","-1.089","0.8405","-3.019","-33.563","38.039","29.631999999999998"
"-1.0575","20.8465","1.5805","-0.5555","-1.597","-1.8765","-32.9845","38.93","25.2665"
"3.9764999999999997","1.5105","1.931","2.8354999999999997","-1.338","2.4875","-35.105999999999995","36.9075","28.930500000000002"
"4.8149999999999995","0.7975000000000001","1.422","1.191","-1.156","3.024","-36.2635","33.585","30.8385"
"23.884","9.1515","-9.0745","-0.34750000000000003","-1.7415","4.0954999999999995","-38.578","28.6955","32.516"
"27.85","0.5295000000000001","-11.223500000000001","0.9925","0.4595","2.3605","-39.349","27.804","35.6395"
"14.693","-12.029","-3.3505000000000003","-0.091","0.3905","0.6955","-39.735","26.916","37.477000000000004"
"5.197","-5.234","-4.767","-0.5735","0.2965","0.861","-41.085","26.009","38.064499999999995"
"-3.9939999999999998","-6.7875","4.0235","4.2535","-0.358","-2.0795000000000003","-39.3495","28.4635","35.317"
"2.2985","-0.6215000000000002","4.4695","3.05","0.5505","-2.833","-37.035","31.805999999999997","35.846999999999994"
"10.803","10.6375","2.4325","-5.5095","2.1334999999999997","2.0085","-38.578","30.238999999999997","38.284"
"8.0955","1.3449999999999998","1.314","-1.9020000000000001","0.6125","2.94","-39.927499999999995","26.912","41.307"
"9.6965","-27.476999999999997","-10.576","0.4545","-1.6684999999999999","1.232","-39.542","27.14","37.945"
"18.049","-0.5010000000000003","-12.3205","-2.6545","0.16699999999999998","-2.372","-38.578","29.799","36.157"
"20.833","8.333499999999999","-11.628499999999999","0.46099999999999997","0.12100000000000001","-3.1105","-37.227999999999994","32.245999999999995","34.1755"
"21.7865","2.604","1.3255000000000001","-0.377","2.734","-3.552","-35.299","36.024","34.156499999999994"
"12.442499999999999","14.5665","8.3525","-1.8575","1.076","-3.1825","-33.370000000000005","38.4825","30.076"
"-1.172","23.432000000000002","-3.3964999999999996","-1.363","-1.55","-1.8085","-32.406","39.602000000000004","22.982999999999997"
"-0.066","10.620000000000001","3.6295","2.193","-3.0315000000000003","0.21600000000000003","-33.949","38.251","25.6335"
"4.3195","-1.637","2.6265","3.3135000000000003","-0.21899999999999997","3.2904999999999998","-35.492000000000004","35.58","31.816499999999998"
"15.9515","2.0500000000000003","-7.7735","-0.4305","-1.6139999999999999","3.6055","-37.4205","31.802","32.4925"
"32.540499999999994","8.836","-8.722999999999999","0.72","-1.3625","4.2475000000000005","-38.771","28.695999999999998","34.621"
"19.116500000000002","-9.68","-6.093","0.362","0.48","0.36600000000000005","-39.156499999999994","28.688000000000002","36.732"
"5.807","-5.5725","-5.313","-0.4255","0.020499999999999997","1.1829999999999998","-40.699","26.892","37.91"
"-6.5489999999999995","-7.645999999999999","1.3090000000000002","3.0869999999999997","-0.30000000000000004","-1.096","-39.542","28.02","36.698"
"1.65","-0.9945000000000002","4.388999999999999","2.3855","0.5185","-2.6215","-37.035","30.7105","36.844"
"11.718","14.792000000000002","1.9915","-4.433","1.9979999999999998","1.7570000000000001","-38.771","29.575","39.7265"
"0.201","-9.0425","2.558","-2.551","0.4145","2.5614999999999997","-39.542","27.148000000000003","40.677"
"23.883499999999998","-19.5865","-12.393","0.10999999999999999","-0.7715000000000001","0.901","-39.542","27.799999999999997","37.9525"
"7.7135","-9.284","-7.5755","-3.3265000000000002","0.215","-1.0475","-39.156499999999994","29.1275","36.541"
"20.947000000000003","11.404","-12.1385","0.6295","-0.271","-3.1950000000000003","-37.227999999999994","32.4655","33.6"
"18.887999999999998","5.0840000000000005","0.10950000000000004","0.653","2.4965","-3.1319999999999997","-35.685","35.57599999999999","34.301"
"11.794","14.643","7.053","-1.3355000000000001","1.1715","-2.8205","-33.756","37.815","31.5165"
"-0.8284999999999999","19.3855","2.572","-0.7949999999999999","-1.0895","-1.923","-33.370000000000005","38.922","27.557000000000002"
"4.6245","2.5205","2.9535","2.5025","-1.4595","2.3955","-34.913","36.032","31.8445"
"11.6035","1.4985","-5.243","0.6185","-1.2715","3.4915000000000003","-37.6135","32.018","34.1605"
"36.5075","10.145","-2.4985","1.2325","-0.8655","5.242","-39.735","27.576","38.3615"
"21.0235","-10.312999999999999","-7.854","0.29500000000000004","-0.6755","-0.46399999999999997","-39.928","27.572","38.1605"
"11.108","-5.732","-4.401","-2.1790000000000003","0.09949999999999999","1.5495","-41.471000000000004","25.561","40.98950000000001"
"1.0015","-1.2555","-8.7585","2.4935","-0.421","0.09399999999999997","-42.242000000000004","24.445500000000003","40.7195"
"-10.325","-14.527000000000001","0.327","2.7525","-0.6135","-2.7815000000000003","-39.3495","28.024","36.278999999999996"
"5.8835","0.5724999999999998","2.7359999999999998","1.4264999999999999","1.4095","-2.572","-37.421","30.043","36.604"
"10.9555","11.4985","2.4145","-3.5645","1.8290000000000002","2.0415","-39.156499999999994","28.683500000000002","39.0475"
"4.968","-6.4695","0.6415","0.48650000000000004","-0.8835","2.185","-39.3495","26.500999999999998","38.960499999999996"
"9.2775","-21.360500000000002","-10.505","-2.7030000000000003","-0.995","1.1775","-39.349","27.584","35.6275"
"20.032","7.249","-14.746500000000001","-2.7305","0.094","-2.3255","-37.998999999999995","29.811","33.215"
"17.286","8.040500000000002","-9.5415","1.507","-0.129","-3.16","-36.070499999999996","32.929500000000004","32.5345"
"21.938499999999998","5.8934999999999995","2.824","-1.5025","2.9305000000000003","-2.9625000000000004","-34.7205","36.256","31.8565"
"9.086500000000001","13.707","8.217500000000001","-1.093","0.474","-3.091","-32.9845","38.491","27.9745"
"-0.676","20.320500000000003","-0.32899999999999996","-1.0979999999999999","-1.5775000000000001","-1.7105000000000001","-32.213","39.385999999999996","22.136"
"4.5105","3.4945000000000004","3.0475","1.9050000000000002","-1.8345","1.8530000000000002","-33.949","37.595","25.396"
"6.951499999999999","-0.368","-0.48750000000000004","1.891","-0.7130000000000001","3.4865","-35.685","34.2565","28.7515"
"27.926499999999997","12.214500000000001","-4.957","-0.024","-1.8615","4.352","-37.8065","28.9355","30.439"
"26.8965","-2.8024999999999998","-8.809999999999999","1.588","-0.3075","1.5705","-38.192","28.708","32.33"
"13.1295","-9.710999999999999","-4.005","-0.4235","0.35250000000000004","1.124","-38.964","27.811999999999998","34.1575"
"5.845000000000001","-3.553","-6.6935","1.0685","0.213","0.6705","-39.928","26.473","34.728"
"-5.558","-12.518","2.786","4.2165","-0.5765","-2.1945","-37.6135","29.3795","32.5905"
"7.5235","6.448","6.9405","1.004","0.987","-1.956","-36.842","31.154","33.712999999999994"
