"AccX","AccY","AccZ","GyroX","GyroY","GyroZ","MagX","MagY","MagZ"
"9.0105","-2.2115","-1.0685","-5.306","2.5275","4.0715","-41.8565","20.272","39.878"
"15.1125","-5.515000000000001","-10.299","-1.2965","-1.858","1.1764999999999999","-42.435","19.384","37.128"
"4.9295","-11.564","-9.549","-1.844","-0.48700000000000004","-0.378","-42.242000000000004","21.1475","34.462500000000006"
"21.214","7.134","-12.091000000000001","-1.017","-0.0415","-2.8305","-40.892","24.9135","31.9075"
"16.333","-0.12350000000000005","-9.0495","1.1105","0.531","-3.428","-39.156499999999994","28.028","29.749499999999998"
"23.1595","7.9525","-1.5685000000000002","-1.9569999999999999","2.41","-3.5795000000000003","-36.842","31.814","27.629"
"13.2055","16.329","7.4105","-1.345","0.7135","-2.5415","-34.5275","34.061","23.544"
"1.7645","20.1315","-1.7240000000000002","-1.5110000000000001","-0.9490000000000001","-1.6560000000000001","-33.563","35.4","16.6645"
"3.099","7.243","1.665","1.6780000000000002","-2.507","2.0335","-35.492000000000004","33.3815","18.023000000000003"
"8.095","0.0030000000000000027","-2.3064999999999998","1.9809999999999999","-0.577","3.8445","-37.6135","29.599","23.5175"
"23.387999999999998","9.7855","-4.448499999999999","0.644","-0.387","4.9635","-40.5065","23.822000000000003","30.178"
"28.918","-2.0945","-10.336","1.8215","0.5640000000000001","2.4935","-41.471000000000004","22.482999999999997","34.323"
"15.57","-5.9275","-4.9105","-0.502","0.8535","1.3780000000000001","-42.628","19.82","37.769999999999996"
"11.642","1.3835","-10.321","2.565","0.2295","1.291","-42.821","17.617","39.144499999999994"
"-7.6935","-14.9485","-3.714","6.2955000000000005","-1.0035","-1.6425","-41.8565","20.055999999999997","35.894000000000005"
"-0.6000000000000001","-15.8605","6.4815000000000005","3.048","0.8855","-3.7685","-39.3495","24.9455","33.969"
"17.4765","8.9015","7.551","-1.9065","1.2125","-1.195","-39.542","24.941499999999998","34.454"
"5.8069999999999995","-7.8195","3.685","-6.8535","1.733","4.749499999999999","-41.471000000000004","20.064","40.516999999999996"
"14.959500000000002","-8.1295","-16.572","-4.8575","-1.5225","2.98","-42.821","18.936","36.667500000000004"
"8.667","-2.7685","-10.418500000000002","-1.3405","0.11699999999999999","-1.471","-41.8565","21.1555","35.0995"
"15.303","-2.9299999999999997","-8.2265","1.7105000000000001","0.813","-3.021","-40.1205","25.5895","33.6325"
"19.3455","-0.728","-5.2895","-1.084","1.9659999999999997","-3.835","-37.998999999999995","30.250500000000002","30.9165"
"23.616999999999997","14.956","1.9669999999999999","-3.0540000000000003","1.483","-3.3455000000000004","-35.492000000000004","33.601","26.250500000000002"
"7.0275","14.577","5.259","-1.142","0.0955","-1.8205","-33.756","35.176","21.2855"
"0.773","21.406","-2.051","-1.6360000000000001","-2.3575","-1.46","-33.563","35.84","15.3975"
"4.93","3.4935","0.731","2.3895","-1.6095000000000002","3.1185","-35.8775","33.1535","19.482999999999997"
"8.6675","0.2655","-7.065","1.4475","-0.746","4.037","-38.578","29.139499999999998","24.5385"
"24.799","11.2425","-6.15","1.2765","-0.5475","4.8535","-40.699","23.818","30.597"
"29.146500000000003","-4.9045","-11.046","2.452","0.31599999999999995","1.9365","-41.278","22.926","33.711"
"15.227","-7.425000000000001","-5.379","0.018000000000000002","0.533","1.7145000000000001","-42.435","20.259999999999998","36.9465"
"8.324","-1.0839999999999999","-9.446","2.845","-0.052000000000000005","0.9450000000000001","-42.628","18.939999999999998","37.099000000000004"
"-10.897","-16.8525","0.1140000000000001","5.2395","-0.6045","-2.0075","-40.891999999999996","21.835","34.088499999999996"
"4.7010000000000005","-5.9445","4.467","1.824","0.9169999999999999","-3.722","-38.771","26.277","32.592"
"16.371","9.0535","4.947","-4.107","1.5445","0.9745","-39.735","24.278","35.476"
"2.9465","-7.1775","-0.7549999999999999","-6.218500000000001","1.976","4.749","-41.8565","19.836","40.5295"
"17.4005","-12.4485","-13.93","-2.495","-1.8275000000000001","1.318","-42.435","19.824","36.741"
"10.6885","-5.3565","-9.771","-1.53","-0.1905","-2.0615","-41.471000000000004","22.4825","33.478"
"17.7055","3.395","-12.315000000000001","0.616","0.045000000000000005","-3.3310000000000004","-39.542500000000004","26.9205","30.537999999999997"
"21.2145","-1.0670000000000002","-3.9835","-0.9339999999999999","2.168","-3.771","-37.4205","31.1425","28.0135"
"18.887999999999998","16.124499999999998","5.042999999999999","-2.6265","1.2005","-3.4375","-34.5275","34.061","22.9115"
"6.2265","20.047","-1.0139999999999998","-1.456","-0.4125","-1.8495","-32.9845","35.632000000000005","16.89"
"-0.905","21.2605","-0.4970000000000001","0.5625","-2.7039999999999997","-0.7375","-33.563","36.06","14.7945"
"8.095","-2.246","-0.7525","3.198","-0.3815","3.6585","-36.649","31.818","23.627499999999998"
"21.481","6.7215","-3.521","0.8095","-0.2225","4.883","-40.1205","25.808999999999997","31.535"
"28.6125","6.0725","-10.943999999999999","1.5030000000000001","-0.326","4.5335","-42.049","22.471","36.841499999999996"
"20.566000000000003","-5.1855","-6.927","0.7705","0.6205","1.24","-42.628","20.6995","40.127"
"14.2735","-3.2675","-8.688","2.043","-0.109","1.83","-42.821","17.397","41.242000000000004"
"-3.7655","-14.581","-3.5835","6.4544999999999995","-1.8005","-0.5619999999999999","-42.435","17.845","37.053"
"-12.575","-19.695999999999998","3.258","0.907","0.383","-2.175","-40.892","20.735500000000002","35.093"
"7.294499999999999","8.84","0.7155","-3.3449999999999998","1.5425","-2.5305","-40.313500000000005","22.506999999999998","34.769999999999996"
"14.197","7.484500000000001","1.135","-4.5504999999999995","2.089","2.1425","-42.0495","19.612000000000002","41.35"
"14.158999999999999","-4.202","-8.975000000000001","-3.3035","-0.6024999999999999","2.7565","-43.978","16.494","42.873000000000005"
"3.328","-13.432","-8.499500000000001","-2.0655","-0.9924999999999999","0.595","-43.978","17.1535","41.0035"
"16.447000000000003","2.8729999999999998","-10.2675","-1.4215","-0.4165","-2.8385","-42.242000000000004","21.1475","37.201499999999996"
"17.134","2.6470000000000002","-10.482","0.3065","0.3245","-3.205","-40.5065","25.581","34.2595"
"23.617","10.1235","-2.1725","-3.0540000000000003","2.4850000000000003","-3.5475","-38.192","30.4665","30.923499999999997"
"10.574","16.322","6.02","-1.673","0.6060000000000001","-2.6715","-35.685","32.9375","26.8505"
"1.383","22.1535","-0.7625","-1.5735000000000001","-0.717","-1.6284999999999998","-35.106","34.269","20.604999999999997"
"3.442","7.8420000000000005","2.891","1.669","-2.4075","1.763","-36.842","32.254","23.2235"
"7.637499999999999","-0.2215","0.27449999999999997","1.5395","-0.363","4.0695","-39.156499999999994","27.588","29.308500000000002"
"23.8455","11.9985","-6.773","0.27649999999999997","-0.74","4.9655000000000005","-41.8565","21.1555","35.942499999999995"
"29.223","0.26449999999999996","-9.863","2.2625","0.6275","4.1425","-43.207","18.489","41.917500000000004"
"15.6845","-9.7905","-5.6579999999999995","-0.16899999999999998","0.403","1.8619999999999999","-44.171","14.295","45.0935"
"9.6205","-0.1495","-7.3225","3.309","-0.5935","1.8075","-43.592","12.315999999999999","43.0945"
"-9.9815","-14.1575","-0.791","7.362","-2.0255","-2.125","-42.242000000000004","15.43","35.262"
"-4.3755","-13.9055","2.5485","1.089","1.3584999999999998","-3.768","-40.892","20.076","33.589"
"20.947499999999998","8.183","3.9924999999999997","-3.0305","1.7695","-1.6400000000000001","-41.278000000000006","20.947499999999998","35.73"
"9.6205","-5.653499999999999","4.859","-5.077","1.567","3.1630000000000003","-42.435","16.9655","42.071"
"15.4175","-9.523","-17.5655","-4.7285","-0.9630000000000001","2.9735","-44.171","15.17","42.3875"
"4.3955","-9.24","-11.0505","-3.0220000000000002","-0.01100000000000001","0.2895","-44.364","16.046","42.8285"
"17.7055","4.219","-12.1295","-0.308","-0.1415","-2.9245","-42.628","19.82","40.11"
"15.9895","-0.8345","-9.161999999999999","0.26","1.2269999999999999","-3.0999999999999996","-41.471000000000004","24.241999999999997","38.7915"
"26.5535","9.2965","-4.202999999999999","-3.8529999999999998","2.2085","-3.3775","-40.121","27.348","35.818"
"14.426","18.908","4.438","-2.5389999999999997","0.665","-2.386","-38.192","29.366999999999997","33.18"
"2.222","20.2045","2.113","-1.017","-0.5265","-1.186","-37.806","30.471","28.621000000000002"
"5.9215","3.6045","4.228","1.7105000000000001","-2.088","1.7085","-39.735","28.235999999999997","29.33"
"10.4215","-2.1340000000000003","-2.7070000000000003","0.893","-1.0125","4.198499999999999","-41.278000000000006","22.7065","33.701"
"29.719","9.2595","-7.657","-0.253","-0.961","5.0665","-43.013999999999996","16.5135","38.039500000000004"
"27.125500000000002","-9.096","-11.6785","0.826","0.33949999999999997","0.8345","-43.3995","14.746500000000001","40.2845"
"14.0445","-5.213","-9.187","0.006000000000000005","-0.2265","3.0895","-43.592","10.3485","41.762"
"0.3534999999999999","-5.0375","-6.588000000000001","4.9945","-2.1675","0.598","-41.8565","11.0405","33.176"
"-15.2065","-21.639000000000003","1.1335","4.78","-0.753","-2.6395","-40.699","15.0225","27.697"
"5.0440000000000005","-0.3639999999999999","2.4085","-2.151","1.704","-3.1745","-40.892","18.097","28.868000000000002"
"17.247999999999998","10.887","0.862","-3.768","1.8039999999999998","-0.10300000000000004","-42.242000000000004","15.870000000000001","34.6495"
"14.349499999999999","-1.2830000000000001","3.078","-4.8580000000000005","1.6955","3.4699999999999998","-43.207","11.896","41.591"
"5.6545000000000005","-16.8435","-11.139","-2.576","-1.7545","1.696","-43.978","10.7805","39.672"
"12.213999999999999","-2.775","-10.5535","-3.0935","-0.905","-1.6455","-43.5925","12.9835","37.2435"
"17.515","4.706","-13.152000000000001","0.5215","-0.4435","-2.7675","-42.435","17.625","32.828500000000005"
"16.485","-2.1085000000000003","-6.291","-0.06300000000000003","1.4705","-4.0120000000000005","-41.471000000000004","22.2625","31.5815"
"24.265","15.261","4.1165","-2.6935000000000002","1.9489999999999998","-3.7205","-39.542","25.821","29.647"
"9.049","16.259","4.865","-1.569","0.1635","-2.2145","-38.192","27.828000000000003","24.6955"
"0.04849999999999999","22.717","-5.1594999999999995","-1.798","-3.3345000000000002","-1.0265","-37.806","28.716","15.4685"
"4.7010000000000005","3.719","4.0175","2.2720000000000002","-1.818","2.9370000000000003","-38.964","25.613","18.6875"
"9.697","-0.858","-6.9675","1.2694999999999999","-0.3065","4.0375","-40.313500000000005","20.9675","22.889499999999998"
"34.409499999999994","11.6415","-7.686","0.9715","-0.813","5.21","-42.242000000000004","14.7665","28.691000000000003"
"30.7865","0.5610000000000004","-12.4625","2.7915","0.44599999999999995","3.137","-42.049","14.982","29.9675"
"15.265","-9.0735","-6.775","0.47500000000000003","0.329","1.824","-42.435","13.2275","31.139000000000003"
"7.5995","-0.8955","-9.568","3.6505","-0.3565","1.1155","-41.664","12.8035","27.778"
"-8.647","-20.676499999999997","-1.8965","6.792","-0.759","-1.8369999999999997","-39.542","17.2455","21.6805"
"6.455","2.1055","7.467499999999999","-0.701","0.8765000000000001","-3.1420000000000003","-38.771","20.78","19.5315"
"11.871","3.3685","1.733","-6.0705","1.6065","2.492","-40.891999999999996","15.2385","28.5275"
"10.574","-1.6104999999999996","-1.3690000000000002","-5.5485","1.8104999999999998","4.5015","-43.0135","11.012","35.478"
"6.112","-17.559","-10.292","-2.0955","-2.089","1.0805","-43.013999999999996","11.236","31.913"
"12.900500000000001","-0.3044999999999999","-9.998","-0.9249999999999999","0.017","-2.4595000000000002","-42.435","14.3265","29.7325"
"17.744","0.47350000000000003","-9.8215","1.452","0.738","-3.6109999999999998","-41.471000000000004","18.9645","27.243000000000002"
"23.655","0.799","-3.6995","-0.846","2.0505","-4.1065000000000005","-40.506","23.158","27.1665"
"17.5915","14.782","7.0329999999999995","-2.763","1.2885","-3.0625","-38.964","25.393","24.9995"
"3.0229999999999997","20.128","-2.4485","-2.1995","-1.0514999999999999","-1.343","-37.806","26.7325","18.328000000000003"
"2.5655","14.5855","3.279","1.7149999999999999","-3.0705","1.3275000000000001","-38.385000000000005","25.625","14.481"
"5.9975000000000005","-1.3014999999999999","1.3745","2.1795","0.129","3.566","-39.542","22.083","19.7685"
"21.442999999999998","10.5795","-11.2915","0.5605","-1.1219999999999999","3.87","-40.313500000000005","16.7895","22.072"
"29.795","-2.6959999999999997","-14.2255","3.6715","1.0865","2.5665","-41.471000000000004","15.666","27.069499999999998"
"14.731","-11.2075","-8.133000000000001","0.9695","-0.08","1.9225","-41.664","13.0235","28.226"
"1.6115","-8.411","-4.7845","4.7315000000000005","-0.4895","0.799","-40.506","13.707","24.04"
"-13.2235","-19.358","4.793","4.1884999999999994","0.328","-2.91","-39.156499999999994","19.012500000000003","19.0245"
"9.277000000000001","0.9385","5.4175","-0.587","1.1989999999999998","-4.339","-38.385000000000005","22.7665","17.515"
"16.7525","7.3295","0.47550000000000003","-4.7285","1.842","1.958","-40.5065","18.3245","25.509"
"5.1205","-6.24","-0.2725","-6.0655","2.005","4.5615","-42.242000000000004","13.0115","33.2655"
"18.7735","-1.888","-10.218","-1.338","-1.7155","1.0435","-42.435","12.564","30.494"
"5.883","-14.7865","-7.000500000000001","-1.2805","-0.5970000000000001","-0.284","-42.435","13.447","29.272"
"20.070500000000003","7.737","-10.6135","-0.913","-0.369","-2.659","-41.471000000000004","16.326","26.250999999999998"
"15.57","3.3615000000000004","-6.6455","0.579","0.4545","-3.2085","-40.699","20.515500000000003","24.533"
"18.7735","19.468","-2.2175000000000002","-2.116","0.6815","-2.9155","-39.735","23.618000000000002","21.5395"
"3.2135000000000002","17.616","1.958","1.1795","-0.287","-2.1245000000000003","-38.385000000000005","26.285","18.302999999999997"
"1.383","13.202","2.9735","2.5815","-0.7124999999999999","-0.9015","-38.192","26.7245","17.494500000000002"
