"AccX","AccY","AccZ","GyroX","GyroY","GyroZ","MagX","MagY","MagZ"
"-0.011660801643208074","-0.036302637882515386","0.0004538390689672676","-0.0002454464332164581","-0.0028339174609716016","-0.0006587519168348971","0.07459737092358452","0.27485777974642644","-0.054180191000237625"
"-0.011660801643208074","-0.03430985176944158","0.0030918694881728846","-0.002273656192797161","-0.0022633474123479264","-0.0006587519168348971","0.07459737092358452","0.26866611971047977","-0.05371643004027079"
"-0.009701043256032025","-0.03430985176944158","0.0030918694881728846","-0.002611691152727278","-0.0022633474123479264","0.0003116308914630422","0.07459737092358452","0.2718253023209082","-0.05397407501803015"
"-0.011660801643208074","-0.036302637882515386","0.0017728542785700682","-0.0005834813931465753","-0.0028339174609716016","0.0003116308914630422","0.07302837012527058","0.2717408321976348","-0.053664901044718896"
"-0.011660801643208074","-0.036302637882515386","0.0030918694881728846","0.00110669340650401","-0.0022633474123479264","0.0006997840147822179","0.07459737092358452","0.2748155446847896","-0.054180191000237625"
"-0.011660801643208074","-0.036302637882515386","0.0030918694881728846","0.0007686584465738933","-0.0022633474123479264","0.0003116308914630422","0.07459737092358452","0.2717830672592715","-0.05392254602247826"
"-0.011660801643208074","-0.03430985176944158","0.0004181900092482769","-0.0015975862729369268","-0.0022633474123479264","0.0003116308914630422","0.07459737092358452","0.2717830672592715","-0.05423171999578952"
"-0.011660801643208074","-0.03430985176944158","0.0004181900092482769","-0.002273656192797161","-0.0011222073151005757","-0.0006587519168348971","0.07459737092358452","0.2687083547721166","-0.054180191000237625"
"-0.011660801643208074","-0.03231706565636778","0.005729899907378486","-0.0012595513130068093","-0.001692777363724251","-0.00017356051268592755","0.07459737092358452","0.26866611971047977","-0.053664901044718896"
"-0.009701043256032025","-0.03231706565636778","0.005729899907378486","-0.0005834813931465753","-0.0028339174609716016","0.0003116308914630422","0.07459737092358452","0.2717830672592715","-0.05392254602247826"
"-0.011660801643208074","-0.033313458712904684","0.003074044958313381","-0.0005834813931465753","-0.0028339174609716016","-0.0006587519168348971","0.07459737092358452","0.2717830672592715","-0.05392254602247826"
"-0.011660801643208074","-0.03430985176944158","0.005765548967097476","-0.0002454464332164581","-0.0011222073151005757","-0.0006587519168348971","0.07616637172189837","0.26875058983375333","-0.053600489800279066"
"-0.011660801643208074","-0.03430985176944158","0.004428709227635172","-0.0009215163530766924","-0.00020929523730269523","-0.001920249567622218","0.07459737092358452","0.2748155446847896","-0.05822521715105976"
"-0.009701043256032025","-0.03231706565636778","0.0070667396468407735","-0.002273656192797161","-0.00020929523730269523","-0.002405440971771188","0.07302837012527058","0.2716985971359979","-0.0496585216405607"
"-0.01068092244962005","-0.03231706565636778","0.004410884697775685","-0.002611691152727278","-0.00020929523730269523","-0.002405440971771188","0.07459737092358452","0.2717830672592715","-0.05397407501803015"
"-0.011660801643208074","-0.03430985176944158","0.0030918694881728846","-0.0012595513130068093","-0.00020929523730269523","-0.0015320964443030424","0.07302837012527058","0.2716985971359979","-0.05397407501803015"
"-0.01068092244962005","-0.03430985176944158","0.0004181900092482769","-0.0012595513130068093","0.0009318448599446553","-0.002405440971771188","0.07459737092358452","0.27485777974642644","-0.054180191000237625"
"-0.011660801643208074","-0.03530624482597848","0.0004360145391077643","0.00043062348664377604","0.0009318448599446553","-0.001920249567622218","0.07459737092358452","0.2748155446847896","-0.04998057786275992"
"-0.011660801643208074","-0.036302637882515386","0.0017728542785700682","0.0017827633263642446","0.0009318448599446553","-0.002405440971771188","0.07459737092358452","0.27485777974642644","-0.054115779755797795"
"-0.011660801643208074","-0.036302637882515386","0.0030918694881728846","0.00110669340650401","0.0009318448599446553","-0.002405440971771188","0.07302837012527058","0.2748155446847896","-0.05423171999578952"
"-0.011660801643208074","-0.036302637882515386","0.0004538390689672676","0.00043062348664377604","0.0009318448599446553","-0.0028906323759201576","0.07459737092358452","0.27490001480806314","-0.054180191000237625"
"-0.011660801643208074","-0.03430985176944158","0.0030918694881728846","0.0014447283664341271","-0.00020929523730269523","-0.0014350581634732485","0.07459737092358452","0.2748155446847896","-0.054180191000237625"
"-0.011660801643208074","-0.03530624482597848","0.0004538390689672676","0.0014447283664341271","-0.00020929523730269523","-0.0014350581634732485","0.0714593693269567","0.2748155446847896","-0.05003210685831179"
"-0.011660801643208074","-0.036302637882515386","0.0004538390689672676","0.0021207982862943616","-0.00020929523730269523","-0.0015320964443030424","0.07459737092358452","0.27490001480806314","-0.054180191000237625"
"-0.011660801643208074","-0.038322353537657755","-0.0008830006704950362","0.0027968682061545957","-0.00020929523730269523","-0.0033758237800691274","0.07302837012527058","0.27485777974642644","-0.05423171999578952"
"-0.01068092244962005","-0.03631610265354967","0.003109694018032372","0.0017827633263642446","-0.00020929523730269523","-0.0028906323759201576","0.07302837012527058","0.2748155446847896","-0.04572943572973032"
"-0.011660801643208074","-0.03530624482597848","0.0004360145391077643","9.258852671365898e-05","-0.001692777363724251","-0.002017287848452012","0.07302837012527058","0.27784802211030785","-0.054180191000237625"
"-0.011660801643208074","-0.036302637882515386","0.0017728542785700682","9.258852671365898e-05","0.0009318448599446553","-0.002405440971771188","0.07302837012527058","0.2748155446847896","-0.04972293288500054"
"-0.011660801643208074","-0.036302637882515386","0.0030918694881728846","9.258852671365898e-05","0.0009318448599446553","-0.002405440971771188","0.0745973709235845","0.27485777974642644","-0.045677906734178424"
"-0.01068092244962005","-0.03631610265354967","0.0004538390689672676","9.258852671365898e-05","0.0009318448599446553","-0.002405440971771188","0.07302837012527058","0.2748155446847896","-0.05003210685831179"
"-0.011660801643208074","-0.03732596048112086","0.0004538390689672676","0.00043062348664377604","0.0009318448599446553","-0.0028906323759201576","0.07459737092358452","0.27789025717194454","-0.054180191000237625"
"-0.011660801643208074","-0.036302637882515386","0.0017728542785700682","-0.003220154080601489","0.0009318448599446553","-0.00046467535517530925","0.07302837012527058","0.2748155446847896","-0.04998057786275992"
"-0.01068092244962005","-0.03631610265354967","0.0004538390689672676","-0.0038286170084756996","0.00036127481132098004","-0.00046467535517530925","0.07302837012527058","0.27789025717194454","-0.04588402271638593"
"-0.011660801643208074","-0.038322353537657755","0.0004538390689672676","-0.004504686928335933","0.0009318448599446553","-0.0014350581634732485","0.07302837012527058","0.27485777974642644","-0.04998057786275992"
"-0.011660801643208074","-0.036302637882515386","-0.00221984040995734","-0.005180756848196168","0.0009318448599446553","-0.002405440971771188","0.0714593693269567","0.2748155446847896","-0.04578096472528218"
"-0.011660801643208074","-0.03430985176944158","0.0004181900092482769","-0.003896224000461723","0.0015024149085683305","-0.002405440971771188","0.07302837012527058","0.2748155446847896","-0.04147829359670071"
"-0.011660801643208074","-0.03530624482597848","-0.0022376649398168275","0.0014447283664341276","0.0009318448599446553","-0.002405440971771188","0.07302837012527058","0.27784802211030785","-0.041735938574460084"
"-0.011660801643208074","-0.038322353537657755","-0.00221984040995734","0.0034729381260148297","-0.00020929523730269523","-0.0016291347251328363","0.07302837012527058","0.2748155446847896","-0.04572943572973032"
"-0.011660801643208074","-0.038322353537657755","-0.003556680149419628","0.0007686584465738933","-0.0006657512762016354","-0.0014350581634732485","0.07459737092358452","0.27789025717194454","-0.0459355517119378"
"-0.011660801643208074","-0.038322353537657755","-0.00221984040995734","0.0007686584465738933","-0.0011222073151005757","-0.0006587519168348971","0.07459737092358452","0.2748155446847896","-0.04572943572973032"
"-0.011660801643208074","-0.036302637882515386","0.0004538390689672676","0.0014447283664341271","-0.003404487509595277","0.0006027457339524239","0.07302837012527058","0.27485777974642644","-0.04572943572973032"
"-0.011660801643208074","-0.038322353537657755","-0.00221984040995734","0.0027968682061545957","-0.001692777363724251","-0.00017356051268592755","0.07616637172189837","0.2718253023209082","-0.04536873276086719"
"-0.011660801643208074","-0.038322353537657755","-0.0008830006704950362","0.0024588332462244784","-0.0022633474123479264","0.00011755432980345415","0.07616637172189837","0.27485777974642644","-0.045677906734178424"
"-0.011660801643208074","-0.036302637882515386","0.0004538390689672676","0.0014447283664341271","-0.0028339174609716016","0.0006997840147822179","0.0714593693269567","0.2748155446847896","-0.04578096472528218"
"-0.011660801643208074","-0.036302637882515386","0.0004538390689672676","0.0017827633263642446","-0.003404487509595277","0.00011755432980345415","0.07459737092358452","0.27789025717194454","-0.04598708070748968"
"-0.011660801643208074","-0.036302637882515386","0.0004538390689672676","0.0021207982862943616","-0.0028339174609716016","0.00021459261063324817","0.07302837012527058","0.2748155446847896","-0.04572943572973032"
"-0.011660801643208074","-0.036302637882515386","0.0004538390689672676","0.00043062348664377604","-0.003404487509595277","0.0015731285422503633","0.07459737092358452","0.2717408321976348","-0.04967140388944866"
"-0.01068092244962005","-0.03631610265354967","0.0004538390689672676","9.258852671365898e-05","-0.0028339174609716016","0.0010879371381013936","0.07302837012527058","0.2748155446847896","-0.04998057786275992"
"-0.011660801643208074","-0.036302637882515386","0.0030918694881728846","-0.0005834813931465753","-0.003404487509595277","0.0006997840147822179","0.07302837012527058","0.27485777974642644","-0.04998057786275992"
"-0.011660801643208074","-0.038322353537657755","0.0004538390689672676","-0.004166651968405817","-0.0022633474123479264","0.0011849754189311877","0.07459737092358452","0.27789025717194454","-0.054437835977997014"
"-0.011660801643208074","-0.03530624482597848","0.004428709227635172","-0.008899141407427457","-0.0028339174609716016","0.000796822295612012","0.07459737092358452","0.27485777974642644","-0.045677906734178424"
"-0.01068092244962005","-0.03231706565636778","0.003056220428453878","-0.010927351167008159","-0.003404487509595277","0.002058319946399333","0.07302837012527058","0.27485777974642644","-0.05416730875134966"
"-0.011660801643208074","-0.03430985176944158","0.0004181900092482769","-0.006532896687916636","-0.0022633474123479264","0.0003116308914630422","0.07302837012527058","0.2718253023209082","-0.04547179075197094"
"-0.011660801643208074","-0.036302637882515386","0.0004538390689672676","0.00110669340650401","-0.0006657512762016354","-0.0015320964443030424","0.07459737092358452","0.2748155446847896","-0.04998057786275992"
"-0.011660801643208074","-0.03430985176944158","0.0017550297487105807","0.004149008045875064","-0.001692777363724251","-0.0016291347251328363","0.07302837012527058","0.2748155446847896","-0.04998057786275992"
"-0.011660801643208074","-0.03530624482597848","0.0004181900092482769","0.007732178621134306","0.0004753888210457151","-0.0038610151842180967","0.07459737092358452","0.2717830672592715","-0.04967140388944866"
"-0.011660801643208074","-0.036302637882515386","0.0030918694881728846","0.009760388380715006","0.0015024149085683305","-0.004346206588367067","0.07459737092358452","0.27485777974642644","-0.054180191000237625"
"-0.01068092244962005","-0.03430985176944158","0.0030918694881728846","0.007394143661204189","1.8932782146774882e-05","-0.002405440971771188","0.07459737092358452","0.2748155446847896","-0.05392254602247826"
"-0.011660801643208074","-0.03430985176944158","-0.000918649730214027","0.00583918284552565","-0.0005516372664769004","-0.0029876706567499517","0.07459737092358452","0.27789025717194454","-0.054437835977997014"
"-0.011660801643208074","-0.03530624482597848","0.0004360145391077643","0.008070213581064424","1.8932782146774882e-05","-0.0029876706567499517","0.07459737092358452","0.27789025717194454","-0.054180191000237625"
"-0.011660801643208074","-0.04031513965073156","0.0004894881286862743","0.00583918284552565","-0.001692777363724251","-0.0025995175334307757","0.0745973709235845","0.271867537382545","-0.0539096637735903"
"-0.011660801643208074","-0.038322353537657755","-0.00221984040995734","0.0017827633263642446","-0.003404487509595277","-0.002017287848452012","0.07459737092358452","0.27789025717194454","-0.054437835977997014"
"-0.011660801643208074","-0.038322353537657755","-0.0008651761406355329","0.0014447283664341271","-0.0006657512762016354","-0.0033758237800691274","0.07302837012527058","0.27784802211030785","-0.05448936497354888"
"-0.009701043256032025","-0.03632956742458395","0.0031275185478918752","-0.004504686928335933","-0.0006657512762016354","-0.0028906323759201576","0.07302837012527058","0.2748155446847896","-0.04998057786275992"
"-0.011660801643208074","-0.03430985176944158","0.0030918694881728846","-0.005180756848196168","-0.003404487509595277","-0.0006587519168348971","0.07302837012527058","0.2748155446847896","-0.05423171999578952"
"-0.011660801643208074","-0.033313458712904684","0.0017372052188510774","-0.002273656192797161","-0.0022633474123479264","-0.0006587519168348971","0.07302837012527058","0.27784802211030785","-0.05448936497354888"
"-0.011660801643208074","-0.036302637882515386","0.0004538390689672676","0.00110669340650401","-0.0012363213248253106","-0.0010469050401540729","0.07302837012527058","0.27789025717194454","-0.05448936497354888"
"-0.011660801643208074","-0.036302637882515386","0.0004538390689672676","-0.0002454464332164581","-0.0022633474123479264","-0.0011439433209838666","0.07302837012527058","0.27784802211030785","-0.05448936497354888"
"-0.011660801643208074","-0.036302637882515386","0.0004538390689672676","-0.0019356212328670438","-0.0028339174609716016","0.0003116308914630422","0.07302837012527058","0.27784802211030785","-0.05448936497354888"
"-0.011660801643208074","-0.036302637882515386","0.0017728542785700682","-0.0019356212328670438","-0.0011222073151005757","-0.0014350581634732485","0.07302837012527058","0.2748155446847896","-0.05423171999578952"
"-0.009701043256032025","-0.03632956742458395","0.0031275185478918752","-0.004166651968405817","-0.001692777363724251","-0.0014350581634732485","0.07302837012527058","0.2748155446847896","-0.05423171999578952"
"-0.011660801643208074","-0.03530624482597848","0.0030918694881728846","-0.006532896687916636","-0.0028339174609716016","-0.0006587519168348971","0.07302837012527058","0.27485777974642644","-0.05416730875134966"
"-0.011660801643208074","-0.036302637882515386","0.0004538390689672676","-0.0048427218882660505","-0.0006657512762016354","-0.0014350581634732485","0.07302837012527058","0.27784802211030785","-0.050238222840519285"
"-0.011660801643208074","-0.036302637882515386","0.0030918694881728846","-0.005180756848196168","-0.0011222073151005757","-0.0014350581634732485","0.07302837012527058","0.27784802211030785","-0.04598708070748968"
"-0.01068092244962005","-0.038322353537657755","0.0017906788084295713","-0.007885036527637104","-0.0018068913734489863","-0.0014350581634732485","0.07459737092358452","0.27789025717194454","-0.0501866938449674"
"-0.011660801643208074","-0.038322353537657755","-0.00221984040995734","-0.009575211327287692","-0.0018068913734489863","-0.0005617136360051032","0.07459737092358452","0.27789025717194454","-0.0459355517119378"
"-0.011660801643208074","-0.036302637882515386","-0.00221984040995734","-0.005180756848196168","-0.0011222073151005757","-0.0014350581634732485","0.07302837012527058","0.27784802211030785","-0.04998057786275992"
"-0.011660801643208074","-0.038322353537657755","-0.00221984040995734","-0.0019356212328670438","-0.0006657512762016354","-0.0033758237800691274","0.07302837012527058","0.27789025717194454","-0.04598708070748968"
"-0.01068092244962005","-0.038322353537657755","0.0004716635988267709","9.258852671365898e-05","0.0009318448599446553","-0.001920249567622218","0.07302837012527058","0.2748155446847896","-0.04572943572973032"
"-0.01068092244962005","-0.03731249571008657","0.0031275185478918752","0.0014447283664341271","-0.0011222073151005757","-0.002405440971771188","0.07302837012527058","0.27793249223358124","-0.04598708070748968"
"-0.011660801643208074","-0.038322353537657755","-0.0008830006704950362","0.0014447283664341271","-0.0022633474123479264","-0.0016291347251328363","0.07302837012527058","0.27784802211030785","-0.04598708070748968"
"-0.009701043256032025","-0.038322353537657755","0.0004894881286862743","0.0021207982862943616","-0.0022633474123479264","-0.0006587519168348971","0.07302837012527058","0.2809649696590995","-0.04624472568524905"
"-0.011660801643208074","-0.038322353537657755","-0.0008830006704950362","0.0014447283664341271","-0.0022633474123479264","-0.00017356051268592755","0.0714593693269567","0.27784802211030785","-0.04603860970304156"
"-0.011660801643208074","-0.038322353537657755","-0.00221984040995734","0.0027968682061545957","-0.0022633474123479264","0.00021459261063324817","0.07302837012527058","0.27789025717194454","-0.04598708070748968"
"-0.011660801643208074","-0.04031513965073156","0.0004894881286862743","0.0024588332462244784","-0.0022633474123479264","-0.0006587519168348971","0.07302837012527058","0.27784802211030785","-0.05423171999578952"
"-0.009701043256032025","-0.03531970959701277","0.0031453430777513783","0.00043062348664377604","-0.0028339174609716016","0.0006997840147822179","0.07302837012527058","0.27789025717194454","-0.046296254680800925"
"-0.01068092244962005","-0.036302637882515386","0.0030918694881728846","-0.0002454464332164581","-0.0039750575582189526","0.0010879371381013936","0.07302837012527058","0.2748155446847896","-0.04572943572973032"
"-0.011660801643208074","-0.038322353537657755","0.0004538390689672676","0.00110669340650401","-0.001692777363724251","0.0006997840147822179","0.07459737092358452","0.2717830672592715","-0.045420261756419056"
"-0.01068092244962005","-0.038322353537657755","0.0004716635988267709","-0.0019356212328670438","-0.0011222073151005757","0.0003116308914630422","0.07459737092358452","0.27789025717194454","-0.0501866938449674"
"-0.011660801643208074","-0.036302637882515386","0.0004538390689672676","-0.002611691152727278","-0.0022633474123479264","-0.00017356051268592755","0.07459737092358452","0.27789025717194454","-0.04624472568524905"
"-0.011660801643208074","-0.036302637882515386","0.004428709227635172","-0.0002454464332164581","-0.0011222073151005757","-0.00017356051268592755","0.07302837012527058","0.27784802211030785","-0.04598708070748968"
"-0.01068092244962005","-0.03530624482597848","0.0030918694881728846","0.0014447283664341271","-0.00020929523730269523","0.0003116308914630422","0.07459737092358452","0.27789025717194454","-0.049864637622768195"
"-0.011660801643208074","-0.036302637882515386","0.0004538390689672676","0.0007686584465738933","-0.0011222073151005757","0.0003116308914630422","0.07302837012527058","0.27784802211030785","-0.04598708070748968"
"-0.011660801643208074","-0.036302637882515386","0.0004538390689672676","0.00110669340650401","-0.00020929523730269523","-0.00017356051268592755","0.07302837012527058","0.27789025717194454","-0.050238222840519285"
"-0.011660801643208074","-0.036302637882515386","0.0004538390689672676","0.0007686584465738933","-0.00020929523730269523","-0.0006587519168348971","0.07302837012527058","0.27784802211030785","-0.05412866200468575"
"-0.011660801643208074","-0.036302637882515386","0.0004538390689672676","0.0007686584465738933","-0.00020929523730269523","-0.00017356051268592755","0.07459737092358452","0.2748155446847896","-0.05392254602247826"
"-0.011660801643208074","-0.03631610265354967","0.0004538390689672676","0.0007686584465738933","-0.0006657512762016354","-0.00017356051268592755","0.07459737092358452","0.27789025717194454","-0.04998057786275992"
"-0.011660801643208074","-0.036302637882515386","0.0004538390689672676","0.0014447283664341271","-0.0011222073151005757","-0.00017356051268592755","0.07302837012527058","0.27789025717194454","-0.050238222840519285"
"-0.011660801643208074","-0.03732596048112086","0.0004538390689672676","0.00043062348664377604","-0.00020929523730269523","-0.0006587519168348971","0.0714593693269567","0.2747733096231529","-0.04578096472528218"
"-0.011660801643208074","-0.036302637882515386","-0.00221984040995734","0.0007686584465738933","-0.001692777363724251","-0.00017356051268592755","0.07459737092358452","0.2748155446847896","-0.05392254602247826"
"-0.011660801643208074","-0.03430985176944158","0.0030918694881728846","-0.0009215163530766924","-0.0022633474123479264","-0.0011439433209838666","0.07459737092358452","0.27789025717194454","-0.054180191000237625"
"-0.011660801643208074","-0.03430985176944158","0.0030918694881728846","0.00043062348664377604","-0.0022633474123479264","-0.0011439433209838666","0.07459737092358452","0.27789025717194454","-0.0459355517119378"
"-0.011660801643208074","-0.03530624482597848","-0.0009008252003545236","0.0044870430058051814","-0.001692777363724251","-0.0016291347251328363","0.07302837012527058","0.2717830672592715","-0.05397407501803015"
"-0.011660801643208074","-0.036302637882515386","-0.00221984040995734","0.007394143661204188","1.8932782146774882e-05","-0.0028906323759201576","0.07302837012527058","0.2748155446847896","-0.05423171999578952"
"-0.011660801643208074","-0.03430985176944158","0.0017550297487105807","0.008746283500924656","-0.0011222073151005757","-0.004831397992516037","0.07302837012527058","0.27784802211030785","-0.054180191000237625"
"-0.011660801643208074","-0.03430985176944158","0.0017550297487105807","0.010774493260505358","1.8932782146774882e-05","-0.006092895643303358","0.07302837012527058","0.27789025717194454","-0.05448936497354888"
"-0.01068092244962005","-0.038322353537657755","0.0031453430777513783","0.012126633100225829","0.0004753888210457151","-0.005704742519984181","0.0714593693269567","0.27784802211030785","-0.05448936497354888"
"-0.01068092244962005","-0.038322353537657755","0.00581902255667597","0.007394143661204189","-0.0005516372664769004","-0.006092895643303358","0.0714593693269567","0.2809227345974627","-0.05479853894686013"
"-0.011660801643208074","-0.03631610265354967","0.003109694018032372","0.0031349031660847133","-0.0028339174609716016","-0.0029876706567499517","0.0714593693269567","0.27784802211030785","-0.05454089396910077"
"-0.011660801643208074","-0.04031513965073156","0.003163167607610866","0.0021207982862943616","-0.001692777363724251","-0.0037639769033883026","0.07302837012527058","0.27793249223358124","-0.05448936497354888"
"-0.01068092244962005","-0.04132499747830274","0.003198816667329857","0.0007686584465738933","0.0015024149085683305","-0.0032787854992393332","0.07302837012527058","0.2809649696590995","-0.05474700995130827"
"-0.01068092244962005","-0.04331778359137655","0.004571305466511151","-0.0075470015677069876","-0.0006657512762016354","-0.001920249567622218","0.07302837012527058","0.27793249223358124","-0.05479853894686013"
"-0.011660801643208074","-0.04031513965073156","0.005836847086535473","-0.0145105217422674","-0.0007798652859263705","0.0005057074531226302","0.07302837012527058","0.27793249223358124","-0.05455377621798873"
"-0.011660801643208074","-0.04230792576380536","0.0031988166673298725","-0.020257116061079394","0.0009318448599446553","0.0023494347888887144","0.0714593693269567","0.27784802211030785","-0.05448936497354888"
"-0.011660801643208074","-0.038322353537657755","0.0004538390689672676","-0.025868496395919337","-0.00020929523730269523","0.0028346261930376846","0.0714593693269567","0.27789025717194454","-0.046296254680800925"
"-0.011660801643208074","-0.036302637882515386","-0.00221984040995734","-0.024516356556198868","0.002643555005815681","0.0038050090013356237","0.07459737092358452","0.27789025717194454","-0.045677906734178424"
"-0.011660801643208074","-0.036302637882515386","-0.00221984040995734","-0.01789087134156857","0.003784695103063032","0.0010879371381013936","0.07459737092358452","0.27793249223358124","-0.03769091242363798"
"-0.011660801643208074","-0.038322353537657755","-0.0035388556195601246","-0.01586266158198787","0.0015024149085683305","0.002252396508058921","0.07302837012527058","0.27789025717194454","-0.03748479644143048"
"-0.011660801643208074","-0.03731249571008657","-0.004893519888881931","-0.015524626622057752","0.002643555005815681","0.0009908988572715997","0.07302837012527058","0.27793249223358124","-0.03743326744587859"
"-0.011660801643208074","-0.03731249571008657","-0.004893519888881931","-0.010251281247147926","0.002643555005815681","-0.00036763707434551524","0.07459737092358452","0.27793249223358124","-0.03743326744587859"
"-0.011660801643208074","-0.036302637882515386","-0.00221984040995734","-0.006532896687916636","0.002643555005815681","-0.0014350581634732485","0.07302837012527058","0.27789025717194454","-0.03297600933064151"
"-0.011660801643208074","-0.038322353537657755","-0.004893519888881931","-0.0015975862729369268","0.00036127481132098004","-0.002405440971771188","0.07302837012527058","0.27789025717194454","-0.03743326744587859"
"-0.011660801643208074","-0.03731249571008657","-0.006230359628344236","0.0034729381260148297","0.0009318448599446553","-0.0037639769033883026","0.07459737092358452","0.27793249223358124","-0.03324653655728884"
"-0.013620560030384078","-0.03829542399558919","-0.004893519888881931","0.010774493260505358","0.0004753888210457151","-0.004346206588367067","0.07302837012527058","0.27789025717194454","-0.03748479644143048"
"-0.011660801643208074","-0.038322353537657755","-0.00221984040995734","0.012126633100225829","0.002643555005815681","-0.005607704239154388","0.07302837012527058","0.27789025717194454","-0.03753632543698235"
