"AccX","AccY","AccZ","GyroX","GyroY","GyroZ","MagX","MagY","MagZ"
"-0.01243439048025123","0.0027048038038009095","-0.025997763242526787","-0.0001778394412304347","-0.0004375232567521653","0.004096123843825006","-0.07453714799463124","-0.3842963802058995","0.09737946716671167"
"-0.013414269673839253","-0.001334627506483833","-0.0313272976705165","-0.002408870176769208","-0.0024915754317973962","0.004096123843825006","-0.07645371226092604","-0.38436395630451825","0.08646820235860236"
"-0.013414269673839253","-0.001334627506483833","-0.02865361819159189","-0.002746905136699325","-0.007056135820786799","0.006813195707059235","-0.07262058372833644","-0.38422880410728066","0.08110918682120746"
"-0.013414269673839253","-0.00032476967891265193","-0.02733460298198909","-0.005518791808126285","-0.005116197655466302","0.007298387111208206","-0.07262058372833644","-0.38422880410728066","0.08659702484748205"
"-0.01243439048025123","-0.00234448533405502","-0.02594428965294829","-0.0008539093610906689","-0.0008939792956511055","0.0045813152479739746","-0.07262058372833644","-0.38422880410728066","0.08633937986972268"
"-0.013414269673839253","-0.00032476967891265193","-0.02867144272145138","-0.004910328880252074","-0.0008939792956511055","0.005939851179591091","-0.07262058372833644","-0.38422880410728066","0.08659702484748205"
"-0.013414269673839253","-0.00032476967891265193","-0.027316778452129587","-0.007141359615790847","-0.0024915754317973962","0.005454659775442121","-0.07262058372833644","-0.38422880410728066","0.08659702484748205"
"-0.013414269673839253","0.0016949459762297223","-0.025997763242526787","-0.0061948617279865194","-0.0004375232567521653","0.0045813152479739746","-0.07262058372833644","-0.38422880410728066","0.08117359806564732"
"-0.013414269673839253","-0.00032476967891265193","-0.0313272976705165","-0.005518791808126285","0.0010459588696693904","0.004096123843825006","-0.07070898465444146","-0.38422880410728066","0.08659702484748205"
"-0.013414269673839253","0.0006850881486585411","-0.03134512220037599","-0.005586398800112308","0.0035564670836135616","0.0009908988572715997","-0.07262058372833644","-0.38422880410728066","0.08641667336305049"
"-0.015374028061015257","0.00371466163137209","-0.02740590110142707","-0.008696320431469387","0.0004753888210457151","0.0027375879122078905","-0.07070898465444146","-0.38416122800866187","0.09209774512264458"
"-0.014394148867427278","0.00371466163137209","-0.026051236832105282","-0.009913246287217809","-0.0015786633539995158","0.006813195707059235","-0.07262058372833644","-0.38794548953131414","0.09719911568228012"
"-0.015374028061015257","0.006744235114085652","-0.030097405110211167","-0.009304783359343597","-0.0005516372664769004","0.0032227793163568594","-0.07070898465444146","-0.3878779134326953","0.09726352692671995"
"-0.015374028061015257","0.008763950769228014","-0.031452069379532974","-0.0002454464332164581","0.002187098966916741","-0.0013380198826434546","-0.06879738558054627","-0.3878779134326953","0.09184010014488522"
"-0.014394148867427278","0.0027048038038009095","-0.028707091781170386","0.003540545118000853","0.0032141250544393566","-0.0030847089375797454","-0.07070898465444146","-0.3915945988567288","0.08648108460749032"
"-0.01243439048025123","-0.001334627506483833","-0.028635793661732387","0.0016475493423921976","0.0032141250544393566","0.0013790519805907753","-0.06879738558054627","-0.38416122800866187","0.09190451138932505"
"-0.013414269673839253","-0.00234448533405502","-0.028635793661732387","-0.0008539093610906689","1.8932782146774882e-05","0.001864243384739745","-0.06879738558054627","-0.38409365191004313","0.09216215636708443"
"-0.01243439048025123","-0.00234448533405502","-0.0339475035598626","-0.0045722939203219565","-0.0014645493442747807","0.001864243384739745","-0.07070898465444146","-0.3915945988567288","0.0864037911141625"
"-0.013414269673839253","0.0006850881486585411","-0.030008282460913683","-0.0045722939203219565","-0.0014645493442747807","0.0008938605764418059","-0.06879738558054627","-0.38409365191004313","0.08672584733636172"
"-0.015374028061015257","0.0006985529196928161","-0.028707091781170386","-0.009575211327287692","-0.0021492334026231913","0.0028346261930376846","-0.07262058372833644","-0.38422880410728066","0.09744387841115151"
"-0.015374028061015257","0.011793524251941563","-0.02881403896032736","-0.007682215551679034","-0.0005516372664769004","-0.000852828478494485","-0.06879738558054627","-0.38416122800866187","0.09190451138932505"
"-0.016353907254603325","0.007754092941656827","-0.03011522964007067","0.005095505933679392","0.006181089307282468","-0.004928436273345831","-0.07262058372833644","-0.38422880410728066","0.09744387841115151"
"-0.016353907254603325","0.006744235114085652","-0.028778389900608367","0.011923812124267756","0.00937628157957505","-0.011235924527282434","-0.07262058372833644","-0.38422880410728066","0.08659702484748205"
"-0.011454511286663204","-0.00032476967891265193","-0.025979938712667284","0.014695698795694715","0.009946851628198725","-0.011235924527282434","-0.07262058372833644","-0.38422880410728066","0.08659702484748205"
"-0.01243439048025123","-0.0053605940457342825","-0.02858232007215391","0.0013095143824620806","-0.0004375232567521653","-0.003181747218409539","-0.07262058372833644","-0.38422880410728066","0.08659702484748205"
"-0.009468966604919065","-0.009400025356019031","-0.031149052371921514","-0.006127254736000496","-0.003062145480421072","0.0027375879122078905","-0.07453714799463124","-0.3842963802058995","0.0865326136030422"
"-0.01243439048025123","-0.009386560584984743","-0.0325750147606813","-0.013361202878505002","-0.007740819879135209","0.005066506652122944","-0.07262058372833644","-0.38422880410728066","0.09202045162931677"
"-0.013414269673839253","0.00371466163137209","-0.030043931520632675","-0.016538731501848106","-0.006713793791612592","0.0036109324396760355","-0.07262058372833644","-0.38422880410728066","0.09737946716671167"
"-0.015374028061015257","0.008763950769228014","-0.027441550161146064","-0.005518791808126284","0.0015024149085683305","-0.000852828478494485","-0.07262058372833644","-0.38422880410728066","0.09744387841115151"
"-0.016353907254603325","0.006744235114085652","-0.031452069379532974","0.0019179773103362914","0.006295203317007203","-0.006772163609111914","-0.07262058372833644","-0.38422880410728066","0.08659702484748205"
"-0.017333786448191304","0.006744235114085652","-0.03146989390939246","0.004419436013819159","0.00983273761847399","-0.01307965186304852","-0.07645371226092604","-0.3805796947818661","0.08695772781634517"
"-0.016353907254603325","0.0027048038038009095","-0.02740590110142707","0.01063927927653331","0.010403307667097664","-0.013952996390516665","-0.07645371226092604","-0.3806472708804849","0.08695772781634517"
"-0.01243439048025123","-0.006356987102271189","-0.028564495542294406","0.011315349196393546","0.006865773365630878","-0.01036257999981429","-0.07645371226092604","-0.38071484697910374","0.08664855384303391"
"-0.010461738945791157","-0.014435849722840666","-0.03246806758152431","-0.0020708352168390906","-0.0004375232567521653","-0.0013380198826434546","-0.07645371226092604","-0.3769305854564515","0.087022139060785"
"-0.010461738945791157","-0.014435849722840666","-0.03380490732098662","-0.011468207102896345","-0.002605689441522132","0.0008938605764418059","-0.07645371226092604","-0.3806472708804849","0.09731505592227183"
"-0.011454511286663204","-0.00537405881676857","-0.0299191598116162","-0.015254198654113657","-0.004089171567943687","0.0032227793163568594","-0.07645371226092604","-0.38071484697910374","0.09731505592227183"
"-0.013414269673839253","-0.001334627506483833","-0.03400097714944109","-0.016809159469792195","-0.0036327155290447467","0.0045813152479739746","-0.07645371226092604","-0.3769305854564515","0.09783034587779058"
"-0.014394148867427278","0.0016949459762297223","-0.03268196193983829","-0.01369923783843512","-0.0015786633539995158","0.0028346261930376846","-0.07645371226092604","-0.3806472708804849","0.0975727009000312"
"-0.016353907254603325","0.004724519458943277","-0.02608688589182427","-0.007749822543665058","0.0010459588696693904","0.0013790519805907753","-0.07645371226092604","-0.3769981615550702","0.0974954074067034"
"-0.013414269673839253","0.0016949459762297223","-0.02733460298198909","-0.003084940096629442","-0.0004375232567521653","0.0036109324396760355","-0.07645371226092604","-0.3769305854564515","0.09783034587779058"
"-0.013414269673839253","-0.0053471292747000075","-0.0326284883502598","-0.002408870176769208","0.0016165289182930656","0.0045813152479739746","-0.07645371226092604","-0.3806472708804849","0.10300900993075389"
"-0.013414269673839253","-0.001334627506483833","-0.02999045793105418","-0.00463990091230798","-0.0004375232567521653","0.0036109324396760355","-0.07453714799463124","-0.3769305854564515","0.0978947571222304"
"-0.013414269673839253","-0.00334087839059192","-0.03398315261958159","-0.0036934030245036526","0.0020729849571920057","0.001864243384739745","-0.07645371226092604","-0.3769305854564515","0.09783034587779058"
"-0.013414269673839253","-0.00334087839059192","-0.03398315261958159","-0.0040314379844337694","0.0016165289182930656","0.0005057074531226302","-0.07453714799463124","-0.3806472708804849","0.09755981865114323"
"-0.013414269673839253","0.0006850881486585411","-0.02867144272145138","-0.003963830992447747","-0.0014645493442747807","0.0005057074531226302","-0.07453714799463124","-0.37686300935783273","0.10331818390406515"
"-0.013414269673839253","-0.001334627506483833","-0.0313272976705165","-0.003963830992447747","1.8932782146774882e-05","0.0036109324396760355","-0.07453714799463124","-0.3805796947818661","0.09763711214447103"
"-0.014394148867427278","-0.002331020563020733","-0.03266413740997879","-0.0014623722889648798","0.0016165289182930656","0.0023494347888887153","-0.07645371226092604","-0.3769305854564515","0.0978947571222304"
"-0.013414269673839253","-0.004337271447128814","-0.03130947314065698","-0.0001778394412304347","0.0011600728793941255","-0.000852828478494485","-0.07645371226092604","-0.3769305854564515","0.09783034587779058"
"-0.013414269673839253","-0.00334087839059192","-0.03130947314065698","0.0007010514545878698","0.0036705810933382967","-0.0025995175334307757","-0.07645371226092604","-0.3769305854564515","0.09783034587779058"
"-0.013414269673839253","-0.006356987102271189","-0.031291648610797494","-0.0018004072488949968","0.0011600728793941255","-0.00036763707434551524","-0.07645371226092604","-0.3806472708804849","0.09731505592227183"
"-0.013414269673839253","-0.00032476967891265193","-0.0313272976705165","-0.005518791808126285","-0.0029480314706963363","0.0013790519805907753","-0.07645371226092604","-0.3805796947818661","0.09763711214447103"
"-0.013414269673839253","-0.00234448533405502","-0.03130947314065698","-0.005518791808126285","-0.003518601519320012","0.005066506652122944","-0.07262058372833644","-0.37679543325921383","0.09795916836667025"
"-0.013414269673839253","-0.004337271447128814","-0.03264631288011929","-0.007749822543665058","-0.004089171567943687","0.008268769919506144","-0.07453714799463124","-0.3769305854564515","0.09783034587779058"
"-0.013414269673839253","-0.004337271447128814","-0.0326284883502598","-0.005180756848196168","-0.004545627606842627","0.006813195707059235","-0.07453714799463124","-0.3842963802058995","0.09737946716671167"
"-0.013414269673839253","-0.004337271447128814","-0.03398315261958159","-0.005856826768056402","-0.003518601519320012","0.006328004302910265","-0.07453714799463124","-0.38422880410728066","0.09763711214447103"
"-0.013414269673839253","-0.004337271447128814","-0.03130947314065698","-0.005518791808126285","-0.004089171567943687","0.0045813152479739746","-0.07262058372833644","-0.38422880410728066","0.09737946716671167"
"-0.013414269673839253","0.0006850881486585411","-0.031309473140657","-0.009304783359343597","-0.005002083645741567","0.005939851179591091","-0.07262058372833644","-0.38416122800866187","0.0977788168822387"
"-0.015374028061015257","0.00371466163137209","-0.03275326005927627","-0.008696320431469387","-0.005572653694365242","0.005939851179591091","-0.07262058372833644","-0.38422880410728066","0.09744387841115151"
"-0.013414269673839253","0.0016949459762297223","-0.030026106990773186","-0.0040314379844337694","-0.0029480314706963363","0.005939851179591091","-0.07262058372833644","-0.38422880410728066","0.09752117190447933"
"-0.015374028061015257","0.004724519458943277","-0.027388076571567586","-0.003084940096629442","-0.002035119392898456","0.0036109324396760355","-0.07262058372833644","-0.38422880410728066","0.09744387841115151"
"-0.015374028061015257","0.004724519458943277","-0.03006175605049216","0.00043062348664377604","-0.0014645493442747807","0.004096123843825006","-0.06879738558054627","-0.38409365191004313","0.09759846539780713"
"-0.015374028061015257","0.0016949459762297223","-0.03006175605049216","0.004689863981763252","0.0007036168404951853","-0.000852828478494485","-0.07262058372833644","-0.38422880410728066","0.09744387841115151"
"-0.014394148867427278","0.0057343772865144586","-0.027388076571567586","0.007529357645176236","0.002301212976641476","-0.0040550917458776845","-0.07262058372833644","-0.38416122800866187","0.09208486287375663"
"-0.013414269673839253","-0.00032476967891265193","-0.02867144272145138","0.011923812124267756","0.003784695103063032","-0.0040550917458776845","-0.07453714799463124","-0.3842963802058995","0.09195604038487694"
"-0.013414269673839253","-0.001334627506483833","-0.03130947314065698","0.009084318460854774","0.0032141250544393566","-0.0022113644101115996","-0.07262058372833644","-0.38422880410728066","0.09202045162931677"
"-0.013414269673839253","-0.006356987102271189","-0.029954808871335205","0.008475855532980563","0.0032141250544393566","-0.0022113644101115996","-0.07453714799463124","-0.3842963802058995","0.0865326136030422"
"-0.011454511286663204","-0.0043642009891973884","-0.028564495542294392","0.004689863981763252","0.0032141250544393566","-0.0030847089375797454","-0.07262058372833644","-0.3842963802058995","0.0865326136030422"
"-0.013414269673839253","-0.0053471292747000075","-0.0286001446020134","0.0025940472301965254","0.002187098966916741","-0.000852828478494485","-0.07645371226092604","-0.3842963802058995","0.0865326136030422"
"-0.013414269673839253","-0.00032476967891265193","-0.02867144272145138","-0.002746905136699325","-0.0008939792956511055","0.0013790519805907753","-0.07262058372833644","-0.38422880410728066","0.09744387841115151"
"-0.013414269673839253","0.0006850881486585411","-0.02601558777238629","-0.003963830992447747","-0.002035119392898456","0.0028346261930376846","-0.07453714799463124","-0.3842963802058995","0.0865326136030422"
"-0.013414269673839253","0.0027048038038009095","-0.028689267251310883","-0.005856826768056402","-0.0008939792956511055","0.005066506652122944","-0.07645371226092604","-0.3805796947818661","0.09763711214447103"
"-0.013414269673839253","-0.00234448533405502","-0.028635793661732387","-0.005180756848196168","-0.0008939792956511055","0.005066506652122944","-0.07453714799463124","-0.3842963802058995","0.0865326136030422"
"-0.013414269673839253","-0.00032476967891265193","-0.03134512220037599","-0.00835828547153927","-0.003062145480421072","0.005066506652122944","-0.07645371226092604","-0.38436395630451825","0.09164686641156569"
"-0.013414269673839253","-0.00032476967891265193","-0.030008282460913683","-0.00896674839941348","-0.0031762594901458066","0.005551698056271914","-0.07262058372833644","-0.38422880410728066","0.08659702484748205"
"-0.015374028061015257","0.0016949459762297223","-0.031380771260094996","-0.007749822543665058","-0.002035119392898456","0.0045813152479739746","-0.07262058372833644","-0.38422880410728066","0.09202045162931677"
"-0.014394148867427278","0.00371466163137209","-0.02872491631102987","-0.005856826768056402","-0.0008939792956511055","0.0036109324396760355","-0.07262058372833644","-0.38794548953131414","0.08635226211861065"
"-0.014394148867427278","-0.000297840136844078","-0.03136294673023549","-0.005180756848196168","1.8932782146774882e-05","0.004096123843825006","-0.07262058372833644","-0.38422880410728066","0.09202045162931677"
"-0.013414269673839253","-0.00032476967891265193","-0.03134512220037599","-0.0033553680645735354","1.8932782146774882e-05","0.001864243384739745","-0.07262058372833644","-0.38422880410728066","0.09744387841115151"
"-0.013414269673839253","-0.00032476967891265193","-0.030008282460913683","-0.005180756848196168","-0.0004375232567521653","0.0023494347888887153","-0.07262058372833644","-0.38422880410728066","0.09744387841115151"
"-0.013414269673839253","-0.00032476967891265193","-0.03134512220037599","-0.004910328880252074","-0.0014645493442747807","0.0032227793163568594","-0.07262058372833644","-0.38422880410728066","0.09744387841115151"
"-0.015374028061015257","0.0006985529196928161","-0.031380771260094996","-0.0045722939203219565","1.8932782146774882e-05","0.0008938605764418059","-0.07262058372833644","-0.38422880410728066","0.09744387841115151"
"-0.014394148867427278","0.004724519458943277","-0.02872491631102987","-0.002746905136699325","-0.0004375232567521653","0.00011755432980345415","-0.07262058372833644","-0.38422880410728066","0.09744387841115151"
"-0.013414269673839253","0.0006850881486585411","-0.02601558777238629","-0.0020708352168390906","-0.0008939792956511055","0.0028346261930376846","-0.07262058372833644","-0.38422880410728066","0.09202045162931677"
"-0.015374028061015257","-0.000297840136844078","-0.031380771260094996","-0.0018004072488949968","-0.0004375232567521653","0.001864243384739745","-0.07262058372833644","-0.38422880410728066","0.09744387841115151"
"-0.014394148867427278","0.0006985529196928161","-0.028689267251310883","-0.0002454464332164581","-0.0004375232567521653","0.001864243384739745","-0.07262058372833644","-0.38422880410728066","0.08659702484748205"
"-0.013414269673839253","0.00371466163137209","-0.02603341230224578","0.00036301649465775266","0.0005895028307704501","0.00011755432980345415","-0.07262058372833644","-0.38422880410728066","0.08659702484748205"
"-0.011454511286663204","0.0006850881486585411","-0.028635793661732387","0.00036301649465775266","0.0005895028307704501","0.0005057074531226302","-0.07262058372833644","-0.38794548953131414","0.08666143609192188"
"-0.015374028061015257","-0.000297840136844078","-0.031380771260094996","-0.003084940096629442","-0.0008939792956511055","-0.000852828478494485","-0.07262058372833644","-0.38422880410728066","0.08659702484748205"
"-0.013414269673839253","-0.00032476967891265193","-0.03134512220037599","-0.0014623722889648798","-0.0008939792956511055","-0.0030847089375797454","-0.07262058372833644","-0.3842963802058995","0.09195604038487694"
"-0.014394148867427278","0.0006850881486585411","-0.03136294673023549","9.258852671365898e-05","0.0016165289182930656","-0.0025995175334307757","-0.07262058372833644","-0.38422880410728066","0.08659702484748205"
"-0.013414269673839253","-0.001334627506483833","-0.02865361819159189","-0.0002454464332164581","-0.0014645493442747807","-0.0013380198826434546","-0.07262058372833644","-0.38422880410728066","0.08659702484748205"
"-0.013414269673839253","0.00371466163137209","-0.028707091781170386","-0.0036934030245036526","-0.002035119392898456","0.0013790519805907753","-0.07262058372833644","-0.38422880410728066","0.09202045162931677"
"-0.013414269673839253","-0.00032476967891265193","-0.025997763242526787","-0.003084940096629442","-0.0014645493442747807","0.001864243384739745","-0.07262058372833644","-0.38422880410728066","0.08659702484748205"
"-0.013414269673839253","-0.00032476967891265193","-0.02733460298198909","-0.003084940096629442","-0.0024915754317973962","0.0023494347888887153","-0.07262058372833644","-0.38422880410728066","0.09177568890044537"
"-0.013414269673839253","0.0006850881486585411","-0.025997763242526787","-0.0036934030245036526","-0.0029480314706963363","0.0028346261930376846","-0.07262058372833644","-0.38422880410728066","0.09202045162931677"
"-0.013414269673839253","0.0006850881486585411","-0.02867144272145138","-0.00463990091230798","-0.004089171567943687","0.0045813152479739746","-0.07262058372833644","-0.38422880410728066","0.08659702484748205"
"-0.01243439048025123","0.0006850881486585411","-0.028635793661732387","-0.004910328880252074","-0.004089171567943687","0.005939851179591091","-0.07262058372833644","-0.3842963802058995","0.08666143609192188"
"-0.013414269673839253","-0.002331020563020733","-0.02865361819159189","-0.005180756848196168","-0.0024915754317973962","0.0028346261930376846","-0.07262058372833644","-0.38422880410728066","0.08684178757635345"
"-0.013414269673839253","-0.00234448533405502","-0.028635793661732387","-0.00463990091230798","-0.0024915754317973962","0.0013790519805907753","-0.07070898465444146","-0.38416122800866187","0.09208486287375663"
"-0.013414269673839253","0.0027048038038009095","-0.025997763242526787","-0.003963830992447747","-0.002035119392898456","0.0028346261930376846","-0.07262058372833644","-0.38422880410728066","0.08659702484748205"
"-0.013414269673839253","0.0027048038038009095","-0.02603341230224578","-0.002476477168755231","-0.0008939792956511055","0.0028346261930376846","-0.07262058372833644","-0.38422880410728066","0.08666143609192188"
"-0.014394148867427278","0.00371466163137209","-0.026051236832105282","-0.004301865952377863","-0.0014645493442747807","0.0036109324396760355","-0.07070898465444146","-0.3878779134326953","0.08641667336305049"
"-0.013414269673839253","0.0016949459762297223","-0.02733460298198909","-0.0033553680645735354","-0.0008939792956511055","0.004096123843825006","-0.06879738558054627","-0.3878779134326953","0.09190451138932505"
"-0.013414269673839253","0.0016949459762297223","-0.025997763242526787","-0.0015299792809509033","0.0005895028307704501","0.0028346261930376846","-0.07262058372833644","-0.3878779134326953","0.08659702484748205"
"-0.013414269673839253","0.0006850881486585411","-0.02733460298198909","-0.002746905136699325","0.0020729849571920057","0.0005057074531226302","-0.07262058372833644","-0.3878779134326953","0.08641667336305049"
"-0.013414269673839253","0.0027048038038009095","-0.02601558777238629","-0.0011919443210207858","0.0020729849571920057","0.0008938605764418059","-0.07262058372833644","-0.3878779134326953","0.08641667336305049"
"-0.013414269673839253","0.0006850881486585411","-0.02867144272145138","-0.0002454464332164581","0.0032141250544393566","-0.000852828478494485","-0.07262058372833644","-0.38794548953131414","0.08633937986972268"
"-0.013414269673839253","-0.00032476967891265193","-0.02733460298198909","9.258852671365898e-05","0.004127037132237237","-0.0013380198826434546","-0.07262058372833644","-0.38794548953131414","0.08633937986972268"
"-0.01243439048025123","0.0006850881486585411","-0.028635793661732387","0.001039086414517987","0.0020729849571920057","-0.000852828478494485","-0.07070898465444146","-0.3878779134326953","0.08659702484748205"
"-0.013414269673839253","-0.001334627506483833","-0.02999045793105418","-0.0014623722889648798","0.0032141250544393566","-0.0013380198826434546","-0.07262058372833644","-0.38422880410728066","0.0865326136030422"
"-0.013414269673839253","0.0006850881486585411","-0.030008282460913683","-0.0034229750565595595","0.0032141250544393566","-0.0018232112867924244","-0.07262058372833644","-0.38422880410728066","0.08659702484748205"
"-0.014394148867427278","0.00371466163137209","-0.02872491631102987","-0.0045722939203219565","-0.0008939792956511055","0.0008938605764418059","-0.07070898465444146","-0.38416122800866187","0.09208486287375663"
"-0.013414269673839253","0.0006850881486585411","-0.02867144272145138","-0.0040314379844337694","-0.0008939792956511055","0.0036109324396760355","-0.07070898465444146","-0.38794548953131414","0.09719911568228012"
"-0.013414269673839253","0.0027048038038009095","-0.02601558777238629","-0.005856826768056402","-0.005572653694365242","0.005939851179591091","-0.07070898465444146","-0.3878779134326953","0.09184010014488522"
"-0.013414269673839253","0.0006850881486585411","-0.028707091781170386","-0.0064652896959306125","-0.003975057558218952","0.007783578515357174","-0.07070898465444146","-0.3878779134326953","0.08659702484748205"
"-0.013414269673839253","-0.00032476967891265193","-0.03268196193983829","-0.0015299792809509033","-0.003518601519320012","0.005066506652122944","-0.07453714799463124","-0.3915945988567288","0.08627496862528283"
"-0.013414269673839253","0.0016949459762297223","-0.03134512220037599","-0.0034229750565595595","-0.0010080933053758406","0.0005057074531226302","-0.07070898465444146","-0.3878779134326953","0.09184010014488522"
"-0.013414269673839253","0.0016949459762297223","-0.024660923503064484","-0.0034229750565595595","-0.0004375232567521653","0.0013790519805907753","-0.07262058372833644","-0.3878779134326953","0.08641667336305049"
"-0.013414269673839253","0.0016949459762297223","-0.02867144272145138","-0.004301865952377863","-0.003518601519320012","0.0036109324396760355","-0.06879738558054627","-0.3915270227581099","0.08623632187861892"
"-0.013414269673839253","0.0016949459762297223","-0.025997763242526787","-0.0061948617279865194","-0.002035119392898456","0.005551698056271914","-0.06879738558054627","-0.3878779134326953","0.08641667336305049"
"-0.013414269673839253","0.0057343772865144586","-0.023359732823321187","-0.003084940096629442","-0.0014645493442747807","0.0045813152479739746","-0.06879738558054627","-0.38781033733407655","0.08648108460749032"
"-0.013414269673839253","0.0006850881486585411","-0.02735242751184858","0.0007010514545878698","0.002643555005815681","0.0023494347888887153","-0.06688082131425147","-0.38781033733407655","0.08666143609192188"
"-0.013414269673839253","0.0006850881486585411","-0.02867144272145138","0.0019179773103362914","0.0016165289182930656","0.0008938605764418059","-0.06688082131425147","-0.39139187056087243","0.0810576578256556"
"-0.015374028061015257","0.00371466163137209","-0.028742740840889375","-0.0045722939203219565","-0.0014645493442747807","0.0023494347888887153","-0.06688082131425147","-0.39139187056087243","0.0863651443674986"
"-0.015374028061015257","0.00371466163137209","-0.028742740840889375","-0.0040314379844337694","0.0020729849571920057","-0.00036763707434551524","-0.07070898465444146","-0.3915945988567288","0.08630073312305878"
