"AccX","AccY","AccZ","GyroX","GyroY","GyroZ","MagX","MagY","MagZ"
"0.008521099144644757","0.046618812422649265","0.016689040249956977","-0.0020061771085619633","-0.02472676835689442","-0.008007736098231936","-0.020633126893024156","0.29270065739223916","0.5614193118190977"
"0.008521099144644757","0.047611461848771804","0.015195485415318207","0.0023364616695701365","-0.026763325904355862","-0.0018729832775621757","-0.025966899766427715","0.2934592116634493","0.5611828164358778"
"0.008521099144644757","0.046618812422649265","0.01618806311259831","0.003424650967288898","-0.0315681606386371","-0.0013392978362562432","-0.01506404051050006","0.29303908929785605","0.5583842877344448"
"0.008521099144644757","0.046618812422649265","0.01618806311259831","-0.0004687916087699453","-0.03005709953845678","0.0003570484099353089","-0.017887802619949156","0.2937976435690662","0.5635477702680746"
"0.008252237120705072","0.046618812422649265","0.018173218507158556","0.005101547915506399","-0.029733685255299524","-0.0024515292342242585","-0.020633126893024156","0.29378597350335517","0.5618923025855368"
"0.008390252959660768","0.04826806959834505","0.019195935203343933","0.007313800883396189","-0.023012796886999563","-0.001305884486887524","-0.018319210720003625","0.29396102448901906","0.557674801584786"
"0.008252237120705072","0.04695264329869492","0.015173383482787668","0.006147117232277595","-0.028476055065864713","0.0025889363946199457","-0.015142478346873718","0.29443949718316703","0.5583054559400384"
"0.00879175358207737","0.04893130974942915","0.01522361514762978","-0.0020806854205782095","-0.032029057049845835","-0.003569948289482778","-0.013220751355721042","0.29538477250575196","0.5561769974910611"
"0.008659114983600454","0.049923959175551695","0.015222945392098562","9.017404063588807e-05","-0.02596493571494845","0.0006528184284213796","-0.01639748372885095","0.292723997523661","0.5546397775001332"
"0.008789961168584442","0.04744344101049717","0.01571186692989511","-0.007948444955783602","-0.02523280197279476","0.0017959881128419134","-0.015181697265060764","0.29397269455473","0.5572806426127532"
"0.008521099144644757","0.04777727188654282","0.014196210162725808","-0.004287725872812543","-0.026084197320005158","-0.0029725299780846595","-0.014240443228577298","0.291627011346834","0.5611828164358778"
"0.008657322570107526","0.04860190047439072","0.01621284406725376","-0.006503964882085917","-0.02609703450666057","-0.0029685080008458316","-0.014358099983138002","0.29334251100634007","0.561064568744268"
"0.008924392180554254","0.04760925104826818","0.016221550889159723","-0.0034592425021627553","-0.026083783217209822","-0.002977480103917062","-0.01914280800192595","0.2923972356837551","0.5598820918281695"
"0.008521099144644757","0.04728205257373335","0.015192806393193299","-0.0025988708004442865","-0.03135614000742517","-0.006080899617969125","-0.012828562173853185","0.293505891926293","0.5600397554169828"
"0.00879175358207737","0.048433879636116076","0.017220826141752122","0.001242446619059981","-0.026802251567117425","-0.0029920210985497453","-0.016985767501652736","0.29302741923214504","0.5609857369498613"
"0.008254029534197998","0.047613672649275414","0.015679048908864922","-0.0037263072748629643","-0.02833774473222256","-0.00410239619933061","-0.01969187285654156","0.2936459327148241","0.5603156666974055"
"0.00838846054616784","0.047613672649275414","0.015187448348943462","-0.0022732418812621722","-0.021015165002299687","-0.007987935594902323","-0.01949577826560763","0.293809313634777","0.5560587497994511"
"0.008386668132674914","0.046621023223152876","0.015679048908864922","-0.00035932878000533616","-0.024686600385746847","-0.006891173340160567","-0.018554524229124163","0.2936459327148241","0.5614193118190977"
"0.008254029534197998","0.04728205257373335","0.01617667726856744","0.0007187421049704784","-0.0305883934248726","-0.005803383188490041","-0.01871139990187148","0.29427611626321404","0.5598032600337628"
"0.007983375096765418","0.04662544482416009","0.014152676053195975","0.0034427414627990153","-0.027496287852100218","-0.0018745301918848014","-0.019025151247366114","0.294591208037409","0.5560193339022481"
"0.008521099144644757","0.04695043249819131","0.015190127371068377","-0.00040716127660835863","-0.021232983072646313","-0.002677688108192164","-0.026202213275548253","0.2942527761317922","0.5584631195288515"
"0.008789961168584442","0.04695043249819131","0.014206256495694227","0.0012743349501286626","-0.027603954578887528","-0.0052341187177637125","-0.01777014586538845","0.2950580106658461","0.5586996149120712"
"0.007716305486318659","0.04728647417474059","0.015141904972819954","-0.0015195734411965996","-0.028307515228163042","-0.0035436507459981384","-0.02220188362049602","0.2966101294053991","0.5568864836407202"
"0.008252237120705072","0.04629161394811444","0.015168025438537852","0.0062292910084930445","-0.03199924164858166","-0.004144472268906034","-0.02259407280236388","0.29519805145437716","0.557990128762412"
"0.008521099144644757","0.04728205257373335","0.015192806393193299","-0.00017106497927292717","-0.025995579321803294","-0.0004634349467854635","-0.017142643174400053","0.29739202380803115","0.5612222323330811"
"0.008521099144644757","0.047114031735458715","0.017193366164971767","-0.0020273337897517615","-0.023939144840165738","-0.006325002698079491","-0.01639748372885095","0.29553648335999394","0.5560587497994511"
"0.008522891558137683","0.047611461848771804","0.015695792797145624","-0.0031320804901407997","-0.026928552919694843","-0.006897051614586545","-0.01827999180181701","0.29599161592272005","0.5596850123421531"
"0.008386668132674914","0.04645742398588547","0.01417678725232019","-0.00257740750068652","-0.023939558942961073","-0.0063222182522987645","-0.019378121511046925","0.29629503763120413","0.559093773884104"
"0.008386668132674914","0.04612580391034341","0.016176007513036213","-0.004804991396974714","-0.029147315697104034","-0.006342328138492901","-0.022005789029562094","0.29629503763120413","0.5595667646505433"
"0.008521099144644757","0.046621023223152876","0.015187448348943462","0.0012547113617787048","-0.025701152234319548","-0.0035433413631336132","-0.0199271863656621","0.29739202380803115","0.5595273487533401"
"0.008252237120705072","0.04728205257373335","0.015676369886740007","-0.002049103708077496","-0.027617619971133607","-0.00522205278604723","-0.022437197129616563","0.2962833675654932","0.5605915779778285"
"0.008521099144644757","0.04695043249819131","0.016190742134723234","-0.0020046440157221223","-0.020999843198872263","-0.007429499524434377","-0.023770640347967453","0.2973803537423202","0.5578324651735989"
"0.008521099144644757","0.04695043249819131","0.016190742134723234","-0.004837492965179332","-0.026845318257832353","-0.003534059877197858","-0.02341767008428664","0.2970652619681252","0.5621287979687566"
"0.008252237120705072","0.04628940314761083","0.016668947584020134","-0.008630058032376674","-0.026659386102726577","-0.009677475418074323","-0.025535491666372808","0.2976837754508042","0.5625229569407892"
"0.007981582683272459","0.04530338612299914","0.015142574728351186","0.001035479085681518","-0.02320742520080739","-0.007443112370473485","-0.02141750525675987","0.2987807616276313","0.5615375595107074"
"0.008519306731151829","0.04629161394811444","0.015184769326818554","-0.0019709159732456323","-0.024794681215329493","-0.01052642199833141","-0.031928175330819666","0.30109143463839444","0.5642178405205305"
"0.008386668132674914","0.04695043249819131","0.01668301245017593","-0.0006365119654484921","-0.027673109745708607","-0.007465078553854771","-0.029378945648678597","0.3002978701700515","0.5696966502317865"
"0.008788168755091483","0.04628940314761083","0.015201513215099256","-0.006971864816805227","-0.02030663511948014","-0.008254933006987552","-0.031849737494446445","0.2993759349788884","0.5643360882121402"
"0.007848944084795575","0.045964415473579615","0.015139895706226264","-0.0011068648487115465","-0.021127800962631022","-0.012463777495988078","-0.033300837467357604","0.2998310675416145","0.566385714866711"
"0.008788168755091483","0.04628940314761083","0.014200898451444404","-0.0031047914375916395","-0.019150460114902602","-0.007419289889905046","-0.03659522659504778","0.29966768662166154","0.5646908312869697"
"0.007710928245839878","0.04332029807125767","0.01711098623463071","-0.000362088347117049","-0.021698020511808414","-0.006309533554853232","-0.028359253775821904","0.3001344892500986","0.5761214414759211"
"0.008384875719181987","0.04563279539803757","0.012668497795994393","0.002451137013990203","-0.020278890232192644","-0.009114398604638497","-0.03279099153092904","0.3035538185033997","0.5752148758402459"
"0.007983375096765418","0.04629382474861805","0.015150611794725917","-0.002527735292675689","-0.021059474001400617","-0.009662625040577114","-0.035183345540323666","0.30246850239228357","0.5709579589422914"
"0.00797979026977953","0.044315158297883815","0.012132023615480656","-0.0030698369208432773","-0.021076038113214048","-0.010220132962451485","-0.039105237359002676","0.30354214843768873","0.5760820255787178"
"0.00824685988022629","0.04365412894730333","0.01164310207768411","-0.0019660100761581425","-0.019572430863349775","-0.009657365531880185","-0.03624225633136697","0.3041606619203678","0.5793141291493867"
"0.00824685988022629","0.04365191814679972","0.013144693978697611","-0.004144535001571443","-0.026371170557172863","-0.013603543968898834","-0.04679214532361294","0.3038222300147509","0.5795112086354032"
"0.007977997856286605","0.043658550548310554","0.009624458906562461","-0.002510258034301508","-0.02294322761738315","-0.01079032558177139","-0.04310556701405491","0.304604124417383","0.5795900404298098"
"0.007847151671302647","0.044973976847960694","0.013630266738838017","0.0002563613044745941","-0.021074381702032706","-0.010787231753126137","-0.05071403714229195","0.304744165205914","0.5771856707004098"
"0.00797979026977953","0.04381993898507436","0.012128005082293284","0.00629736033058196","-0.023180094416315227","-0.007455178302189966","-0.047772618278283024","0.3064596648654201","0.5819549942620068"
"0.007843566844316762","0.04299531039722646","0.011111985941420183","0.002447150972606618","-0.019516941088774782","-0.008545443516776694","-0.04471354265971339","0.306786426705326","0.5804571901682819"
"0.007709135832346951","0.04266811192269163","0.010099985333734445","0.001873161013370348","-0.01910118188225764","-0.006861781968030674","-0.047890275032843294","0.30817516452492616","0.5813243399067544"
"0.007440273808407265","0.04332914127327212","0.010087929734172342","0.0035328873217816345","-0.020954705994180662","-0.0071532206264133934","-0.053851550597235245","0.30910876978180013","0.5800236152990459"
"0.007169619370974652","0.041184664784766865","0.010053772202079706","0.001880519859001582","-0.022468251711132994","-0.007992885720734727","-0.05251810737888479","0.3084785862334102","0.5832951347669183"
"0.007709135832346951","0.04399017062385261","0.009110086658579248","0.001315728456804355","-0.024686186282951515","-0.0074486812620349376","-0.05342014249718078","0.3098906641844321","0.5794323768409967"
"0.007707343418853992","0.042504512685424226","0.00909736130348592","0.004087560311235914","-0.026172401215411683","-0.008021658327135568","-0.053067172233499535","0.3097156131987683","0.5837287096361542"
"0.007705551005361065","0.0415140740598053","0.008088709473456324","0.00411883540516866","-0.026232860223530708","-0.010260352734839757","-0.05204748036064328","0.31034579674715823","0.5837287096361542"
"0.00824685988022629","0.04431736909838743","0.009146253457265567","0.004685159900205728","-0.02328030729278649","-0.010812291765152676","-0.059185323470638804","0.3125164289693903","0.5817579147759901"
"0.007434896567928452","0.03969900684633848","0.008056561207957377","0.0002667863357855096","-0.02293991479502046","-0.011350617949426487","-0.0560085910975089","0.31252809903510126","0.5818367465703969"
"0.007436688981421411","0.04052363543418638","0.00906454328245574","0.00798713525865412","-0.028438785814284488","-0.010278296940982218","-0.05549874516108077","0.3143953095488493","0.5822703214396329"
"0.007440273808407265","0.04332914127327212","0.010087929734172342","0.010181910968169727","-0.0228003621529923","-0.008018255115625792","-0.05887157212514461","0.31377679606617026","0.5795506245326066"
"0.007701966178375211","0.039037977495758","0.006069396546803456","0.0052208225384459865","-0.024718486300987705","-0.009414809366092446","-0.0657741017260196","0.3150021529658174","0.5797871199158261"
"0.007167826957481725","0.04102327634800307","0.007047239622396549","0.00694217917901886","-0.018125969799241845","-0.013020666652133398","-0.05742047215223345","0.31580738749987125","0.578919970177354"
"0.007705551005361065","0.04201150417311837","0.0060894892127402985","0.0013635609534073776","-0.02850297174756154","-0.011384650064524254","-0.06397003148942719","0.31655427170537054","0.5840046209165772"
"0.007438481394914338","0.04201150417311837","0.007074029843645672","0.0010655277053423914","-0.02734389802341665","-0.009696966538539409","-0.06581332064420621","0.3179663496563925","0.5811666763179411"
"0.007434896567928452","0.04002841612137692","0.008559547611909702","0.00133903146796993","-0.01801830307245454","-0.00797091953735344","-0.05714593972492586","0.3190750058989304","0.5845958593746263"
"0.007031603532018956","0.03937180837180366","0.007027146956459707","0.0035390196931409973","-0.021700091025785094","-0.007431665204486053","-0.0683233314081611","0.3181063904449235","0.5832163029725115"
"0.007164242130495839","0.03904460989726884","0.0035310230834487717","0.001909035385822615","-0.026609279664490948","-0.010251380631768527","-0.0707549043357419","0.3193434174102816","0.5867637337208068"
"0.007300465555958641","0.04003283772238415","0.006049303880866614","0.002064797618350406","-0.02599475111621263","-0.0012953654694936678","-0.07204912863590618","0.3193434174102816","0.5835316301501379"
"0.007571119993391222","0.04168209489807994","0.006082791657428018","0.001024747435802635","-0.026139272991784816","-0.006333665418286195","-0.07040193407206109","0.32090720621554564","0.585108266038269"
"0.007166034543988798","0.03953761840957468","0.006035908770242053","-0.002612668636002851","-0.027191508194733073","-0.0035272534541783036","-0.07169615837222494","0.32137400884398265","0.5823491532340396"
"0.007433104154435525","0.03871077902122317","0.006049303880866614","0.003518782867655102","-0.02314903670666504","-0.006042226759903478","-0.06922536652645753","0.32122229798974067","0.5872367244872464"
"0.007166034543988798","0.04003504852288776","0.004542353935603268","-0.004803458304134874","-0.027618862279519617","-0.005203180431311193","-0.0725197556541477","0.3215257196982247","0.5855024250103018"
"0.007300465555958641","0.04003283772238415","0.005051368139336664","-0.0025445993139139337","-0.02397351537217861","-0.007990101274954","-0.07448070156348699","0.3223076141008566","0.5811666763179411"
"0.007166034543988798","0.03936959757130004","0.007536830915724328","-0.008123524158093384","-0.02913613492162997","-0.005761616501779141","-0.07738290150930931","0.32165409042104487","0.5911783142075745"
"0.006893587693063258","0.03739314192106943","0.003999851955308483","-0.005307845848442386","-0.024362771999794256","-0.008260501898549006","-0.07585336370002492","0.32167743055246667","0.5838075414305608"
"0.007569327579898295","0.039203787533529016","0.0070606347330211105","-0.002623093667313766","-0.028292607527530957","-0.0029759331895944366","-0.07385319887249815","0.3198102200387186","0.5808119332431116"
"0.007160657303509985","0.03640049249494689","0.005513499455884095","0.0017781092573002392","-0.025971561359673823","-0.000451987780798032","-0.07589258261821154","0.32151404963251373","0.5827433122060723"
"0.006898964933542039","0.04102548714850668","0.0060292112149297715","-0.002590898717677116","-0.02723540309103867","-0.00520534611136287","-0.07961837984595661","0.32275107659787183","0.5836104619445445"
"0.007166034543988798","0.03937180837180366","0.006035908770242053","-0.005675174892868162","-0.025305269961978526","-0.0018312165908512766","-0.07248053673596065","0.3210472470040767","0.5860936634683512"
"0.006895380106556185","0.03739093112056581","0.006002420993680634","-0.0034285806453659457","-0.024239783469579525","-0.004066817169910215","-0.07753977718205662","0.3207204851641708","0.5885768649921578"
"0.007298673142465682","0.03870856822071956","0.007040542067084268","-0.0026966821236261078","-0.03447847508425706","0.0014729924022776272","-0.07534351776359637","0.32150237956680283","0.5901929167774923"
"0.007164242130495839","0.03772034039560425","0.006022513659617491","0.00011317043323349502","-0.025972803668059825","-0.0001689024597574939","-0.073578666445191","0.32292612758353567","0.5864484065431806"
"0.007164242130495839","0.0373887203200622","0.008020394409271044","0.0014662781736766886","-0.030382170232795377","0.0012053762244633478","-0.07965759876414323","0.3216424203553339","0.5895228465250365"
"0.00783818960383798","0.04035782539641535","0.007087424954270248","0.002263179831825762","-0.027329404425579892","0.00428961400091485","-0.07542195559997002","0.32103557693836576","0.5891681034502069"
"0.006897172520049112","0.03937401917230727","0.00501788036277526","0.0008634660690514182","-0.025056394181981714","0.00599121975580333","-0.07287272591782851","0.3207204851641708","0.5945680813670565"
"0.007700173764882284","0.03738650951955859","0.006056001436178895","0.0028267447597511166","-0.02696913499363775","0.003733034227634054","-0.06397003148942719","0.3204520736528195","0.5858571680851316"
"0.007434896567928452","0.04069386707296463","0.0035578133046978945","0.003056402067159218","-0.028729900079405558","0.007081794353254584","-0.07216678539046645","0.3190166555703758","0.5888527762725808"
"0.007436688981421411","0.042015925774125606","0.003571208415322456","-0.0033359818378395816","-0.02572351378526768","0.009630490391213001","-0.06495050444409683","0.31967017925018754","0.5864089906459773"
"0.007164242130495839","0.038715200622230404","0.0035310230834487717","-0.0005592440863205327","-0.026844075949446343","0.008782471959549487","-0.06263658827107674","0.31951846839594544","0.5891681034502069"
"0.007436688981421411","0.04185011573635458","0.003571208415322456","0.000503495870256877","-0.029733685255299524","0.011559801934392015","-0.06479362877134995","0.3174878769622445","0.5876308834592792"
"0.007970828202314864","0.0397012176468421","0.0025866677844170825","-0.001164815758057516","-0.03084306664400412","0.012115144176214709","-0.06267580718926291","0.3168693634795655","0.5871973085900428"
"0.007434896567928452","0.03936959757130004","0.006049303880866614","0.0033587279751757576","-0.029532431296766325","0.0048393873511760905","-0.06553878821689905","0.3154456154628326","0.5903899962635087"
"0.007976205442793677","0.0430019427987373","0.0051183436924594865","0.0005084017673443667","-0.026769123343490565","0.011569702186056819","-0.0623228369255821","0.3129598914664055","0.5896016783194432"
"0.007976205442793677","0.04333135207377574","0.0051183436924594865","0.004103811095338223","-0.02786442523715374","0.011555161191424135","-0.0563223424430031","0.3145470204030913","0.5859754157767413"
"0.00824685988022629","0.04431957989889105","0.00614306965523856","-0.0006466303781914391","-0.027798582892695354","0.014922793671780699","-0.054282958697290155","0.3142435986946073","0.5844381957858134"
"0.007703758591868138","0.04003062692188053","0.005573777453694622","-0.0011694150365770374","-0.0345691635964356","0.0115387638996043","-0.05251810737888479","0.31316995264920217","0.5792747132521834"
"0.007440273808407265","0.044492022338172905","0.005593870119631464","-0.007192936804310221","-0.031750779971380184","0.007090147690596764","-0.048478558805645076","0.31052084773282207","0.5822309055424296"
"0.008248652293719218","0.045639427799548396","0.00815635478211037","-0.006700507384153465","-0.03461719952069456","0.010985277954968757","-0.04953746959668838","0.31020575595862715","0.5816790829815836"
"0.008513929490673016","0.043490529710035926","0.007655377644751706","-0.0037125094393044","-0.033739301594582674","0.015458954176002834","-0.04561557777800937","0.308186834590637","0.5835316301501379"
"0.007714513072825732","0.046961486500709373","0.010135482376889547","-0.008373111672419411","-0.03870563641904486","0.010972593257523224","-0.04741964801460178","0.308513596430543","0.5738747353353341"
"0.008922599767061326","0.04695706489970215","0.008710242606436042","-0.019490181091238557","-0.03456336615730091","0.01548865493099725","-0.04079165084103438","0.3044757536945628","0.5748995486626195"
"0.008506759836701308","0.03870414661971233","0.005111646137147206","-0.012485173287439507","-0.03170729917786992","0.009896559654704656","-0.035771629313125455","0.3033904375834467","0.577776909158459"
"0.007173204197960506","0.04415819146212725","0.01007788340120392","-0.0021913747236146914","-0.03028734069266348","0.005408651821902419","-0.03490881311301608","0.3021534106180887","0.5747024691766032"
"0.008519306731151829","0.04695927570020576","0.007684177132594527","0.0008416961507256837","-0.03696143544509049","0.005355437969204089","-0.035183345540323666","0.3008930435213087","0.5774221660836294"
"0.008245067466733364","0.04299531039722646","0.009135537368765915","3.191651272195027e-05","-0.03402503252336437","0.004257128800139706","-0.03655600767686117","0.3010564244412616","0.5731258332884719"
"0.008517514317658903","0.04513978688573171","0.011171594183699484","0.0017486738747753022","-0.031157370665663986","0.0003465293925414533","-0.03204583208538037","0.30076467279848856","0.5695784025401766"
"0.008519306731151829","0.04695706489970215","0.00918509927807681","-0.005228738257906619","-0.028084727924272385","0.005414839479192923","-0.027770970003020118","0.29952764583313046","0.5692630753625503"
"0.007440273808407265","0.04299531039722646","0.013588741895901882","0.0004038448356672469","-0.027143472270474124","-0.002139052541053829","-0.02945738348505182","0.29810389781639757","0.5740718148213506"
"0.007981582683272459","0.045966626274083225","0.012145418726105217","0.004470220284060094","-0.034033314579271084","0.0031275719617582802","-0.025731586257307173","0.2987574214962094","0.5677652712688256"
"0.008521099144644757","0.047779482687046425","0.012194310879884873","0.003397361914739738","-0.028892228375177183","0.0014714454879550015","-0.02392751602071477","0.29783548630504625","0.5631141953988384"
"0.008522891558137683","0.048274701999855896","0.013199613932258322","0.0011654853584999896","-0.029615665958628818","0.0025926489889942467","-0.02879066187587681","0.2987574214962094","0.5623652933519763"
"0.008789961168584442","0.04844051203762692","0.011215798048760542","-0.010996233521386447","-0.027465230142450038","0.002071648245133847","-0.02541783491181254","0.2983022889334833","0.5646119994925632"
"0.008252237120705072","0.04728205257373335","0.01517606250491259","-0.0033381281678153585","-0.032468420115697116","0.007629402023464149","-0.015534667528741575","0.2967968504567739","0.5544032821169135"
"0.008250444707212144","0.045962204673076004","0.014164061897226861","-0.003271285319998314","-0.03334714624739967","0.0025883176288908944","-0.020240937711156298","0.29659845933968826","0.5622470456603665"
"0.008521099144644757","0.04695043249819131","0.015190127371068377","-0.004420798331310694","-0.03177893896146301","0.005954403194924834","-0.017142643174400053","0.294427827117456","0.5598426759309664"
"0.008522891558137683","0.04893352054993276","0.014205586740162996","-0.007693338307234149","-0.030402047166971497","0.002610283812272183","-0.02126062958401299","0.2956648540828142","0.5617346389967238"
"0.00879175358207737","0.04893573135043639","0.012221101101133997","-0.010195345821853788","-0.03672498274895375","0.002582748737329441","-0.0199271863656621","0.2945678679059872","0.5650455743617994"
"0.008250444707212144","0.04530338612299914","0.013158089089322172","-0.004369593030460023","-0.03001196233376518","0.0026081181322205054","-0.01631904589247729","0.29568819421423603","0.5571229790239399"
"0.008521099144644757","0.047611461848771804","0.015195485415318207","-0.0010050674841461397","-0.03270321640065251","-0.0013346570932883657","-0.01451497565588532","0.29240890574946604","0.5584631195288515"
"0.00879175358207737","0.0477728502855356","0.016715160715674873","-0.0004372098962692317","-0.029006520746689864","-0.0018791709348526793","-0.011495118955502296","0.293984364620441","0.5568470677435169"
"0.008254029534197998","0.04777727188654282","0.016180695801754814","-0.001587336144717548","-0.02817458823086025","0.0014896990769619864","-0.02384907818434111","0.2920821439095601","0.5533784687896283"
"0.008522891558137683","0.04794087112381024","0.01720006372028405","-0.005955730882558967","-0.024593841359591632","-0.002401099827306655","-0.01988796744747549","0.2933308409406291","0.557674801584786"
"0.00879175358207737","0.04826806959834505","0.017219486630689666","-0.0037048439751051973","-0.02987986354205306","-0.006073165046355996","-0.010553864919019263","0.2927473376550829","0.5548368569861496"
"0.008386668132674914","0.046618812422649265","0.018181255573533287","-0.0037410249661254326","-0.027195649222686434","-0.002977480103917062","-0.014318881064951392","0.29491796987731494","0.5551127682665726"
"0.008386668132674914","0.04711624253596234","0.016184044579410955","-0.0020644346364759006","-0.024232743722058817","-0.0035269440713137784","-0.01384825404670944","0.29303908929785605","0.5605521620806253"
