"AccX","AccY","AccZ","GyroX","GyroY","GyroZ","MagX","MagY","MagZ"
"-9.7765","0.4928","-0.67782","-0.014909","0.006629","0.01296","0.41329","-0.029829","0.64276"
"-9.7989","0.50033","-0.66324","0.015939","0.001094","-0.00071","0.41219","-0.030099","0.64219"
"-9.7615","0.53019","-0.70735","0.005026","-0.010514","0.003743","0.41263","-0.028771","0.64126"
"-9.7839","0.54529","-0.72263","-0.005826","0.010197","0.010249","0.41314","-0.028501","0.641"
"-9.7839","0.54518","-0.69274","-0.003954","0.006488","0.003889","0.41336","-0.029034","0.64208"
"-9.7539","0.57502","-0.72204","0.010474","0.007467","0.005654","0.41254","-0.029288","0.63994"
"-9.7838","0.59005","-0.70756","-0.00655","0.006313","-0.004248","0.4126","-0.02903","0.64073"
"-9.7314","0.55985","-0.68435","-0.005774","0.001088","0.003833","0.41254","-0.028762","0.64006"
"-9.7614","0.5526","-0.70729","-0.005689","-0.004427","-0.003426","0.41355","-0.028746","0.63929"
"-9.7614","0.56001","-0.69232","-0.005707","-0.000806","-0.001593","0.41265","-0.029562","0.6414"
"-9.7314","0.55995","-0.71423","-0.017411","0.006314","-0.001531","0.41388","-0.030604","0.6416"
"-9.7614","0.56007","-0.70727","-0.002117","-0.000755","0.000207","0.41272","-0.028123","0.64257"
"-9.7839","0.53014","-0.6629","0.004916","-0.00226","0.012854","0.41281","-0.029023","0.64007"
"-9.7614","0.52261","-0.67748","-0.014722","-0.004462","-0.003403","0.41373","-0.029421","0.64157"
"-9.7989","0.53021","-0.66316","-0.000314","-0.013362","-0.003481","0.41213","-0.029568","0.64152"
"-9.7839","0.5153","-0.69283","0.008839","0.001795","-0.008836","0.41228","-0.030342","0.63982"
"-9.7314","0.57481","-0.69178","0.001357","-0.005049","0.009201","0.41189","-0.030887","0.64167"
"-9.7913","0.57515","-0.70773","0.005067","0.000232","0.002922","0.41304","-0.0289","0.6414"
"-9.7614","0.57501","-0.70722","0.001512","-0.002571","-0.001624","0.41282","-0.028381","0.64205"
"-9.7614","0.57495","-0.69228","-0.002016","-0.006318","-0.008876","0.41241","-0.030209","0.63982"
"-9.7613","0.57485","-0.6624","0.004109","-0.003313","0.005602","0.41268","-0.028893","0.64007"
"-9.7614","0.58995","-0.70718","-0.014705","0.007228","-0.001519","0.41455","-0.029138","0.64013"
"-9.7614","0.5749","-0.67734","-0.00927","-0.008101","-0.007061","0.41388","-0.028881","0.6401"
"-9.7613","0.60483","-0.6922","-0.017299","-0.006466","-0.013363","0.41402","-0.02888","0.64024"
"-9.7538","0.58983","-0.68465","-0.007422","-0.002755","-0.008842","0.41453","-0.029924","0.63975"
"-9.7614","0.55988","-0.65497","-0.005648","-0.010815","-0.008896","0.41454","-0.029137","0.64"
"-9.7614","0.55244","-0.66246","-0.009175","-0.003749","-0.013362","0.41405","-0.029672","0.64052"
"-9.7914","0.50019","-0.63323","-0.005481","0.002435","-0.018741","0.41396","-0.028611","0.63944"
"-9.7914","0.54516","-0.67793","-0.010115","0.003519","-0.008775","0.41373","-0.029932","0.63972"
"-9.7464","0.55984","-0.66219","-0.001866","-0.00296","-0.019713","0.41372","-0.028354","0.63982"
"-9.7839","0.54508","-0.66286","-0.006506","0.008029","-0.007853","0.41304","-0.029265","0.6377"
"-9.7614","0.54505","-0.68489","-0.018242","0.000792","-0.008787","0.41282","-0.030191","0.63811"
"-9.7764","0.51516","-0.66282","-0.009427","-0.002462","0.00565","0.41445","-0.029785","0.63868"
"-9.7615","0.45528","-0.64779","-0.002141","-0.004343","0.000188","0.41401","-0.029668","0.63999"
"-9.7839","0.49276","-0.65553","-0.005609","0.002636","-0.008793","0.4132","-0.030069","0.63971"
"-9.7465","0.50008","-0.66235","-0.009336","0.002797","0.000245","0.41234","-0.028757","0.63912"
"-9.7464","0.55989","-0.67713","0.008653","0.013766","0.007507","0.41345","-0.029802","0.63958"
"-9.7314","0.57476","-0.67684","0.006973","0.006364","-0.003399","0.4134","-0.028745","0.63902"
"-9.7464","0.55994","-0.69207","-0.008535","0.007467","0.009316","0.41276","-0.028638","0.64126"
"-9.7839","0.54513","-0.6778","0.004249","0.009991","-0.001535","0.41134","-0.028905","0.63989"
"-9.7464","0.57486","-0.68456","0.006888","-0.006106","0.000142","0.41181","-0.028762","0.63911"
"-9.7617","0.58928","-0.70568","-0.011215","0.001057","0.000264","0.4131","-0.029431","0.6409"
"-9.7468","0.57422","-0.69052","-0.000385","0.010091","0.002101","0.4135","-0.029822","0.64092"
"-9.7618","0.55193","-0.70578","-0.002204","0.008316","0.003005","0.41108","-0.028134","0.64081"
"-9.7618","0.57434","-0.70572","-0.005754","0.000107","-0.003373","0.4124","-0.028251","0.64059"
"-9.7618","0.54438","-0.68339","-0.027318","0.009775","-0.008681","0.41201","-0.028782","0.64072"
"-9.7768","0.52938","-0.64633","-0.014676","0.015201","-0.008668","0.41145","-0.029047","0.64017"
"-9.7618","0.52952","-0.70584","0.00688","-0.000743","-0.003408","0.41191","-0.029838","0.64087"
"-9.7618","0.57439","-0.72066","-0.00377","0.017856","-0.012304","0.41286","-0.028384","0.6414"
"-9.7468","0.57432","-0.7204","-0.021123","0.006395","0.000318","0.41156","-0.029832","0.63979"
"-9.7468","0.55938","-0.72045","-0.005679","-0.000903","-0.008813","0.41246","-0.030229","0.64116"
"-9.7843","0.52968","-0.72116","-0.00217","0.006476","0.00029","0.41144","-0.029177","0.64004"
"-9.7619","0.51453","-0.69094","-0.007621","-0.003412","0.000229","0.4109","-0.028671","0.64187"
"-9.7618","0.54446","-0.7058","-0.002116","-0.015227","-0.00891","0.41197","-0.029056","0.64191"
"-9.7393","0.5893","-0.74265","0.010449","-0.00966","-0.00168","0.41142","-0.028256","0.64002"
"-9.7468","0.57429","-0.71293","-0.005692","-0.004489","-0.008838","0.41263","-0.029296","0.63995"
"-9.7618","0.57434","-0.70572","0.00415","-0.007923","-0.003451","0.41217","-0.029703","0.64087"
"-9.7617","0.60411","-0.67575","-0.007584","-0.009779","-0.00434","0.41223","-0.030104","0.64168"
"-9.7617","0.57418","-0.66089","0.000564","-0.004391","-0.005227","0.41328","-0.029828","0.64144"
"-9.7768","0.55195","-0.69109","-0.005707","-0.00717","-0.008841","0.41206","-0.029838","0.64114"
"-9.7918","0.54452","-0.68389","-0.007558","0.002797","-0.003336","0.41138","-0.029449","0.64097"
"-9.7617","0.57423","-0.67583","-0.020375","-0.000586","0.009321","0.41158","-0.030098","0.64006"
"-9.7618","0.55182","-0.67589","-0.006645","0.006376","-0.003328","0.41297","-0.029695","0.6409"
"-9.7619","0.51453","-0.69094","-0.007618","-0.002515","0.000235","0.41408","-0.031267","0.64123"
"-9.7543","0.53695","-0.70569","-0.011408","-0.006754","0.012874","0.41251","-0.030496","0.64169"
"-9.7843","0.51453","-0.66143","-0.009478","0.006556","0.005737","0.41246","-0.031017","0.6409"
"-9.7618","0.5594","-0.70576","-0.006721","-0.013303","-0.001651","0.41228","-0.03024","0.64221"
"-9.7618","0.57434","-0.70572","-0.004057","-0.003324","0.003836","0.41286","-0.030488","0.64104"
"-9.7468","0.55933","-0.7055","0.004809","-0.000349","0.01649","0.41362","-0.02941","0.63892"
"-9.7468","0.57429","-0.71293","-0.000398","0.011922","0.003922","0.41238","-0.030235","0.64182"
"-9.7617","0.57423","-0.67583","0.001408","-0.000691","0.000222","0.41229","-0.029701","0.64074"
"-9.7618","0.55929","-0.67587","-0.007588","0.001032","-0.001552","0.41138","-0.030106","0.64085"
"-9.7617","0.58928","-0.70568","-0.006633","6.7e-05","-0.005181","0.41198","-0.030108","0.6418"
"-9.7467","0.61909","-0.70534","0.0013","-0.00682","0.007408","0.41409","-0.030348","0.64161"
"-9.7767","0.59672","-0.67602","-0.018455","-0.002552","0.000264","0.41219","-0.031415","0.6409"
"-9.7617","0.60411","-0.67575","-0.007574","-0.006194","-0.004316","0.41244","-0.030621","0.64076"
"-9.7318","0.58924","-0.73505","-0.014852","0.013695","0.00577","0.41004","-0.030645","0.64069"
"-9.7617","0.58928","-0.70568","-0.000167","0.016972","-0.01232","0.41182","-0.031947","0.64117"
"-9.7618","0.55193","-0.70578","-0.012895","0.006263","-0.007836","0.41206","-0.030364","0.64101"
"-9.7543","0.5743","-0.70559","-0.005683","-0.000902","-0.00881","0.41286","-0.029173","0.64128"
"-9.7618","0.51442","-0.66105","-0.009404","0.006439","0.000299","0.41207","-0.031548","0.64104"
"-9.7768","0.55939","-0.6836","0.004171","-0.00706","-0.005247","0.41082","-0.031686","0.6402"
"-9.7543","0.58924","-0.70555","-0.004064","-0.006015","0.003814","0.41204","-0.031559","0.64236"
"-9.7468","0.56675","-0.69054","-0.002241","0.001159","0.003855","0.41223","-0.03063","0.64155"
"-9.7917","0.56693","-0.68383","-0.007572","0.006419","-0.001503","0.41179","-0.029169","0.63939"
"-9.7543","0.55189","-0.70565","-0.005864","0.003874","0.005695","0.41266","-0.03022","0.64023"
"-9.7618","0.57429","-0.69078","-0.014876","-0.002487","0.002964","0.41222","-0.030759","0.64129"
"-9.7842","0.60433","-0.70601","0.010231","0.003267","0.016516","0.41284","-0.029171","0.64102"
"-9.7842","0.61926","-0.70597","0.004789","0.002387","0.018332","0.41138","-0.030763","0.64073"
"-9.7618","0.57429","-0.69078","0.000549","0.004647","-0.001549","0.41099","-0.030374","0.64098"
"-9.7468","0.58166","-0.68303","-0.000365","0.017261","0.002148","0.41285","-0.03075","0.64091"
"-9.7617","0.58928","-0.70568","0.012168","-0.002332","0.005611","0.41183","-0.031816","0.6413"
"-9.7468","0.58931","-0.73531","-0.016507","-0.000942","-0.008788","0.41184","-0.031423","0.64156"
"-9.7617","0.61916","-0.70559","-0.011089","0.002665","-0.008772","0.41115","-0.03077","0.64126"
"-9.7617","0.60422","-0.70564","-0.003244","-0.000485","0.011087","0.41203","-0.03023","0.64074"
"-9.7768","0.57441","-0.70597","0.010524","-0.013383","-0.008923","0.41195","-0.029696","0.63967"
"-9.7917","0.57438","-0.67634","-0.00038","-0.002518","-0.001581","0.41189","-0.031559","0.64209"
"-9.7767","0.57436","-0.69103","-0.020207","0.009972","-0.000551","0.41189","-0.028916","0.64085"
"-9.7618","0.57429","-0.69078","-0.014875","-0.022297","-0.001691","0.41057","-0.028536","0.64106"
"-9.7468","0.58163","-0.67556","0.001485","-0.008013","-0.00707","0.41258","-0.029175","0.64114"
"-9.7618","0.57434","-0.70572","-7.4e-05","-0.001174","-0.023294","0.41125","-0.030239","0.64085"
"-9.7767","0.58178","-0.67607","-0.013026","0.010052","0.002145","0.41146","-0.029179","0.64031"
"-9.7468","0.58169","-0.6905","-0.003033","-0.010717","-0.007077","0.41349","-0.028769","0.6409"
"-9.7468","0.57427","-0.70546","-0.011139","0.009942","-0.003301","0.41339","-0.029577","0.64303"
"-9.7992","0.57441","-0.67647","-0.023769","-0.00092","-0.006936","0.41245","-0.030622","0.6409"
"-9.7618","0.57426","-0.6833","-0.023629","0.007867","-0.015035","0.41182","-0.030895","0.64128"
"-9.7767","0.59672","-0.67602","-0.006797","-0.003295","0.005658","0.41285","-0.031669","0.64066"
"-9.7917","0.58926","-0.66136","-0.012915","0.008079","-0.006907","0.41231","-0.030754","0.64076"
"-9.7767","0.57436","-0.69103","-0.012882","0.00804","-0.008723","0.41246","-0.030243","0.64288"
"-9.7917","0.55197","-0.6764","0.000771","-0.00109","-0.019663","0.41358","-0.02996","0.64185"
"-9.7618","0.55935","-0.69082","-0.005582","0.009744","-0.014162","0.41369","-0.030994","0.63962"
"-9.7618","0.54435","-0.67592","-0.001867","-0.003012","-0.02511","0.41435","-0.030213","0.64148"
"-9.7618","0.55929","-0.67587","-0.007472","0.007158","-0.008748","0.41376","-0.030359","0.64253"
"-9.7767","0.58935","-0.70593","0.006835","0.001128","0.000227","0.41308","-0.030086","0.64051"
"-9.7768","0.55937","-0.67613","-0.007598","0.010054","0.001228","0.4127","-0.029566","0.64089"
"-9.7618","0.55935","-0.69082","0.005022","-0.000677","0.000214","0.41178","-0.030365","0.64087"
"-9.7618","0.54446","-0.7058","-0.007605","0.017277","0.003983","0.41191","-0.028786","0.64111"
"-9.7918","0.5446","-0.7063","0.004027","0.000373","0.007473","0.4119","-0.030772","0.64248"
"-9.7918","0.55212","-0.72123","-0.007545","-0.008011","-0.006122","0.41221","-0.030628","0.64129"
"-9.7617","0.61179","-0.7355","-0.014827","0.00646","0.002117","0.41062","-0.029855","0.64149"
"-9.7318","0.57425","-0.72015","0.005064","0.001968","-0.001592","0.41139","-0.029713","0.64111"
"-9.7768","0.57449","-0.72838","0.001266","0.004952","0.012929","0.41244","-0.030884","0.64077"
"-9.7842","0.57444","-0.7061","0.003265","0.006457","-0.001534","0.41202","-0.031032","0.64222"
"-9.7618","0.57439","-0.72066","-0.000387","0.002909","0.001155","0.41233","-0.030376","0.64288"
"-9.7768","0.55947","-0.70601","-0.005879","-0.000601","0.005675","0.41256","-0.031553","0.64224"
