"AccX","AccY","AccZ","GyroX","GyroY","GyroZ","MagX","MagY","MagZ"
"1.0091","1.4287","-0.81231","0.57427","0.35738","-0.071494","0.45484","-0.27429","-0.49607"
"-7.116","9.6246","-0.96947","0.47508","1.5546","0.40999","0.45379","-0.28369","-0.48141"
"-32.291","6.4614","-9.1848","2.0064","2.3935","-1.1937","0.50327","-0.29988","-0.40993"
"-12.976","-25.795","1.8024","-0.79102","-1.0994","-0.56851","0.50645","-0.28689","-0.41165"
"-19.189","-5.3088","-3.2366","0.12182","0.39595","0.33206","0.49881","-0.28028","-0.4275"
"-18.548","5.3415","0.89132","-1.221","-0.48659","-0.56835","0.50716","-0.2668","-0.43396"
"-12.563","-2.0613","1.2747","0.66874","-1.1254","0.12802","0.5026","-0.24433","-0.45613"
"-3.0565","-0.35915","-5.8065","0.77829","-1.5401","0.93926","0.48304","-0.2727","-0.46642"
"2.789","7.5528","-5.5251","-0.85094","-1.52","0.17216","0.45494","-0.28843","-0.48882"
"0.58823","-3.7977","5.7275","-0.31801","0.37112","-0.27338","0.4529","-0.26856","-0.50431"
"-0.58393","3.5718","-0.088852","-0.92604","-0.23829","0.15419","0.44921","-0.26601","-0.50593"
"0.039746","6.3272","-1.9926","0.044406","0.99957","0.271","0.43398","-0.25865","-0.52188"
"-13.127","18.264","-6.6668","0.33315","3.4093","1.352","0.45197","-0.2792","-0.484"
"-18.976","-11.759","-2.9702","-0.53291","0.37624","-1.2966","0.4898","-0.28063","-0.43212"
"-13.64","-33.89","0.042219","0.84261","-1.8216","-0.78075","0.48315","-0.24052","-0.46177"
"-16.814","5.1538","0.7838","-1.4387","-0.65468","-1.0338","0.47573","-0.25107","-0.46865"
"-25.663","-3.8975","1.0961","-0.34302","0.4296","-0.034981","0.50906","-0.22034","-0.45444"
"-5.9452","6.188","-3.0805","-0.39119","-2.0285","0.34879","0.48715","-0.22475","-0.48628"
"-1.5368","5.4169","-1.0029","0.20963","-1.4589","0.75497","0.46883","-0.22896","-0.51113"
"3.3032","3.5372","1.1222","-0.44164","-0.188","0.023904","0.45383","-0.2274","-0.5302"
"-1.4359","1.5943","-1.4844","0.57229","0.1033","-0.036123","0.45881","-0.23469","-0.51906"
"1.1404","2.2522","-0.33038","0.21182","0.60611","0.045113","0.44913","-0.25581","-0.51422"
"-2.4813","1.9448","-3.8091","0.82204","1.4818","-0.13062","0.45377","-0.26595","-0.4989"
"-29.227","22.749","-3.964","0.18085","3.4236","-0.080206","0.48386","-0.26422","-0.46339"
"-13.963","-21.684","4.2091","-2.643","0.91616","0.066727","0.50187","-0.23985","-0.4487"
"-10.019","-21.15","-1.3695","3.8649","-1.3039","-0.36595","0.48816","-0.25303","-0.45534"
"-20.178","6.2121","-4.4094","-1.299","-0.15316","-0.52899","0.49141","-0.28214","-0.44043"
"-16.529","-0.80022","0.83352","1.4752","-0.65475","-0.42241","0.50286","-0.26432","-0.44374"
"-4.3144","1.7202","-5.6464","-0.20926","-1.4978","0.78731","0.48787","-0.28036","-0.45909"
"-0.083388","6.6304","-2.8807","-0.72811","-1.272","0.53042","0.46175","-0.2811","-0.4914"
"2.2222","2.2826","2.4074","0.20477","0.043997","-0.16871","0.45169","-0.27603","-0.50645"
"-0.5804","2.778","-0.35052","-0.21571","-0.025476","-0.10211","0.44977","-0.28235","-0.5018"
"1.2041","-4.354","-0.57701","0.090573","0.67466","-0.13579","0.44811","-0.27865","-0.50057"
"-9.7434","11.624","4.3702","0.72864","0.84899","0.44466","0.45661","-0.29302","-0.47653"
"-28.811","7.5396","-7.2254","0.003592","2.4552","0.2874","0.49041","-0.30525","-0.42298"
"-18.317","-27.307","1.4567","-0.012157","-0.73276","-0.84664","0.49959","-0.2857","-0.42036"
"-18.617","-6.3848","-3.6441","0.82897","-0.43617","0.38163","0.48008","-0.30474","-0.43291"
"-19.447","1.6613","-2.304","-0.95547","0.71048","-0.48408","0.49724","-0.29806","-0.4253"
"-12.505","1.8887","-3.4853","0.17499","-1.9666","-0.1985","0.49901","-0.292","-0.4369"
"-2.2881","2.9431","-2.0056","-0.22779","-1.1263","0.70731","0.48","-0.29797","-0.46257"
"0.59223","5.2183","1.8762","-0.45041","-1.8959","0.24717","0.45164","-0.30536","-0.49497"
"0.16676","2.6765","-0.49296","1.2556","0.24592","-0.28017","0.4492","-0.31713","-0.49164"
"0.77233","3.4938","-1.6596","-0.1098","0.56267","0.076754","0.44978","-0.32894","-0.48175"
"0.88454","-3.8842","-2.0395","-0.3776","0.64012","-0.18015","0.451","-0.32551","-0.47777"
"-12.964","11.266","6.3542","-0.72738","0.81751","0.82213","0.45089","-0.3163","-0.47688"
"-34.647","8.4131","-2.8268","0.28127","2.0069","-0.24896","0.49896","-0.32385","-0.40955"
"-12.418","-38.168","1.8196","-0.66134","-1.6745","-1.4469","0.50417","-0.27984","-0.42764"
"-28.159","8.0859","-8.1132","-0.17091","1.3817","1.1129","0.49694","-0.3045","-0.42477"
"-17.185","-2.3947","-2.3142","-1.2078","-0.046501","-0.50882","0.50779","-0.2879","-0.42968"
"-10.143","3.9222","-1.4742","0.4555","-2.0416","0.25321","0.49928","-0.28998","-0.44975"
"-2.8978","2.5864","-1.5823","0.14938","-1.849","0.87698","0.46913","-0.31228","-0.47419"
"5.404","2.9479","0.56484","-0.1595","-0.86011","0.087843","0.4457","-0.31235","-0.50139"
"-2.2648","0.70205","3.0692","-0.09147","0.5148","-0.23089","0.45307","-0.30543","-0.50041"
"-0.033502","3.3701","-1.5557","-0.39897","0.18666","0.014114","0.44559","-0.30453","-0.50443"
"-0.91295","4.5341","-4.5607","-0.45655","1.2497","0.28989","0.44557","-0.29426","-0.50118"
"-12.759","11.239","-8.7226","0.80632","3.6302","0.081385","0.46513","-0.30399","-0.46784"
"-27.511","-7.0024","-4.3023","-1.0857","0.83056","-0.40015","0.52292","-0.30122","-0.39825"
"-14.804","-26.629","4.0925","0.54118","-2.021","-0.69485","0.51055","-0.27375","-0.42775"
"-24.778","6.1173","-4.0366","-0.35058","0.95073","0.80075","0.50415","-0.29931","-0.42182"
"-15.996","-2.7208","-2.1098","0.067697","-0.8841","-0.61173","0.51855","-0.27981","-0.42644"
"-4.3418","0.40933","-4.265","0.30048","-2.0099","0.60003","0.49767","-0.29012","-0.45232"
"-0.39878","9.7796","-2.9805","-0.88131","-2.1016","0.6391","0.45371","-0.31235","-0.49748"
"2.6821","1.0434","1.4576","-0.12256","0.14881","-0.28656","0.44449","-0.2944","-0.51736"
"-1.5025","2.3509","0.46424","-0.034964","0.38585","-0.085122","0.45416","-0.28328","-0.51274"
"0.54908","0.87896","-0.71591","0.33927","0.50756","-0.038789","0.45384","-0.28374","-0.50724"
"-8.1473","12.801","6.0291","0.35183","0.86139","0.89501","0.45783","-0.29834","-0.48918"
"-28.258","7.7063","-3.508","1.4992","3.0492","-1.1253","0.50437","-0.3123","-0.42139"
"-16.856","-26.203","2.4977","-0.45485","-0.61719","-0.2915","0.51397","-0.29086","-0.41456"
"-18.057","-4.6595","-3.192","0.81277","-0.38098","0.28619","0.49895","-0.30017","-0.42456"
"-18.283","4.6072","-2.6289","-1.436","0.12806","-0.13556","0.50543","-0.29468","-0.42584"
"-13.657","-1.962","-0.19544","0.21083","-1.0999","-0.21598","0.51252","-0.27774","-0.43499"
"-3.4396","-1.3659","-5.7455","0.068717","-1.2821","0.73522","0.48689","-0.28958","-0.4662"
"-0.19831","5.8193","-2.7171","-0.48198","-1.5973","0.228","0.4612","-0.29489","-0.49323"
"2.1879","-4.2483","1.9861","0.036265","-0.35546","-0.054628","0.45475","-0.29053","-0.50102"
"-1.3658","4.6477","0.16437","-0.14238","0.049782","0.059452","0.45132","-0.2981","-0.49998"
"0.71452","7.9793","-3.6615","-0.19256","0.92049","0.61832","0.4448","-0.29848","-0.49793"
"-12.397","6.1422","-5.4385","2.3231","3.0114","-0.94993","0.45786","-0.31671","-0.46842"
"-25.019","-5.0541","2.0931","0.74644","-0.058473","-0.87767","0.47936","-0.32306","-0.43041"
"-13.458","-25.775","0.074562","1.1922","-0.1774","-0.29375","0.47776","-0.32714","-0.42378"
"-20.718","1.1162","-4.0996","-0.4735","0.46584","-0.23443","0.48475","-0.33567","-0.41111"
"-23.204","-0.24014","-3.1427","-0.6599","-0.57317","-0.29479","0.50735","-0.3185","-0.40799"
"-6.5306","1.9926","2.4719","-1.1084","-1.5149","0.15409","0.47817","-0.28993","-0.4674"
"-3.4403","3.144","0.88213","-0.15974","-1.33","0.45993","0.46478","-0.28937","-0.49111"
"3.8174","6.3605","-2.7945","-0.24751","-1.1491","-0.13772","0.44224","-0.29407","-0.5117"
"-1.1415","-0.96294","0.53512","0.82476","0.38088","-0.29579","0.44583","-0.3007","-0.50732"
"0.26496","4.1446","0.055131","-0.006664","0.39213","0.1111","0.44571","-0.31135","-0.49733"
"-0.9424","2.8422","-1.7084","0.63344","0.93211","-0.1307","0.43722","-0.31445","-0.49379"
"-15.547","10.831","-6.9925","0.24513","3.2511","-0.082683","0.46037","-0.32614","-0.45779"
"-27.135","-4.155","0.29396","-0.79871","-0.005714","0.006908","0.48911","-0.32303","-0.42103"
"-11.977","-26.691","5.4999","1.1568","-1.31","-0.50723","0.47832","-0.31386","-0.43546"
"-22.492","1.7013","-7.6173","-0.35619","1.3717","0.38075","0.48423","-0.33607","-0.41389"
"-16.142","2.6465","-1.6084","-1.1217","-0.88658","-0.23746","0.48853","-0.32097","-0.42434"
"-8.2715","-0.87991","-0.98125","0.27617","-0.78733","-0.00555","0.49017","-0.31503","-0.43595"
"-3.272","2.2815","-2.5724","-0.39648","-1.5701","0.75614","0.47473","-0.32179","-0.45555"
"2.1037","4.6103","1.6447","-0.17702","-1.2757","-0.078679","0.44621","-0.31878","-0.49112"
"-0.33576","3.555","0.59892","1.0169","0.15136","-0.45884","0.44534","-0.32632","-0.48839"
"-0.22031","2.7914","0.35447","-0.52458","0.57598","-0.082025","0.44426","-0.33114","-0.48279"
"-1.7997","-3.3016","1.3948","0.87538","0.81069","-0.27997","0.44563","-0.3295","-0.47224"
"-17.528","13.135","-5.5417","1.3295","2.5325","-0.10289","0.46166","-0.34873","-0.43459"
"-24.25","-1.0446","-1.8573","-1.2259","0.78343","0.78932","0.47604","-0.36528","-0.39584"
"-14.388","-27.894","0.26077","0.72455","-1.4564","-0.58723","0.47411","-0.35475","-0.40199"
"-21.553","-0.97925","-7.7905","-0.022325","0.13142","0.48889","0.47642","-0.38715","-0.37439"
"-14.979","3.3682","-0.91056","-2.057","-0.22749","-0.23367","0.47863","-0.36883","-0.39781"
"-10.366","-0.11823","-0.37891","0.50328","-0.97342","-0.42836","0.48819","-0.35369","-0.41117"
"-3.2842","2.1429","-1.7097","-0.37577","-1.9628","0.57605","0.47056","-0.35854","-0.43624"
"3.1833","7.4398","-3.2211","-0.67579","-1.1964","0.16921","0.43945","-0.36235","-0.47062"
"-0.38812","3.6738","0.83783","0.093511","0.69486","-0.34654","0.44474","-0.34298","-0.48222"
"-1.2912","1.9318","0.46144","-0.55087","0.65389","-0.24751","0.45594","-0.33417","-0.47463"
"-4.302","6.7906","1.4761","-0.391","1.4936","0.41512","0.45959","-0.33554","-0.46344"
"-22.813","9.4203","-2.8903","1.9143","2.7912","-0.39445","0.4786","-0.34957","-0.42172"
"-17.746","-11.331","-0.12485","-0.61021","0.79572","0.12895","0.49547","-0.35211","-0.39089"
"-12.563","-17.189","-0.48701","0.17264","-0.89136","-0.62359","0.49004","-0.3368","-0.40692"
"-22.847","3.6906","-4.798","-0.76151","0.003479","-0.051815","0.49708","-0.34475","-0.39949"
"-17.444","-0.45621","0.19953","-0.26848","-0.96908","-0.59055","0.50069","-0.31609","-0.42168"
"-7.0992","0.52092","-1.2668","0.18624","-1.5621","0.37046","0.48932","-0.31563","-0.44347"
"-0.88064","3.4689","-2.6682","-0.77666","-1.6475","0.55807","0.46191","-0.31758","-0.47754"
"3.6658","2.5061","0.5379","-0.95529","0.043075","0.056993","0.45468","-0.30173","-0.50021"
"-2.0231","0.80067","1.2283","0.42778","0.35032","-0.060892","0.46119","-0.29868","-0.49493"
"0.39215","2.6899","0.10429","-0.32832","0.2076","0.10508","0.45407","-0.2999","-0.49749"
"-6.499","3.223","6.0126","1.469","0.87949","-0.16213","0.45728","-0.31655","-0.4792"
"-25.154","16.529","-1.0993","0.95892","3.2272","0.13428","0.48242","-0.33869","-0.42537"
"-19.007","-13.365","2.7182","-0.34589","0.22205","-0.072922","0.50321","-0.34488","-0.38438"
"-14.256","-21.668","0.016539","0.83194","-1.2848","-0.39064","0.48933","-0.33247","-0.40906"
"-22.705","5.2036","-7.7679","-0.084283","0.43837","0.30438","0.49077","-0.35064","-0.39426"
"-15.013","2.7089","-1.1206","-1.1486","-0.87394","-0.35473","0.49944","-0.32353","-0.41477"
