"AccX","AccY","AccZ","GyroX","GyroY","GyroZ","MagX","MagY","MagZ"
"-8.2187","2.8489","-0.17994","0.27621","-1.6819","0.33544","0.51788","-0.26405","-0.46014"
"-1.0296","7.2046","-1.916","-0.32338","-2.4451","0.34122","0.48168","-0.28256","-0.49528"
"3.916","4.2389","-1.8284","0.025861","0.11131","-0.29465","0.46301","-0.27657","-0.51797"
"-1.5961","2.0645","-0.023516","0.21857","0.46949","-0.12995","0.46859","-0.26985","-0.51391"
"0.30112","0.95909","0.67607","-0.10025","0.72261","0.045366","0.47608","-0.27188","-0.50358"
"-5.594","3.3906","5.522","0.32688","1.1846","-0.11281","0.48275","-0.27481","-0.48986"
"-27.219","8.571","-5.5724","1.4304","3.0081","-0.36701","0.52926","-0.28542","-0.42607"
"-20.749","-15.378","-0.82454","-1.031","0.40276","0.15595","0.54421","-0.28197","-0.40345"
"-12.716","-18.842","-0.57683","0.87875","-1.5371","-0.68432","0.52777","-0.27618","-0.42524"
"-23.473","5.9973","-3.5136","-1.2855","0.55972","0.40666","0.53285","-0.28521","-0.41921"
"-15.403","0.60693","1.8465","-0.30563","-0.85244","-0.47426","0.5407","-0.25337","-0.43467"
"-4.1885","1.3031","-5.1768","0.60606","-1.5399","0.72224","0.5189","-0.26044","-0.4643"
"2.3154","7.5027","-1.8716","-1.3099","-1.4788","0.65491","0.4848","-0.2676","-0.50108"
"0.57324","-2.3059","-2.0685","-1.0541","0.43021","-0.27168","0.48485","-0.25649","-0.50596"
"-2.6159","-1.5673","3.0212","-0.1703","0.065788","0.10048","0.48928","-0.24237","-0.50696"
"0.92509","6.906","-0.38329","-0.27872","0.35134","0.39598","0.48054","-0.24512","-0.50934"
"-5.4949","1.1273","-2.0066","1.4729","1.126","-0.77135","0.48221","-0.25047","-0.50084"
"-33.77","6.722","-0.059772","1.5936","3.2364","-0.83825","0.53718","-0.25174","-0.43234"
"-16.773","-19.922","2.7342","-1.1854","-0.86491","-0.25263","0.54077","-0.24545","-0.42996"
"-19.806","-10.421","-1.6513","-0.12602","0.42941","0.23038","0.53494","-0.22773","-0.44787"
"-17.92","2.0775","-4.2831","0.005797","-0.64071","-0.64739","0.54969","-0.2241","-0.43327"
"-8.3629","3.6386","-2.6447","0.058566","-1.7099","0.22762","0.53502","-0.20765","-0.46537"
"-1.4738","5.4289","-0.9701","-0.54877","-1.3","0.84126","0.50833","-0.21385","-0.49616"
"1.6334","3.9435","2.0876","-0.057424","0.10578","-0.072128","0.49269","-0.22374","-0.5079"
"-2.602","-7.6225","1.8801","1.5089","-0.23768","-0.119","0.49527","-0.23514","-0.49961"
"1.0588","3.493","-1.9375","1.1443","-0.81259","0.36777","0.47219","-0.2727","-0.50113"
"1.2878","10.697","-6.24","-0.13562","1.8561","0.52344","0.4659","-0.28926","-0.48918"
"-15.319","7.6634","-10.434","-1.2215","3.7471","0.35275","0.50694","-0.28149","-0.44748"
"-21.312","-9.3907","1.6486","-1.4863","-0.89863","0.63704","0.52567","-0.28422","-0.41902"
"-12.36","-25.711","-4.2837","0.29321","-0.51591","-0.96473","0.51589","-0.27183","-0.43409"
"-23.841","2.911","-4.7781","-1.2788","0.33384","-0.60505","0.53682","-0.2552","-0.42224"
"-18.262","1.9512","2.2978","-0.56961","-1.6436","-0.28176","0.54305","-0.2145","-0.44358"
"-5.9687","1.4595","0.60957","0.36441","-1.352","0.56684","0.52625","-0.21533","-0.4701"
"-0.44051","7.6368","-7.8845","0.007287","-1.8335","0.26941","0.49379","-0.23376","-0.49824"
"3.1838","-1.3526","-1.5894","-0.96727","-0.094827","-0.20021","0.48136","-0.20875","-0.52291"
"-3.9787","-3.0512","1.4648","0.20722","-0.42629","-0.094742","0.48945","-0.19728","-0.51967"
"2.0499","5.1952","0.87166","0.029736","-0.088002","0.27966","0.46932","-0.20363","-0.53189"
"-2.6308","0.35404","0.89543","1.4009","0.58614","-0.64287","0.4654","-0.22329","-0.52047"
"-31.109","29.358","13.114","-2.272","2.6793","2.0314","0.50412","-0.21955","-0.48321"
"-10.941","-25.339","12.409","-1.2136","-0.10211","1.7884","0.51203","-0.20563","-0.47342"
"-8.0594","-16.026","-6.1211","2.2496","0.7824","-0.84967","0.50311","-0.24002","-0.45826"
"-22.03","0.771","-11.455","-1.2209","-1.2076","-0.17542","0.53831","-0.23745","-0.423"
"-16.374","0.55847","1.752","-0.88028","-0.73679","-0.44525","0.53503","-0.2083","-0.44502"
"-8.2227","-2.9677","4.3806","0.095209","-0.71854","0.41177","0.52538","-0.19639","-0.46743"
"-3.4704","4.6522","-3.6654","0.81454","-1.4068","0.48656","0.50416","-0.22314","-0.48018"
"1.1904","3.1256","-7.2466","0.16626","-1.1922","-0.11266","0.48233","-0.23424","-0.49851"
"0.58441","-2.4076","2.5612","-0.11267","-0.20892","-0.18675","0.47639","-0.22884","-0.5101"
"0.4099","4.5586","0.89943","-1.2329","0.093686","-0.17808","0.47282","-0.21283","-0.51739"
"-5.2105","-0.50284","4.2959","0.55138","1.2005","-0.3968","0.48202","-0.20037","-0.51029"
"-19.108","12.952","-8.9856","1.1352","4.3004","-0.054898","0.51657","-0.22443","-0.45714"
"-17.725","-11.127","-1.2561","-1.2866","-0.29562","-0.095262","0.53499","-0.21801","-0.43279"
"-15.532","-24.062","0.2426","0.33495","-1.2479","-0.20855","0.52756","-0.20096","-0.44946"
"-23.649","4.0674","-3.1098","-0.53154","0.29788","-0.25992","0.53916","-0.20783","-0.43826"
"-12.747","1.9273","-2.9185","0.070874","-1.266","0.13344","0.5319","-0.19613","-0.45623"
"-5.4988","7.102","-3.1536","-0.41176","-1.4003","1.0015","0.5121","-0.20785","-0.47932"
"1.3944","4.0748","-0.85097","-0.30744","-0.7342","0.47691","0.48819","-0.21004","-0.50473"
"0.66587","-9.1155","3.3204","-0.089229","-0.19487","-0.006215","0.48564","-0.21451","-0.50799"
"1.1889","3.3913","-0.80934","1.1739","-0.46945","0.20784","0.46796","-0.24265","-0.5123"
"1.4839","11.746","-9.5235","0.080852","1.0703","0.30272","0.457","-0.25475","-0.50819"
"-8.5704","2.2082","-5.1608","1.2279","2.1344","-1.2018","0.48018","-0.25454","-0.4811"
"-33.91","4.1256","-5.2668","1.7881","1.5341","-1.3247","0.51809","-0.24282","-0.44048"
"-11.948","-18.669","8.9522","-0.98407","-0.22693","0.3399","0.50325","-0.24319","-0.44919"
"-16.491","-13.961","-3.8768","1.6893","0.73509","0.086109","0.50267","-0.25444","-0.44394"
"-20.036","0.64848","-5.3444","-0.35815","-0.58438","-0.10198","0.5154","-0.2568","-0.43034"
"-10.95","2.1205","-0.76674","-0.041378","-0.89514","0.14493","0.50756","-0.25405","-0.44909"
"-4.9477","-0.002053","-0.44875","-0.51624","-1.11","0.8928","0.49553","-0.25717","-0.46777"
"0.7156","7.0975","-3.3439","-0.10264","-1.5503","0.26439","0.47375","-0.27402","-0.48701"
"2.1748","1.6954","-1.4554","0.17242","0.10746","-0.42747","0.46701","-0.2723","-0.49612"
"-0.97568","5.1542","0.64585","0.56469","0.43613","-0.35805","0.46558","-0.27566","-0.49526"
"-0.62473","-5.7101","2.0002","0.17914","0.7592","-0.63771","0.47164","-0.26838","-0.48935"
"-11.314","6.4987","-6.0909","0.94886","1.8013","-0.24938","0.48035","-0.28219","-0.46711"
"-36.222","13.87","-4.2585","-0.26206","1.0296","0.6785","0.52888","-0.30052","-0.39034"
"-12.036","-43.276","-3.8154","0.20114","-1.5516","-1.3161","0.52858","-0.27147","-0.4071"
"-25.793","9.6249","-6.9555","-1.1374","0.70378","1.424","0.51211","-0.29884","-0.41201"
"-14.927","-4.3768","-0.4194","-1.7271","0.004523","-0.51012","0.52549","-0.26492","-0.42971"
"-8.8353","5.6744","-2.0937","0.66937","-2.015","0.12364","0.51484","-0.27034","-0.44582"
"0.95754","8.9775","-4.324","-0.69123","-1.8381","0.80798","0.47316","-0.28526","-0.49213"
"2.6181","4.0969","-1.3891","-0.67498","0.57772","-0.12023","0.46584","-0.27211","-0.50773"
"-1.9663","1.3438","-0.22525","-0.23164","0.49839","-0.13875","0.47867","-0.262","-0.49731"
"0.011166","-5.5697","-0.50813","-0.26276","0.85288","-0.26484","0.48514","-0.2489","-0.49257"
"-3.9381","-2.4922","4.1436","0.6202","0.27304","-0.14077","0.4848","-0.25213","-0.48864"
"-29.766","20.721","-0.84239","0.12381","3.8191","0.50345","0.52479","-0.26478","-0.43316"
"-19.415","-13.687","4.8727","-1.7262","0.26298","-0.40922","0.53982","-0.24975","-0.41437"
"-9.2327","-31.939","3.1463","3.3995","-2.5824","-0.44433","0.52233","-0.24728","-0.43962"
"-25.446","14.572","-4.0727","-2.075","1.2775","0.53959","0.52841","-0.2831","-0.41574"
"-14.49","1.4208","-1.8275","-0.27188","-1.2402","-0.21935","0.53964","-0.25415","-0.4271"
"-4.3471","3.9865","-3.1346","0.10453","-1.9474","0.7959","0.50865","-0.25533","-0.47346"
"2.5593","6.3656","-2.3307","-1.0984","-1.0145","0.67908","0.47657","-0.25853","-0.50687"
"-0.56276","-1.3805","-0.2391","-0.83608","0.25283","-0.17111","0.47795","-0.24981","-0.51024"
"-0.69699","1.6173","0.14509","0.40738","0.26468","0.003525","0.48149","-0.25424","-0.50297"
"0.28191","4.5138","-2.8846","1.1752","0.47802","0.16343","0.4761","-0.26835","-0.49505"
"-9.1183","9.5889","-5.8551","0.35614","2.4765","0.29146","0.49652","-0.27204","-0.46585"
"-33.603","6.3145","-6.4935","1.7195","1.651","-1.6024","0.53583","-0.27594","-0.41042"
"-16.456","-40.311","0.36927","-0.20301","-1.5625","-0.81233","0.53613","-0.25773","-0.41636"
"-21.866","3.6389","-4.7842","-0.50875","0.98605","1.0744","0.52264","-0.27203","-0.42773"
"-15.249","-1.6739","-1.4192","-0.99704","-0.49096","-0.54301","0.53729","-0.25146","-0.43287"
"-8.5065","3.968","-2.6404","1.015","-1.6996","0.14754","0.52293","-0.24367","-0.45719"
"-1.4847","4.8852","-3.7008","-0.11859","-1.6633","0.85793","0.49321","-0.26477","-0.48349"
"3.8388","5.9001","0.80179","-0.86855","-0.44522","0.054826","0.47341","-0.26915","-0.50358"
"-2.4126","-0.56033","2.754","-0.070278","0.67181","-0.286","0.4892","-0.25572","-0.49367"
"0.56893","2.417","0.24469","0.072567","0.005647","-0.12789","0.4874","-0.25392","-0.49324"
"-8.0462","5.7446","3.4218","0.39428","1.1118","0.13422","0.49167","-0.24851","-0.48806"
"-29.416","7.6222","-4.9553","1.3301","2.1362","-0.28495","0.52782","-0.26241","-0.4325"
"-19.073","-18.819","2.2291","-1.094","-0.24588","-0.071552","0.53642","-0.26294","-0.41804"
"-14.181","-14.822","-2.0212","1.4044","-0.33416","0.16141","0.52446","-0.26308","-0.43383"
"-19.588","7.45","-2.8743","-1.1309","-0.24372","-0.26229","0.53078","-0.27239","-0.42446"
"-10.712","-1.0842","-1.8239","0.83626","-1.5885","-0.15881","0.52393","-0.25308","-0.4499"
"-3.4854","3.9093","-5.3906","0.023994","-2.0481","0.92563","0.49735","-0.27598","-0.4742"
"5.1385","10.351","1.1532","-1.3908","-0.32885","0.14649","0.47223","-0.27236","-0.50677"
"-1.9637","-3.7519","2.3464","-0.35024","0.47035","-0.22105","0.48181","-0.25594","-0.50584"
"-1.1942","3.5102","2.579","0.37564","0.1084","-0.038518","0.48353","-0.26438","-0.49734"
"-0.57161","-0.38395","-1.831","1.3242","0.35109","-0.44192","0.46924","-0.27008","-0.50141"
"-12.953","9.7414","-10.089","0.84807","3.1463","-0.058592","0.49041","-0.2889","-0.46321"
"-29.719","-3.525","-2.9234","-0.64302","-0.47972","0.065088","0.51781","-0.3006","-0.4183"
"-11.285","-32.241","3.3305","-0.22801","-1.6623","-0.62787","0.50439","-0.27632","-0.45063"
"-25.848","5.9108","-6.6224","-0.68357","2.0265","0.45215","0.51491","-0.29157","-0.43185"
"-14.974","0.007266","-1.4305","-0.97809","-1.3061","-0.40189","0.52875","-0.26036","-0.43928"
"-6.3953","2.2602","-1.1631","-0.03","-1.0856","0.42758","0.51636","-0.25592","-0.46391"
"-1.8836","6.6723","-0.96467","-0.94225","-1.9983","0.7078","0.49203","-0.26153","-0.49418"
"3.1639","2.5541","-1.414","-0.27381","-0.053334","-0.1267","0.47506","-0.24686","-0.51918"
"-1.5826","2.6006","-2.6799","-0.18816","0.48059","0.087143","0.48327","-0.24069","-0.51172"
"-0.42219","1.6153","2.7016","-0.32677","0.86069","0.095101","0.48336","-0.23875","-0.50883"
"-6.4392","-3.1537","-3.2814","0.31663","1.7723","-0.45193","0.49776","-0.24621","-0.4866"
"-32.36","13.603","-1.457","-0.65106","2.0843","0.1034","0.53817","-0.23175","-0.44797"
"-13.331","-20.697","10.075","-0.85597","-0.27918","0.42218","0.52689","-0.22201","-0.46375"
