"AccX","AccY","AccZ","GyroX","GyroY","GyroZ","MagX","MagY","MagZ"
"-4.0144","8.5153","2.7423","-0.00681","-0.000663","-0.023956","0.31643","-0.70463","-0.67421"
"-4.0294","8.5078","2.727","0.013336","0.00989","-0.008882","0.31539","-0.70291","-0.67518"
"-4.0369","8.5079","2.6968","-0.005332","-0.005929","-0.009877","0.31541","-0.70229","-0.67452"
"-4.0368","8.5078","2.7269","-0.003714","0.016962","-0.000892","0.31603","-0.70325","-0.67318"
"-4.0068","8.5002","2.78","-0.003842","-0.004174","0.00249","0.31609","-0.70204","-0.67462"
"-4.0294","8.5152","2.742","-0.005444","0.015199","-0.00355","0.31611","-0.70421","-0.67501"
"-4.0293","8.5077","2.742","-0.00354","0.009911","-0.009765","0.3156","-0.70335","-0.67372"
"-4.0144","8.5004","2.7273","-0.000844","0.01166","-0.010638","0.31551","-0.70314","-0.67241"
"-4.0369","8.5228","2.7268","0.00278","-0.00066","-0.01513","0.31547","-0.70298","-0.67334"
"-4.0294","8.5228","2.727","0.001865","0.006381","-0.013316","0.31517","-0.70232","-0.67361"
"-4.0144","8.5078","2.7423","-0.00025","0.010787","0.002594","0.3161","-0.70255","-0.67462"
"-4.0143","8.5077","2.7573","-0.008142","0.009915","-0.002706","0.31488","-0.70357","-0.67441"
"-4.0069","8.5003","2.7425","-0.008168","0.013432","-0.000919","0.31427","-0.7025","-0.6755"
"-4.0143","8.5077","2.7573","0.001626","0.025748","-0.00083","0.31514","-0.70343","-0.6748"
"-4.0293","8.5078","2.7345","-0.010865","0.017849","0.000878","0.31511","-0.7029","-0.67532"
"-4.0144","8.5078","2.7423","-0.001915","0.009906","-0.002706","0.31555","-0.70306","-0.67465"
"-4.0294","8.5227","2.757","-0.012808","0.006413","0.006979","0.31565","-0.70328","-0.67569"
"-4.0144","8.5079","2.7273","-0.004622","0.006389","-0.000967","0.31513","-0.70381","-0.67519"
"-4.0294","8.5227","2.7495","0.003318","0.021354","0.002672","0.31499","-0.70203","-0.67454"
"-3.9994","8.4929","2.7276","-0.005412","0.016943","-0.004426","0.3155","-0.70174","-0.67557"
"-4.0145","8.5229","2.7273","-0.016109","0.004641","-0.004506","0.31529","-0.70256","-0.67413"
"-4.0442","8.4927","2.7342","-0.007076","0.006401","-0.010675","0.31524","-0.70175","-0.67519"
"-4.0143","8.5001","2.7798","-0.015997","-0.012966","-0.01169","0.31431","-0.70292","-0.67457"
"-4.0218","8.5077","2.7572","0.001716","0.011664","-0.006222","0.31633","-0.70265","-0.67566"
"-3.9996","8.5229","2.7276","0.001848","0.018691","-0.011467","0.31583","-0.7023","-0.67437"
"-4.0294","8.5078","2.727","0.010357","0.006381","0.005211","0.31441","-0.70212","-0.67523"
"-4.0145","8.5229","2.7273","-0.000123","0.017826","-0.002648","0.31597","-0.70396","-0.67489"
"-3.9994","8.5079","2.7426","-0.012585","-0.002411","-0.003676","0.31503","-0.70371","-0.67414"
"-3.9991","8.4627","2.7727","-0.015874","0.006389","-0.015093","0.316","-0.70259","-0.67371"
"-4.0292","8.5076","2.7795","-0.005432","-0.005047","-0.006338","0.31633","-0.70176","-0.6754"
"-4.0143","8.5077","2.7573","0.006208","0.016935","-0.00795","0.31552","-0.70138","-0.67478"
"-3.9994","8.5079","2.7426","-0.00361","0.01342","-0.006212","0.316","-0.70284","-0.67371"
"-4.0144","8.5079","2.7273","-0.003389","0.006378","-0.01685","0.31482","-0.70199","-0.67547"
"-4.0293","8.5077","2.742","-0.00908","0.001121","-0.001003","0.31492","-0.7031","-0.67323"
"-4.0293","8.5077","2.742","-0.015326","0.009933","0.000823","0.31594","-0.70254","-0.67502"
"-4.0368","8.5077","2.7419","-0.008689","0.016959","-0.017657","0.31595","-0.70241","-0.67489"
"-3.9994","8.5004","2.7276","0.006309","0.002839","-0.013346","0.31572","-0.70334","-0.67398"
"-4.0294","8.5078","2.727","-0.009011","0.016083","-0.002664","0.31467","-0.70363","-0.67626"
"-4.0292","8.5076","2.7795","-0.00095","-0.005934","-0.008109","0.31441","-0.7025","-0.67536"
"-4.0143","8.5003","2.7423","-0.012634","0.001118","-0.001005","0.31608","-0.70254","-0.67502"
"-4.0144","8.5078","2.7423","-0.003644","-0.005938","-0.006346","0.31598","-0.70333","-0.67449"
"-4.0143","8.5003","2.7423","0.001713","0.006378","-0.006262","0.31594","-0.7024","-0.67515"
"-4.0444","8.5227","2.7267","-0.005323","0.006399","-0.009787","0.31444","-0.70278","-0.67483"
"-4.0369","8.5227","2.7418","-0.011513","0.006403","-0.011551","0.3152","-0.70273","-0.67309"
"-4.0143","8.4928","2.7423","-0.021526","0.020496","0.000893","0.31625","-0.70346","-0.67461"
"-4.0292","8.4927","2.7495","-0.012406","0.011683","-0.010638","0.31601","-0.70272","-0.67358"
"-4.0069","8.5078","2.7425","0.002457","0.001096","-0.00012","0.31545","-0.70359","-0.67412"
"-4.0294","8.5153","2.727","-0.005331","0.011674","-0.008869","0.31459","-0.70242","-0.6743"
"-4.0068","8.5003","2.7575","-0.003426","0.010778","-0.015055","0.31539","-0.70228","-0.67492"
"-4.0144","8.5152","2.7573","-0.003738","0.00991","-0.000939","0.31651","-0.70293","-0.67486"
"-4.0144","8.5078","2.7498","-0.002073","0.00815","0.004341","0.3153","-0.70333","-0.67413"
"-4.0143","8.5003","2.7423","-0.012481","0.001114","-0.008064","0.31496","-0.70225","-0.67546"
"-4.0368","8.5077","2.7419","-0.010601","0.016965","-0.011481","0.31527","-0.70241","-0.67466"
"-4.0143","8.4927","2.7573","0.001858","0.002853","-0.013346","0.31658","-0.70313","-0.67329"
"-4.0069","8.5003","2.75","0.006927","0.004611","-0.000979","0.31594","-0.70329","-0.67541"
"-4.0369","8.5227","2.7493","0.001797","0.01519","-0.009724","0.31469","-0.70403","-0.67587"
"-4.0144","8.5079","2.7273","-0.005491","0.017833","-0.000887","0.31529","-0.7037","-0.67466"
"-4.0143","8.5002","2.7573","0.001811","-0.000666","-0.011604","0.31375","-0.70278","-0.67473"
"-4.0592","8.5076","2.7564","-0.00191","0.01521","-0.002667","0.31434","-0.70358","-0.67405"
"-4.0144","8.5153","2.7423","0.003605","0.008134","-0.01154","0.31455","-0.70276","-0.67535"
"-4.0144","8.5227","2.7573","-0.00167","0.001977","-0.015111","0.31532","-0.70284","-0.67361"
"-3.9995","8.5079","2.7276","-0.007902","0.01078","-0.01329","0.31432","-0.70228","-0.67431"
"-4.0144","8.5078","2.7498","0.001836","0.013417","-0.011505","0.31431","-0.70253","-0.67458"
"-4.0293","8.5077","2.742","-0.016047","0.018732","-0.006175","0.31567","-0.70177","-0.67478"
"-4.0293","8.5002","2.742","-0.014234","0.004644","-0.008922","0.3151","-0.70149","-0.67507"
"-4.0367","8.5002","2.7569","9.1e-05","-0.000655","-0.014251","0.31536","-0.70276","-0.67584"
"-4.0143","8.5003","2.7498","0.009788","0.006366","-0.00979","0.31542","-0.70331","-0.67478"
"-4.0293","8.5077","2.742","-0.005266","0.017834","-0.011474","0.31711","-0.70299","-0.67365"
"-4.0144","8.5153","2.7423","0.005157","0.009898","-0.000939","0.31598","-0.70269","-0.67423"
"-4.0145","8.5228","2.7423","0.006161","0.011655","-0.00622","0.3157","-0.7023","-0.67425"
"-4.0294","8.5078","2.7195","-0.003584","0.00287","-0.00805","0.31544","-0.70232","-0.67373"
"-4.0368","8.5077","2.7419","-0.014434","0.011696","0.000836","0.31466","-0.70514","-0.67376"
"-4.0294","8.5078","2.727","0.007263","0.018696","-0.014998","0.31573","-0.70386","-0.67398"
"-4.0294","8.5227","2.757","0.01036","0.004622","0.004321","0.31531","-0.70283","-0.67374"
"-4.0143","8.4928","2.7348","-0.00354","0.006382","-0.009793","0.31489","-0.70282","-0.67402"
"-4.0144","8.5079","2.7273","-1.8e-05","0.0099","-0.008001","0.31568","-0.70356","-0.67503"
"-4.0294","8.5078","2.7195","-0.006036","-0.005936","-0.018701","0.31626","-0.70346","-0.67448"
"-4.0293","8.5077","2.7495","-0.023259","0.00642","-0.002731","0.31514","-0.7028","-0.67454"
"-4.0143","8.5077","2.7573","-0.010662","0.006393","-0.00979","0.31545","-0.70296","-0.67373"
"-4.0293","8.5077","2.757","0.017881","0.006361","-0.014199","0.31524","-0.70252","-0.67532"
"-4.0294","8.5227","2.742","0.001752","0.009906","-0.007997","0.31656","-0.70298","-0.67368"
"-4.0144","8.5078","2.7423","-0.0052","0.011663","-0.015048","0.315","-0.70343","-0.6748"
"-4.0369","8.5228","2.7268","-0.01052","-0.002404","-0.016908","0.31573","-0.70423","-0.67424"
"-4.0143","8.4928","2.7423","-0.00683","0.00638","-0.022147","0.31614","-0.70399","-0.67409"
"-4.0292","8.4777","2.742","-0.005628","0.00288","0.004298","0.31465","-0.70184","-0.676"
"-4.0143","8.5077","2.7723","-0.003632","0.006387","-0.006259","0.31581","-0.70215","-0.6749"
"-4.0069","8.5078","2.7425","0.007089","0.009888","-0.008","0.31666","-0.70232","-0.67433"
"-4.0145","8.5228","2.7423","0.007458","0.015163","-0.024725","0.31643","-0.70298","-0.67356"
"-4.0294","8.5078","2.727","0.001627","-0.000655","-0.00278","0.31585","-0.70257","-0.67398"
"-4.0144","8.5079","2.7273","0.00344","-0.002426","-0.004557","0.31532","-0.70246","-0.67334"
"-4.0292","8.4927","2.757","-1.6e-05","0.002866","-0.008934","0.31557","-0.70269","-0.67412"
"-4.0143","8.5003","2.7498","-0.000217","0.008146","0.00081","0.31612","-0.70257","-0.67423"
"-4.0368","8.5077","2.7419","-4.1e-05","0.009912","-0.007117","0.31496","-0.70352","-0.67585"
"-4.0143","8.5077","2.7573","-0.000295","0.009909","0.004354","0.31448","-0.70282","-0.67378"
"-3.9994","8.5079","2.7426","0.008713","0.031013","0.000971","0.31509","-0.70237","-0.67559"
"-4.0368","8.5078","2.7269","0.002551","-0.002414","-0.004557","0.31544","-0.7032","-0.67426"
"-4.0143","8.5003","2.7423","0.010549","-0.002434","-0.004558","0.31545","-0.70309","-0.67386"
"-4.0144","8.5078","2.7498","-0.003717","-0.002414","-0.002792","0.31472","-0.70355","-0.67495"
"-4.0143","8.4927","2.7573","-0.007173","0.009911","-0.006238","0.31598","-0.70181","-0.67397"
"-3.9994","8.4929","2.7426","-0.001946","0.01166","-0.000933","0.31539","-0.70202","-0.67479"
"-4.0443","8.5077","2.7417","-0.001655","0.016075","-0.014133","0.31571","-0.70358","-0.67451"
"-4.0294","8.5078","2.727","-0.019762","-0.009429","-0.001078","0.31408","-0.70435","-0.67406"
"-4.0143","8.4928","2.7423","-0.014456","0.018727","0.002646","0.31558","-0.70283","-0.67399"
"-4.0219","8.5078","2.7422","-0.007204","0.013436","-0.004446","0.31562","-0.70426","-0.67359"
"-4.0068","8.4928","2.7425","0.003472","-0.005951","-0.006349","0.31472","-0.70317","-0.67495"
"-4.0445","8.5377","2.7267","0.001441","0.017844","0.007062","0.31527","-0.70267","-0.67466"
"-3.9845","8.5004","2.7429","-0.00704","0.018695","-0.011472","0.31449","-0.70371","-0.67404"
"-4.0143","8.5003","2.7423","-0.016076","0.00112","-0.0063","0.31476","-0.70295","-0.6739"
"-4.0143","8.4928","2.7423","0.001842","0.013417","-0.011508","0.3147","-0.70226","-0.67508"
"-4.0144","8.5078","2.7498","-0.003714","-0.000654","-0.00278","0.31585","-0.70207","-0.67371"
"-4.0367","8.4927","2.7569","-0.00437","0.000232","-0.013364","0.3147","-0.70264","-0.67521"
"-4.0294","8.5227","2.7495","-0.001785","0.000227","-0.009829","0.31439","-0.70198","-0.67562"
"-4.0143","8.5077","2.7573","0.00715","0.014292","-0.010616","0.31445","-0.70253","-0.67457"
"-4.0143","8.4929","2.7273","0.010737","0.013405","-0.011508","0.31456","-0.70239","-0.67509"
"-4.0069","8.5078","2.7575","-3.3e-05","0.006377","-0.008024","0.31613","-0.70169","-0.67357"
"-4.0143","8.5077","2.7573","4.5e-05","0.007258","-0.011548","0.31528","-0.70217","-0.6744"
"-4.0143","8.5077","2.7573","-0.017768","-0.000641","-0.010722","0.31439","-0.7021","-0.67575"
"-4.0143","8.4928","2.7498","0.012428","0.022209","-0.007034","0.31565","-0.70365","-0.67595"
"-4.0144","8.5228","2.7498","-0.003664","0.008147","-0.00448","0.31516","-0.70383","-0.67453"
"-3.9994","8.5004","2.7426","-0.015944","0.010792","-0.011527","0.31653","-0.70283","-0.67434"
"-4.0293","8.5077","2.742","0.00158","0.00815","-7.1e-05","0.31529","-0.70357","-0.67453"
"-4.0143","8.5077","2.7573","0.015828","0.013406","-0.000915","0.3144","-0.70199","-0.67536"
"-4.0144","8.5078","2.7498","-0.012477","0.016959","-0.007069","0.31569","-0.70255","-0.67451"
"-4.0143","8.4928","2.7423","0.008801","0.013412","-0.004449","0.31495","-0.70275","-0.67573"
"-4.0069","8.5079","2.7275","-0.003724","0.011666","-0.00093","0.315","-0.70419","-0.67519"
