"AccX","AccY","AccZ","GyroX","GyroY","GyroZ","MagX","MagY","MagZ"
"-6.3677","10.122","-3.0137","0.14714","-0.16255","-0.96727","0.53031","-0.37038","0.28208"
"-6.0534","10.137","-2.7073","0.42062","-0.22436","-0.47001","0.53823","-0.35073","0.27468"
"-6.3215","11.203","-3.179","-0.46673","0.2436","-0.18248","0.54199","-0.34463","0.27118"
"-6.4065","8.536","-3.9731","-0.14137","0.14483","0.26276","0.53941","-0.34956","0.28049"
"-6.8522","9.5686","-3.8257","0.11484","0.30689","0.58181","0.53153","-0.36039","0.29205"
"-6.7551","9.7473","-3.4263","-0.18163","0.55385","0.82092","0.51952","-0.37258","0.30683"
"-7.024","9.7759","-3.3417","-0.56258","0.49483","1.1638","0.50147","-0.3992","0.31953"
"-6.96","9.1444","-2.9345","-0.50286","0.42452","1.5214","0.47988","-0.43821","0.33209"
"-6.6679","9.263","-2.3061","-0.42991","0.45268","1.8393","0.44843","-0.48318","0.34669"
"-6.2735","9.4158","-2.6059","-0.45451","0.3206","2.0625","0.41678","-0.52809","0.35643"
"-5.7236","9.9952","-2.5355","-0.42343","0.23323","2.1714","0.38565","-0.57007","0.35979"
"-4.3635","9.6204","-3.093","-0.51877","0.45101","2.254","0.34601","-0.61551","0.36249"
"-3.3042","7.3861","-2.2439","-0.61812","0.77716","2.2064","0.29904","-0.66042","0.36746"
"-1.326","4.1461","-0.35498","-0.66517","0.47673","1.7395","0.24895","-0.70181","0.36154"
"1.2848","2.546","0.9747","-0.54755","0.33933","0.97758","0.21811","-0.72929","0.35388"
"1.4103","2.9354","1.2319","-0.17549","0.026731","0.18225","0.20548","-0.74165","0.34639"
"0.7357","4.4958","0.48136","0.38795","-0.26201","-0.66386","0.21634","-0.73282","0.34622"
"-0.43627","6.6268","-0.8725","0.80995","-0.34942","-1.1176","0.24022","-0.71098","0.35985"
"-1.2696","7.1958","-1.4376","0.90684","-0.5289","-1.4187","0.27428","-0.67411","0.37235"
"-1.8789","6.2217","-2.229","0.78162","-0.67132","-1.7835","0.31378","-0.63437","0.3779"
"-3.4198","6.1601","-3.3103","0.59962","-0.57377","-2.1393","0.34967","-0.59693","0.38146"
"-6.0573","7.6059","-3.62","0.66447","-0.50051","-2.3493","0.38824","-0.54647","0.3783"
"-7.8414","8.8734","-3.5372","0.57349","-0.49775","-2.3516","0.42322","-0.49556","0.37132"
"-7.8748","9.9569","-2.6087","-0.01763","-0.4617","-2.3362","0.46095","-0.44356","0.34809"
"-7.54","11.378","-3.2112","-1.0371","-0.36362","-2.1385","0.49142","-0.41132","0.3115"
"-7.3725","13.369","-3.8327","-0.71979","-0.02498","-1.7546","0.51336","-0.38389","0.27961"
"-6.3777","11.286","-1.4621","0.11189","0.15458","-0.78474","0.52821","-0.36174","0.27109"
"-7.1505","8.5426","-2.6826","-0.20319","0.035874","-0.2347","0.53483","-0.3535","0.26785"
"-6.9388","7.9148","-3.0003","0.23432","0.20086","0.072524","0.53341","-0.35344","0.26674"
"-6.9091","8.3165","-2.1673","0.22703","0.22921","0.31285","0.52671","-0.35654","0.27651"
"-6.6954","10.327","-2.1202","0.11825","0.22424","0.71205","0.51704","-0.36408","0.28955"
"-7.6351","9.9939","-2.2588","0.16556","0.18968","1.1574","0.50389","-0.38353","0.3073"
"-7.2716","8.9165","-2.5204","0.18602","0.020667","1.5274","0.48762","-0.40942","0.32361"
"-6.6582","8.6794","-2.6429","0.11734","0.089242","1.7537","0.46877","-0.44516","0.33695"
"-6.0485","10.142","-3.8326","0.056733","0.22637","1.8537","0.44873","-0.47878","0.35572"
"-6.9273","14","-3.7119","-0.80301","0.40618","2.5219","0.41717","-0.52061","0.36873"
"-5.782","9.257","-3.6313","-1.1852","0.45551","2.8275","0.37168","-0.58384","0.36283"
"-3.7587","5.7715","-2.1613","-0.67946","0.57503","2.2894","0.32643","-0.63592","0.36018"
"-2.8229","4.1233","-1.7055","-0.46107","0.56876","1.8654","0.28028","-0.68135","0.35825"
"-0.68826","2.2133","-0.25753","-0.39169","0.38075","1.3581","0.24389","-0.70985","0.35923"
"1.076","3.6724","0.42907","-0.48518","0.090854","0.53311","0.22407","-0.72676","0.35246"
"1.029","5.4579","0.26113","-0.13445","-0.33788","-0.36601","0.2251","-0.73201","0.34205"
"0.060833","7.452","-0.46576","0.45769","-0.20633","-0.69995","0.24513","-0.72112","0.34165"
"-0.40222","7.3312","-0.71502","0.59336","-0.054166","-0.95303","0.26328","-0.70025","0.34913"
"-0.94182","4.928","-0.43814","0.62922","-0.3016","-1.4141","0.28891","-0.67272","0.35746"
"-2.4023","5.2265","-1.4732","1.0621","-0.4813","-1.8282","0.32067","-0.63965","0.37287"
"-4.6629","7.3275","-2.0761","1.2119","-0.64955","-2.0865","0.35725","-0.58581","0.3861"
"-6.8545","8.9796","-2.8722","0.69737","-0.81334","-2.1173","0.39763","-0.5355","0.38317"
"-7.5897","9.2723","-3.6151","0.31466","-0.89784","-2.0155","0.44136","-0.48543","0.36141"
"-6.32","9.27","-3.6646","0.019123","-0.8188","-1.9074","0.47673","-0.44651","0.33261"
"-6.6123","9.7016","-3.1307","-0.054229","-0.46201","-1.8677","0.50408","-0.41162","0.30816"
"-7.6012","11.663","-3.2053","0.28042","-0.42117","-1.4134","0.526","-0.37268","0.28698"
"-7.7521","11.71","-3.756","0.33729","-0.41203","-0.83013","0.543","-0.34431","0.27253"
"-6.3712","10.366","-3.9819","0.095595","-0.10752","-0.25569","0.55552","-0.33008","0.26105"
"-5.9174","8.1971","-3.1677","-0.16111","0.080236","0.012549","0.56028","-0.32896","0.26022"
"-6.2661","7.4188","-3.9241","-0.18484","0.20371","0.15352","0.55754","-0.33146","0.26298"
"-6.2473","9.5786","-3.8585","-0.25171","0.44068","0.27915","0.5486","-0.34081","0.27279"
"-6.5156","9.2866","-4.2312","-0.46358","0.68589","0.48726","0.53687","-0.35476","0.28693"
"-8.1071","11.328","-2.7121","-0.56513","0.73288","1.0256","0.51552","-0.38298","0.31013"
"-6.939","7.9724","-2.5574","-0.66673","0.68333","1.4004","0.49235","-0.42001","0.3251"
"-7.1466","9.2453","-2.2628","-0.54271","0.50119","1.5486","0.46957","-0.454","0.33746"
"-6.9672","10.492","-2.6282","-0.52636","0.29983","2.0786","0.44073","-0.50016","0.34839"
"-6.1149","10.346","-2.641","-0.56536","0.28213","2.5249","0.40259","-0.55079","0.35222"
"-4.5971","9.2383","-1.6192","-0.70333","0.22182","2.4888","0.35523","-0.61046","0.351"
"-3.4494","7.0883","-1.1136","-0.65771","0.20867","2.1662","0.31667","-0.65538","0.34642"
"-2.6416","5.4044","-1.1931","-0.55192","0.2158","1.7785","0.28049","-0.68938","0.34363"
"-1.2212","3.8044","-1.0278","-0.32159","0.039337","1.2846","0.25232","-0.71543","0.33779"
"0.90324","3.8072","0.32042","-0.21789","-0.014957","0.66036","0.23419","-0.73544","0.33109"
"1.4613","4.3483","0.58614","0.13509","-0.12876","-0.059448","0.22789","-0.7379","0.324"
"0.43536","6.8848","-0.92249","0.72295","-0.018561","-0.60689","0.23882","-0.72622","0.33894"
"-0.5347","6.7084","-0.89677","0.68872","-0.23478","-0.93136","0.25393","-0.70656","0.3557"
"-1.1272","5.4785","-1.4776","0.9013","-0.44282","-1.3831","0.28007","-0.67582","0.36733"
"-2.1328","6.0847","-2.1287","1.0368","-0.53604","-1.7365","0.3139","-0.63683","0.38152"
"-3.8872","7.0258","-2.8702","0.922","-0.60746","-2.1057","0.35613","-0.58229","0.39174"
"-6.1843","8.4488","-4.591","0.42928","-0.61652","-2.4179","0.39485","-0.53498","0.38402"
"-7.9314","10.252","-3.4652","0.14678","-0.40311","-2.4459","0.42766","-0.49328","0.36766"
"-6.7715","10.26","-2.5265","-0.34175","-0.46357","-2.1552","0.46258","-0.45583","0.3408"
"-6.9737","10.803","-1.5258","-0.61874","-0.47957","-1.7845","0.49218","-0.42605","0.30861"
"-6.4332","11.185","-2.7083","-0.060238","-0.45212","-1.2884","0.52016","-0.39224","0.27529"
"-6.4419","11.276","-3.0462","0.81498","-0.36831","-0.56066","0.53476","-0.36605","0.26544"
"-6.5324","9.7929","-3.5116","0.58449","-0.051773","-0.16877","0.54168","-0.34861","0.26952"
"-6.1644","8.0537","-3.3522","-0.34219","0.1122","0.086073","0.54181","-0.34773","0.27319"
"-6.1254","7.308","-4.326","-0.32016","0.3418","0.01512","0.53892","-0.35109","0.27515"
"-6.7822","9.153","-3.1708","-0.20734","0.39502","0.27185","0.52868","-0.35747","0.29144"
"-6.993","9.43","-3.2503","-0.22863","0.52734","0.52519","0.51538","-0.37135","0.3042"
"-7.5072","10.962","-2.5271","-0.38163","0.47179","0.98753","0.50147","-0.3915","0.31328"
"-7.383","10.249","-2.1186","-0.50698","0.31729","1.5105","0.48287","-0.42546","0.32336"
"-7.1864","9.7994","-2.0917","-0.63071","0.19164","1.7989","0.46178","-0.46722","0.33045"
"-7.1499","10.128","-1.7087","-1.0421","0.1114","2.1408","0.43077","-0.5236","0.33476"
"-6.0424","8.5698","-1.0845","-0.75538","-0.30931","2.2575","0.40364","-0.57666","0.32432"
"-4.6477","7.533","-1.1154","-0.17976","-0.15586","2.1816","0.37762","-0.61913","0.31469"
"-2.942","6.844","-1.5305","0.42442","0.057295","2.1891","0.34065","-0.65392","0.32613"
"-1.0839","5.8305","-1.3345","0.4353","0.19702","1.873","0.30124","-0.67988","0.34856"
"0.1101","4.6351","-1.2867","0.064675","0.1824","1.1852","0.26632","-0.69965","0.3619"
"0.75273","4.5257","-1.4237","-0.34565","0.025505","0.5011","0.24956","-0.71208","0.35774"
"0.77291","4.9607","-1.4088","-0.03875","-0.16018","-0.22718","0.24853","-0.71581","0.35155"
"0.36944","5.0262","-1.3119","0.54341","-0.2209","-0.76225","0.26428","-0.7047","0.35723"
"-0.3681","5.9025","-1.7329","0.74578","-0.23693","-1.2457","0.28638","-0.67639","0.37011"
"-1.3715","6.3488","-1.7835","0.76724","-0.33884","-1.6751","0.32456","-0.63906","0.37574"
"-3.2418","6.7107","-2.2417","0.85244","-0.44918","-2.0455","0.35884","-0.59391","0.383"
"-5.0845","7.4409","-2.8497","0.84892","-0.59807","-2.2661","0.39321","-0.5466","0.39026"
"-7.4091","8.9491","-3.4157","0.52437","-0.7286","-2.3258","0.43064","-0.49352","0.38324"
"-8.5423","10.076","-3.1321","-0.22364","-0.72523","-2.2029","0.4647","-0.44971","0.36118"
"-7.5599","9.4784","-2.8116","-0.86997","-0.41929","-1.9662","0.50316","-0.41303","0.3197"
"-6.7695","9.6549","-3.021","-0.69573","-0.18379","-1.6169","0.52689","-0.38877","0.28305"
"-7.1221","11.497","-2.745","-0.084528","-0.21938","-1.299","0.54092","-0.36609","0.26114"
"-6.7896","10.377","-3.6224","0.36873","-0.060479","-0.67963","0.55316","-0.34314","0.25303"
"-6.0185","9.2791","-2.1052","0.092183","0.1704","-0.29437","0.55494","-0.33191","0.25361"
"-6.486","8.4916","-2.5339","-0.079296","0.17985","0.086704","0.55116","-0.32864","0.25656"
"-6.5911","9.6051","-3.4975","0.16097","0.22023","0.36602","0.54554","-0.33275","0.26547"
"-7.1928","10.732","-2.7531","0.20405","0.33353","0.94771","0.53576","-0.34487","0.28101"
"-7.0661","9.3007","-2.8765","-0.033229","0.25825","1.2848","0.52095","-0.37022","0.29949"
"-7.3488","8.9334","-3.1969","-0.13026","0.32198","1.4696","0.50242","-0.39971","0.31662"
"-7.1417","9.4357","-2.9682","-0.24244","0.46293","1.5624","0.47876","-0.43577","0.34007"
"-6.8937","10.354","-3.4594","-0.60495","0.52158","1.923","0.45549","-0.47739","0.35453"
"-6.523","9.6409","-3.016","-0.83392","0.50433","2.3163","0.42377","-0.52314","0.35904"
"-5.2074","8.3158","-2.3429","-0.53059","0.45402","2.3104","0.38283","-0.57483","0.36117"
"-3.6857","7.4429","-1.9963","-0.2317","0.49857","2.1472","0.34136","-0.61655","0.37111"
"-2.8541","6.7656","-2.444","-0.3464","0.63368","1.8877","0.29216","-0.65802","0.37688"
"-1.5107","4.7772","-0.92929","-0.57872","0.5618","1.4474","0.25218","-0.69077","0.376"
"0.43687","4.3069","0.40084","-0.57587","0.1037","0.85287","0.23045","-0.71248","0.3681"
"1.149","5.2919","0.4741","-0.071615","-0.27084","0.26457","0.22165","-0.72513","0.36012"
"0.63626","8.1783","-1.5801","0.061654","-0.31683","-0.1526","0.22723","-0.72465","0.35554"
"0.48748","8.2658","-1.118","0.28303","-0.12703","-0.39035","0.23717","-0.71697","0.35246"
"0.40979","4.6346","-0.89055","0.28186","-0.28928","-0.84222","0.25399","-0.70459","0.35452"
